welcome.started,welcome.stopped,key_resp_welc.keys,key_resp_welc.rt,key_resp_welc.duration,trials_2.thisRepN,trials_2.thisTrialN,trials_2.thisN,trials_2.thisIndex,trials_2.ran,Introduction,participant,Email Adresiniz,session,date,expName,psychopyVersion,OS,frameRate,fix.started,fix.stopped,Studypractice.started,Studypractice.stopped,key_resp_p.keys,key_resp_p.corr,key_resp_p.rt,key_resp_p.duration,rt,corr,FB.started,FB.stopped,trials.thisRepN,trials.thisTrialN,trials.thisN,trials.thisIndex,trials.ran,item_nr_p,target_p,isHarmonic_p,target_cond_p,CorrAns_p,inst2.started,inst2.stopped,key_resp_xx.keys,key_resp_xx.rt,key_resp_xx.duration,TestTrial.started,TestTrial.stopped,key_respTest.keys,key_respTest.corr,key_respTest.rt,key_respTest.duration,Pause.started,Pause.stopped,key_resp_pause.keys,trials_3.thisRepN,trials_3.thisTrialN,trials_3.thisN,trials_3.thisIndex,trials_3.ran,item_nr,target,BlogFreq,BlogFreqPm,BlogCD,BlogCDPc,WordLength,isHarmonic,old20,Zipf,CorrAns,word_cond,key_resp_pause.rt,key_resp_pause.duration,Bye.started,Bye.stopped,key_resp_bye.keys,key_resp_bye.rt,key_resp_bye.duration
0.0322,4.4059,space,4.3582,,0,0,0,0,1,"Deneye hoş geldiniz,

Devam etmek için BOŞLUK tuşuna basınız.",303179,,001,2024-02-16_24h15.34.907,VH_new_version2,2023.2.3,Win32,60.24096386,,,,,,,,,,,,,,,,,,,,,,,,,,,,,,,,,,,,,,,,,,,,,,,,,,,,,,,,,,,,
4.4063,12.4222,space,7.9952,,0,1,1,1,1,"Bu çalışma Valencia Üniversitesi kapsamında yürütülmektedir. Deneydeki göreviniz, ekrana çıkacak Türkçe sözcüklerin kelime olup olmadığını belirlemenizdir. Eğer sözcük gerçek bir kelime ise ""m"" tuşuna, değil ise ""z"" tuşuna basınız.   

Devam etmek için BOŞLUK tuşuna basınız.",303179,,001,2024-02-16_24h15.34.907,VH_new_version2,2023.2.3,Win32,60.24096386,,,,,,,,,,,,,,,,,,,,,,,,,,,,,,,,,,,,,,,,,,,,,,,,,,,,,,,,,,,,
12.4337,30.4174,space,17.9658,,0,2,2,2,1,"Her sözcük için en fazla iki saniyede cevap vermeniz beklenmektedir. Aksi takdirde deney bir sonraki sözcük ile devam eder. 
Bu çalışmada oldukça hızlı ve doğru cevaplama yapmanız beklenmektedir.

Devam etmek için BOŞLUK tuşuna basınız.",303179,,001,2024-02-16_24h15.34.907,VH_new_version2,2023.2.3,Win32,60.24096386,,,,,,,,,,,,,,,,,,,,,,,,,,,,,,,,,,,,,,,,,,,,,,,,,,,,,,,,,,,,
30.4265,38.9198,space,8.4761,,0,3,3,3,1,"Çalışmaya başlamadan önce ufak bir pratik yer almaktadır.
Kelimedir: ""m""
Kelime değildir: ""z""

Pratik teste başlamak için BOŞLUK tuşuna basınız. ",303179,,001,2024-02-16_24h15.34.907,VH_new_version2,2023.2.3,Win32,60.24096386,,,,,,,,,,,,,,,,,,,,,,,,,,,,,,,,,,,,,,,,,,,,,,,,,,,,,,,,,,,,
,,,,,,,,,,,303179,,001,2024-02-16_24h15.34.907,VH_new_version2,2023.2.3,Win32,60.24096386,38.9439,39.9316,39.9319,44.9072,z,1,4.9412,,4.9412,1,44.9085,45.917,0,0,0,22,1,23,gizım,notharmonic,nw,z,,,,,,,,,,,,,,,,,,,,,,,,,,,,,,,,,,,,,,
,,,,,,,,,,,303179,,001,2024-02-16_24h15.34.907,VH_new_version2,2023.2.3,Win32,60.24096386,45.9177,46.9098,46.9101,49.5591,m,1,2.6174,,2.6174,1,49.5593,50.557,0,1,1,1,1,2,veri,harmonic,word,m,,,,,,,,,,,,,,,,,,,,,,,,,,,,,,,,,,,,,,
,,,,,,,,,,,303179,,001,2024-02-16_24h15.34.907,VH_new_version2,2023.2.3,Win32,60.24096386,50.5577,51.5529,51.553,52.7235,m,1,1.1525,,1.1525,1,52.7236,53.7192,0,2,2,6,1,7,sebep,harmonic,word,m,,,,,,,,,,,,,,,,,,,,,,,,,,,,,,,,,,,,,,
,,,,,,,,,,,303179,,001,2024-02-16_24h15.34.907,VH_new_version2,2023.2.3,Win32,60.24096386,53.7194,54.7203,54.7203,56.6248,z,1,1.8808,,1.8808,1,56.6248,57.6197,0,3,3,18,1,19,pimer,harmonic,nw,z,,,,,,,,,,,,,,,,,,,,,,,,,,,,,,,,,,,,,,
,,,,,,,,,,,303179,,001,2024-02-16_24h15.34.907,VH_new_version2,2023.2.3,Win32,60.24096386,57.62,58.6128,58.6129,60.0758,z,1,1.4356,,1.4356,1,60.0758,61.0771,0,4,4,12,1,13,tahip,notharmonic,nw,z,,,,,,,,,,,,,,,,,,,,,,,,,,,,,,,,,,,,,,
,,,,,,,,,,,303179,,001,2024-02-16_24h15.34.907,VH_new_version2,2023.2.3,Win32,60.24096386,61.0779,62.0785,62.0786,63.4268,z,1,1.3302,,1.3302,1,63.4271,64.427,0,5,5,15,1,16,geki,harmonic,nw,z,,,,,,,,,,,,,,,,,,,,,,,,,,,,,,,,,,,,,,
,,,,,,,,,,,303179,,001,2024-02-16_24h15.34.907,VH_new_version2,2023.2.3,Win32,60.24096386,64.4275,65.4273,65.4274,67.0127,m,1,1.5703,,1.5703,1,67.0129,68.0149,0,6,6,5,1,6,gizli,harmonic,word,m,,,,,,,,,,,,,,,,,,,,,,,,,,,,,,,,,,,,,,
,,,,,,,,,,,303179,,001,2024-02-16_24h15.34.907,VH_new_version2,2023.2.3,Win32,60.24096386,68.0156,69.0119,69.0119,70.1294,m,1,1.0944,,1.0944,1,70.1295,71.1297,0,7,7,11,1,12,teslim,harmonic,word,m,,,,,,,,,,,,,,,,,,,,,,,,,,,,,,,,,,,,,,
,,,,,,,,,,,303179,,001,2024-02-16_24h15.34.907,VH_new_version2,2023.2.3,Win32,60.24096386,71.1306,72.1297,72.1298,73.0464,z,1,0.8981,,0.8981,1,73.0465,74.0529,0,8,8,17,1,18,pilar,notharmonic,nw,z,,,,,,,,,,,,,,,,,,,,,,,,,,,,,,,,,,,,,,
,,,,,,,,,,,303179,,001,2024-02-16_24h15.34.907,VH_new_version2,2023.2.3,Win32,60.24096386,74.0538,75.0475,75.0475,76.0651,z,1,1.0023,,1.0023,1,76.0652,77.0651,0,9,9,16,1,17,ihlot,notharmonic,nw,z,,,,,,,,,,,,,,,,,,,,,,,,,,,,,,,,,,,,,,
,,,,,,,,,,,303179,,001,2024-02-16_24h15.34.907,VH_new_version2,2023.2.3,Win32,60.24096386,77.0657,78.0655,78.0656,78.8154,m,0,0.7322,,0.7322,0,78.8156,79.816,0,10,10,13,1,14,orat,harmonic,nw,z,,,,,,,,,,,,,,,,,,,,,,,,,,,,,,,,,,,,,,
,,,,,,,,,,,303179,,001,2024-02-16_24h15.34.907,VH_new_version2,2023.2.3,Win32,60.24096386,79.8169,80.816,80.8161,81.666,m,1,0.8327,,0.8327,1,81.6661,82.6665,0,11,11,3,1,4,sevgi,harmonic,word,m,,,,,,,,,,,,,,,,,,,,,,,,,,,,,,,,,,,,,,
,,,,,,,,,,,303179,,001,2024-02-16_24h15.34.907,VH_new_version2,2023.2.3,Win32,60.24096386,82.6671,83.6675,83.6675,84.4007,m,1,0.7153,,0.7153,1,84.4009,85.4006,0,12,12,9,1,10,zarar,harmonic,word,m,,,,,,,,,,,,,,,,,,,,,,,,,,,,,,,,,,,,,,
,,,,,,,,,,,303179,,001,2024-02-16_24h15.34.907,VH_new_version2,2023.2.3,Win32,60.24096386,85.4013,86.4006,86.4006,87.2674,z,1,0.8467,,0.8467,1,87.2675,88.2626,0,13,13,21,1,22,güçli,harmonic,nw,z,,,,,,,,,,,,,,,,,,,,,,,,,,,,,,,,,,,,,,
,,,,,,,,,,,303179,,001,2024-02-16_24h15.34.907,VH_new_version2,2023.2.3,Win32,60.24096386,88.2628,89.254,89.254,90.4304,z,1,1.1491,,1.1491,1,90.4305,91.4311,0,14,14,20,1,21,yoğuk,harmonic,nw,z,,,,,,,,,,,,,,,,,,,,,,,,,,,,,,,,,,,,,,
,,,,,,,,,,,303179,,001,2024-02-16_24h15.34.907,VH_new_version2,2023.2.3,Win32,60.24096386,91.4316,92.4201,92.4202,93.3026,z,0,0.8485,,0.8485,0,93.3026,94.2971,0,15,15,7,1,8,oran,harmonic,word,m,,,,,,,,,,,,,,,,,,,,,,,,,,,,,,,,,,,,,,
,,,,,,,,,,,303179,,001,2024-02-16_24h15.34.907,VH_new_version2,2023.2.3,Win32,60.24096386,94.2978,95.2976,95.2977,95.9401,m,1,0.6243,,0.6243,1,95.9402,96.9373,0,16,16,4,1,5,soğuk,harmonic,word,m,,,,,,,,,,,,,,,,,,,,,,,,,,,,,,,,,,,,,,
,,,,,,,,,,,303179,,001,2024-02-16_24h15.34.907,VH_new_version2,2023.2.3,Win32,60.24096386,96.9378,97.9374,97.9374,98.8485,m,1,0.8938,,0.8938,1,98.8485,99.838,0,17,17,0,1,1,hazır,harmonic,word,m,,,,,,,,,,,,,,,,,,,,,,,,,,,,,,,,,,,,,,
,,,,,,,,,,,303179,,001,2024-02-16_24h15.34.907,VH_new_version2,2023.2.3,Win32,60.24096386,99.8386,100.8397,100.8398,101.9001,z,1,1.0331,,1.0331,1,101.9001,102.89,0,18,18,23,1,24,zarim,notharmonic,nw,z,,,,,,,,,,,,,,,,,,,,,,,,,,,,,,,,,,,,,,
,,,,,,,,,,,303179,,001,2024-02-16_24h15.34.907,VH_new_version2,2023.2.3,Win32,60.24096386,102.8907,103.9009,103.9009,104.7354,z,1,0.8165,,0.8165,1,104.7355,105.7233,0,19,19,19,1,20,mımal,harmonic,nw,z,,,,,,,,,,,,,,,,,,,,,,,,,,,,,,,,,,,,,,
,,,,,,,,,,,303179,,001,2024-02-16_24h15.34.907,VH_new_version2,2023.2.3,Win32,60.24096386,105.7236,106.7179,106.7179,107.5623,m,1,0.8286,,0.8286,1,107.5623,108.5584,0,20,20,2,1,3,yardım,harmonic,word,m,,,,,,,,,,,,,,,,,,,,,,,,,,,,,,,,,,,,,,
,,,,,,,,,,,303179,,001,2024-02-16_24h15.34.907,VH_new_version2,2023.2.3,Win32,60.24096386,108.5592,109.5688,109.5689,110.5418,m,1,0.9522,,0.9522,1,110.5419,111.5534,0,21,21,8,1,9,bilim,harmonic,word,m,,,,,,,,,,,,,,,,,,,,,,,,,,,,,,,,,,,,,,
,,,,,,,,,,,303179,,001,2024-02-16_24h15.34.907,VH_new_version2,2023.2.3,Win32,60.24096386,111.5538,112.5477,112.5479,113.287,m,1,0.7175,,0.7175,1,113.287,114.287,0,22,22,10,1,11,nefret,harmonic,word,m,,,,,,,,,,,,,,,,,,,,,,,,,,,,,,,,,,,,,,
,,,,,,,,,,,303179,,001,2024-02-16_24h15.34.907,VH_new_version2,2023.2.3,Win32,60.24096386,114.2873,115.2771,115.2772,116.1208,z,1,0.8173,,0.8173,1,116.1208,117.1156,0,23,23,14,1,15,mahne,notharmonic,nw,z,,,,,,,,,,,,,,,,,,,,,,,,,,,,,,,,,,,,,,
,,,,,,,,,,,303179,,001,2024-02-16_24h15.34.907,VH_new_version2,2023.2.3,Win32,60.24096386,,,,,,,,,,,,,,,,,,,,,,,117.116,123.4574,space,6.3091,,,,,,,,,,,,,,,,,,,,,,,,,,,,,,,,,,
,,,,,,,,,,,303179,,001,2024-02-16_24h15.34.907,VH_new_version2,2023.2.3,Win32,60.24096386,123.4987,124.4623,,,,,,,,,,,,,,,,,,,,,,,,,,124.4627,125.0632,m,1,0.5747,,125.0633,125.065,,0,0,0,116,1,117,nokta,2085,94.7341,1939,0.212,5,harmonic,1.5,4.976506334,m,w,,,,,,,
,,,,,,,,,,,303179,,001,2024-02-16_24h15.34.907,VH_new_version2,2023.2.3,Win32,60.24096386,125.0656,126.0635,,,,,,,,,,,,,,,,,,,,,,,,,,126.0637,126.68,m,1,0.5911,,126.6801,126.6804,,0,1,1,107,1,108,isim,2366,107.5017,2163,0.2365,4,harmonic,1,5.031415332,m,w,,,,,,,
,,,,,,,,,,,303179,,001,2024-02-16_24h15.34.907,VH_new_version2,2023.2.3,Win32,60.24096386,126.6815,127.6805,,,,,,,,,,,,,,,,,,,,,,,,,,127.6807,128.4474,m,1,0.7488,,128.4476,128.4476,,0,2,2,1,1,2,ufuk,437,19.8555,403,0.0441,4,harmonic,1.85,4.297880828,m,w,,,,,,,
,,,,,,,,,,,303179,,001,2024-02-16_24h15.34.907,VH_new_version2,2023.2.3,Win32,60.24096386,128.4481,129.4482,,,,,,,,,,,,,,,,,,,,,,,,,,129.4482,130.981,m,0,1.5075,,130.9811,130.9811,,0,3,3,178,1,179,güzül,,,,,5,harmonic,1.65,,z,nw,,,,,,,
,,,,,,,,,,,303179,,001,2024-02-16_24h15.34.907,VH_new_version2,2023.2.3,Win32,60.24096386,130.991,131.9822,,,,,,,,,,,,,,,,,,,,,,,,,,131.9823,132.9315,z,1,0.9313,,132.9316,132.9317,,0,4,4,151,1,152,uban,,,,,4,harmonic,1.35,,z,nw,,,,,,,
,,,,,,,,,,,303179,,001,2024-02-16_24h15.34.907,VH_new_version2,2023.2.3,Win32,60.24096386,132.9322,133.9318,,,,,,,,,,,,,,,,,,,,,,,,,,133.9318,134.916,z,1,0.9565,,134.9162,134.9163,,0,5,5,207,1,208,dendek,,,,,6,harmonic,1.8,,z,nw,,,,,,,
,,,,,,,,,,,303179,,001,2024-02-16_24h15.34.907,VH_new_version2,2023.2.3,Win32,60.24096386,134.9168,135.9163,,,,,,,,,,,,,,,,,,,,,,,,,,135.9165,137.1165,z,1,1.1809,,137.1166,137.1168,,0,6,6,263,1,264,magina,,,,,6,notharmonic,1.9,,z,nw,,,,,,,
,,,,,,,,,,,303179,,001,2024-02-16_24h15.34.907,VH_new_version2,2023.2.3,Win32,60.24096386,137.1249,138.1168,,,,,,,,,,,,,,,,,,,,,,,,,,138.1168,138.917,m,1,0.7849,,138.9172,138.9175,,0,7,7,80,1,81,ahlak,641,29.1245,543,0.0594,5,harmonic,1.35,4.464258478,m,w,,,,,,,
,,,,,,,,,,,303179,,001,2024-02-16_24h15.34.907,VH_new_version2,2023.2.3,Win32,60.24096386,138.9181,139.9178,,,,,,,,,,,,,,,,,,,,,,,,,,139.9179,140.7676,z,1,0.8241,,140.7678,140.7678,,0,8,8,211,1,212,yıksık,,,,,6,harmonic,1.8,,z,nw,,,,,,,
,,,,,,,,,,,303179,,001,2024-02-16_24h15.34.907,VH_new_version2,2023.2.3,Win32,60.24096386,140.7684,141.7689,,,,,,,,,,,,,,,,,,,,,,,,,,141.769,142.9183,z,1,1.1283,,142.9183,142.9184,,0,9,9,201,1,202,lingin,,,,,6,harmonic,1.6,,z,nw,,,,,,,
,,,,,,,,,,,303179,,001,2024-02-16_24h15.34.907,VH_new_version2,2023.2.3,Win32,60.24096386,142.919,143.9183,,,,,,,,,,,,,,,,,,,,,,,,,,143.9184,144.5527,m,1,0.612,,144.5528,144.5529,,0,10,10,43,1,44,bilgi,5981,271.7529,5353,0.5852,5,harmonic,1.5,5.434174187,m,w,,,,,,,
,,,,,,,,,,,303179,,001,2024-02-16_24h15.34.907,VH_new_version2,2023.2.3,Win32,60.24096386,144.5537,145.5523,,,,,,,,,,,,,,,,,,,,,,,,,,145.5524,146.1862,m,1,0.6112,,146.1863,146.1865,,0,11,11,47,1,48,yemek,9626,437.3673,8311,0.9086,5,harmonic,1.35,5.64084631,m,w,,,,,,,
,,,,,,,,,,,303179,,001,2024-02-16_24h15.34.907,VH_new_version2,2023.2.3,Win32,60.24096386,146.1871,147.1863,,,,,,,,,,,,,,,,,,,,,,,,,,147.1863,147.8196,m,1,0.6161,,147.8196,147.82,,0,12,12,103,1,104,resim,2506,113.8627,2188,0.2392,5,harmonic,1.4,5.056381478,m,w,,,,,,,
,,,,,,,,,,,303179,,001,2024-02-16_24h15.34.907,VH_new_version2,2023.2.3,Win32,60.24096386,147.8206,148.8202,,,,,,,,,,,,,,,,,,,,,,,,,,148.8203,149.7707,z,1,0.9246,,149.7709,149.7709,,0,13,13,245,1,246,gaset,,,,,5,notharmonic,1.85,,z,nw,,,,,,,
,,,,,,,,,,,303179,,001,2024-02-16_24h15.34.907,VH_new_version2,2023.2.3,Win32,60.24096386,149.7715,150.7703,,,,,,,,,,,,,,,,,,,,,,,,,,150.7704,152.721,z,1,1.9317,,152.7213,152.7214,,0,14,14,275,1,276,teşbuz,,,,,6,notharmonic,2.75,,z,nw,,,,,,,
,,,,,,,,,,,303179,,001,2024-02-16_24h15.34.907,VH_new_version2,2023.2.3,Win32,60.24096386,152.7221,153.722,,,,,,,,,,,,,,,,,,,,,,,,,,153.7221,154.5886,z,1,0.8474,,154.5887,154.5888,,0,15,15,209,1,210,soğkal,,,,,6,harmonic,2.1,,z,nw,,,,,,,
,,,,,,,,,,,303179,,001,2024-02-16_24h15.34.907,VH_new_version2,2023.2.3,Win32,60.24096386,154.5895,155.589,,,,,,,,,,,,,,,,,,,,,,,,,,155.5893,156.3227,m,1,0.7035,,156.3228,156.3228,,0,16,16,15,1,16,ışık,1814,82.421,1635,0.1787,4,harmonic,1.6,4.916037879,m,w,,,,,,,
,,,,,,,,,,,303179,,001,2024-02-16_24h15.34.907,VH_new_version2,2023.2.3,Win32,60.24096386,156.3234,157.3228,,,,,,,,,,,,,,,,,,,,,,,,,,157.3228,157.8725,m,1,0.5347,,157.8726,157.8727,,0,17,17,94,1,95,bebek,3301,149.9843,2794,0.3054,5,harmonic,1.6,5.176045801,m,w,,,,,,,
,,,,,,,,,,,303179,,001,2024-02-16_24h15.34.907,VH_new_version2,2023.2.3,Win32,60.24096386,157.8731,158.8733,,,,,,,,,,,,,,,,,,,,,,,,,,158.8734,159.7907,z,1,0.8932,,159.7908,159.7911,,0,18,18,169,1,170,senez,,,,,5,harmonic,1.65,,z,nw,,,,,,,
,,,,,,,,,,,303179,,001,2024-02-16_24h15.34.907,VH_new_version2,2023.2.3,Win32,60.24096386,159.7918,160.7902,,,,,,,,,,,,,,,,,,,,,,,,,,160.7902,161.6904,z,1,0.8806,,161.6906,161.6906,,0,19,19,239,1,240,kanel,,,,,5,notharmonic,1.9,,z,nw,,,,,,,
,,,,,,,,,,,303179,,001,2024-02-16_24h15.34.907,VH_new_version2,2023.2.3,Win32,60.24096386,161.6914,162.6907,,,,,,,,,,,,,,,,,,,,,,,,,,162.6908,164.4919,m,0,1.7736,,164.4921,164.4923,,0,20,20,182,1,183,tesil,,,,,5,harmonic,1.45,,z,nw,,,,,,,
,,,,,,,,,,,303179,,001,2024-02-16_24h15.34.907,VH_new_version2,2023.2.3,Win32,60.24096386,164.493,165.4925,,,,,,,,,,,,,,,,,,,,,,,,,,165.4926,166.4259,m,1,0.9143,,166.4261,166.4262,,0,21,21,13,1,14,kedi,1646,74.7877,1394,0.1524,4,harmonic,1.1,4.873830177,m,w,,,,,,,
,,,,,,,,,,,303179,,001,2024-02-16_24h15.34.907,VH_new_version2,2023.2.3,Win32,60.24096386,166.4269,167.4258,,,,,,,,,,,,,,,,,,,,,,,,,,167.4259,168.459,z,1,1.0092,,168.4591,168.4591,,0,22,22,273,1,274,kalkeş,,,,,6,notharmonic,1.85,,z,nw,,,,,,,
,,,,,,,,,,,303179,,001,2024-02-16_24h15.34.907,VH_new_version2,2023.2.3,Win32,60.24096386,168.4597,169.4599,,,,,,,,,,,,,,,,,,,,,,,,,,169.4601,170.3937,z,1,0.9148,,170.3939,170.3941,,0,23,23,191,1,192,pedrek,,,,,6,harmonic,2,,z,nw,,,,,,,
,,,,,,,,,,,303179,,001,2024-02-16_24h15.34.907,VH_new_version2,2023.2.3,Win32,60.24096386,170.3947,171.3936,,,,,,,,,,,,,,,,,,,,,,,,,,171.3937,172.2102,z,1,0.7926,,172.2103,172.2103,,0,24,24,234,1,235,ated,,,,,4,notharmonic,1.8,,z,nw,,,,,,,
,,,,,,,,,,,303179,,001,2024-02-16_24h15.34.907,VH_new_version2,2023.2.3,Win32,60.24096386,172.2113,173.211,,,,,,,,,,,,,,,,,,,,,,,,,,173.2111,174.1448,z,1,0.9149,,174.145,174.1451,,0,25,25,244,1,245,kimık,,,,,5,notharmonic,2,,z,nw,,,,,,,
,,,,,,,,,,,303179,,001,2024-02-16_24h15.34.907,VH_new_version2,2023.2.3,Win32,60.24096386,174.1457,175.1448,,,,,,,,,,,,,,,,,,,,,,,,,,175.1449,176.0947,m,1,0.9262,,176.0947,176.0948,,0,26,26,84,1,85,eğitim,4784,217.366,3846,0.4204,6,harmonic,1.5,5.337191613,m,w,,,,,,,
,,,,,,,,,,,303179,,001,2024-02-16_24h15.34.907,VH_new_version2,2023.2.3,Win32,60.24096386,176.0952,177.0954,,,,,,,,,,,,,,,,,,,,,,,,,,177.0955,177.879,z,1,0.7664,,177.8791,177.8795,,0,27,27,217,1,218,heka,,,,,4,notharmonic,1.75,,z,nw,,,,,,,
,,,,,,,,,,,303179,,001,2024-02-16_24h15.34.907,VH_new_version2,2023.2.3,Win32,60.24096386,177.8804,178.8791,,,,,,,,,,,,,,,,,,,,,,,,,,178.8792,179.7125,m,1,0.807,,179.7125,179.7126,,0,28,28,73,1,74,gemi,629,28.5793,544,0.0595,4,harmonic,1.1,4.456051587,m,w,,,,,,,
,,,,,,,,,,,303179,,001,2024-02-16_24h15.34.907,VH_new_version2,2023.2.3,Win32,60.24096386,179.713,180.7131,,,,,,,,,,,,,,,,,,,,,,,,,,180.7133,181.4296,m,1,0.6986,,181.4297,181.4297,,0,29,29,52,1,53,buğday,746,33.8953,623,0.0681,6,harmonic,1.9,4.530139482,m,w,,,,,,,
,,,,,,,,,,,303179,,001,2024-02-16_24h15.34.907,VH_new_version2,2023.2.3,Win32,60.24096386,181.43,182.43,,,,,,,,,,,,,,,,,,,,,,,,,,182.43,183.0138,m,1,0.5603,,183.0139,183.0141,,0,30,30,131,1,132,doğa,1381,62.7472,1180,0.129,4,harmonic,1,4.797594351,m,w,,,,,,,
,,,,,,,,,,,303179,,001,2024-02-16_24h15.34.907,VH_new_version2,2023.2.3,Win32,60.24096386,183.0148,184.0172,,,,,,,,,,,,,,,,,,,,,,,,,,184.0174,184.7143,z,1,0.6774,,184.7144,184.7146,,0,31,31,271,1,272,yakele,,,,,6,notharmonic,2,,z,nw,,,,,,,
,,,,,,,,,,,303179,,001,2024-02-16_24h15.34.907,VH_new_version2,2023.2.3,Win32,60.24096386,184.715,185.7146,,,,,,,,,,,,,,,,,,,,,,,,,,185.7146,186.4479,z,1,0.7128,,186.4479,186.4481,,0,32,32,218,1,219,ecmu,,,,,4,notharmonic,2,,z,nw,,,,,,,
,,,,,,,,,,,303179,,001,2024-02-16_24h15.34.907,VH_new_version2,2023.2.3,Win32,60.24096386,186.4499,187.4494,,,,,,,,,,,,,,,,,,,,,,,,,,187.4495,188.2321,z,1,0.7623,,188.2324,188.2327,,0,33,33,240,1,241,makek,,,,,5,notharmonic,1.9,,z,nw,,,,,,,
,,,,,,,,,,,303179,,001,2024-02-16_24h15.34.907,VH_new_version2,2023.2.3,Win32,60.24096386,188.2333,189.2321,,,,,,,,,,,,,,,,,,,,,,,,,,189.2322,189.8993,m,1,0.6454,,189.8995,189.8996,,0,34,34,48,1,49,çocuk,10612,482.1672,8979,0.9816,5,harmonic,1.75,5.683197664,m,w,,,,,,,
,,,,,,,,,,,303179,,001,2024-02-16_24h15.34.907,VH_new_version2,2023.2.3,Win32,60.24096386,189.9008,190.8995,,,,,,,,,,,,,,,,,,,,,,,,,,190.8996,191.6164,m,1,0.698,,191.6166,191.6168,,0,35,35,41,1,42,hayal,4498,204.3713,4079,0.4459,5,harmonic,1.45,5.310419907,m,w,,,,,,,
,,,,,,,,,,,303179,,001,2024-02-16_24h15.34.907,VH_new_version2,2023.2.3,Win32,60.24096386,191.6175,192.6167,,,,,,,,,,,,,,,,,,,,,,,,,,192.6168,193.2335,m,1,0.5962,,193.2336,193.2337,,0,36,36,38,1,39,fikir,2552,115.9528,2413,0.2638,5,harmonic,1.9,5.06428124,m,w,,,,,,,
,,,,,,,,,,,303179,,001,2024-02-16_24h15.34.907,VH_new_version2,2023.2.3,Win32,60.24096386,193.2345,194.2344,,,,,,,,,,,,,,,,,,,,,,,,,,194.2345,195.1015,z,1,0.8479,,195.1016,195.1017,,0,37,37,282,1,283,daketi,,,,,6,notharmonic,1.8,,z,nw,,,,,,,
,,,,,,,,,,,303179,,001,2024-02-16_24h15.34.907,VH_new_version2,2023.2.3,Win32,60.24096386,195.1024,196.1012,,,,,,,,,,,,,,,,,,,,,,,,,,196.1014,196.8527,z,1,0.7278,,196.8529,196.8531,,0,38,38,173,1,174,pirbe,,,,,5,harmonic,1.9,,z,nw,,,,,,,
,,,,,,,,,,,303179,,001,2024-02-16_24h15.34.907,VH_new_version2,2023.2.3,Win32,60.24096386,196.8539,197.8517,,,,,,,,,,,,,,,,,,,,,,,,,,197.8519,198.6688,z,1,0.7996,,198.6689,198.6691,,0,39,39,235,1,236,mate,,,,,4,notharmonic,1.65,,z,nw,,,,,,,
,,,,,,,,,,,303179,,001,2024-02-16_24h15.34.907,VH_new_version2,2023.2.3,Win32,60.24096386,198.67,199.6697,,,,,,,,,,,,,,,,,,,,,,,,,,199.6698,200.3695,z,1,0.6757,,200.3695,200.3696,,0,40,40,187,1,188,ahfam,,,,,5,harmonic,1.85,,z,nw,,,,,,,
,,,,,,,,,,,303179,,001,2024-02-16_24h15.34.907,VH_new_version2,2023.2.3,Win32,60.24096386,200.37,201.3698,,,,,,,,,,,,,,,,,,,,,,,,,,201.3699,202.0694,z,1,0.6818,,202.0694,202.0695,,0,41,41,232,1,233,leda,,,,,4,notharmonic,1.6,,z,nw,,,,,,,
,,,,,,,,,,,303179,,001,2024-02-16_24h15.34.907,VH_new_version2,2023.2.3,Win32,60.24096386,202.0699,203.0702,,,,,,,,,,,,,,,,,,,,,,,,,,203.0703,203.8035,m,1,0.7113,,203.8036,203.8037,,0,42,42,42,1,43,şeker,4708,213.9128,4170,0.4559,5,harmonic,1.6,5.330236772,m,w,,,,,,,
,,,,,,,,,,,303179,,001,2024-02-16_24h15.34.907,VH_new_version2,2023.2.3,Win32,60.24096386,203.8045,204.8047,,,,,,,,,,,,,,,,,,,,,,,,,,204.8049,205.323,m,1,0.5001,,205.323,205.3233,,0,43,43,93,1,94,olay,3415,155.1641,3179,0.3475,4,harmonic,1.5,5.190791247,m,w,,,,,,,
,,,,,,,,,,,303179,,001,2024-02-16_24h15.34.907,VH_new_version2,2023.2.3,Win32,60.24096386,205.3242,206.3219,,,,,,,,,,,,,,,,,,,,,,,,,,206.322,206.8213,m,1,0.4749,,206.8216,206.8217,,0,44,44,35,1,36,araba,1704,77.423,1485,0.1623,5,harmonic,1,4.888869995,m,w,,,,,,,
,,,,,,,,,,,303179,,001,2024-02-16_24h15.34.907,VH_new_version2,2023.2.3,Win32,60.24096386,206.8225,207.822,,,,,,,,,,,,,,,,,,,,,,,,,,207.8223,208.4214,m,1,0.5783,,208.4215,208.4216,,0,45,45,76,1,77,koltuk,559,25.3987,476,0.052,6,harmonic,1.75,4.404811488,m,w,,,,,,,
,,,,,,,,,,,303179,,001,2024-02-16_24h15.34.907,VH_new_version2,2023.2.3,Win32,60.24096386,208.4221,209.4218,,,,,,,,,,,,,,,,,,,,,,,,,,209.4218,210.0076,m,1,0.562,,210.0076,210.0078,,0,46,46,30,1,31,pamuk,937,42.5736,826,0.0903,5,harmonic,1.9,4.629140375,m,w,,,,,,,
,,,,,,,,,,,303179,,001,2024-02-16_24h15.34.907,VH_new_version2,2023.2.3,Win32,60.24096386,210.0084,211.0078,,,,,,,,,,,,,,,,,,,,,,,,,,211.0079,211.656,m,1,0.626,,211.6562,211.6564,,0,47,47,138,1,139,ödül,1063,48.2985,926,0.1012,4,harmonic,1.7,4.683933643,m,w,,,,,,,
,,,,,,,,,,,303179,,001,2024-02-16_24h15.34.907,VH_new_version2,2023.2.3,Win32,60.24096386,211.6571,212.6563,,,,,,,,,,,,,,,,,,,,,,,,,,212.6563,213.4234,z,1,0.7398,,213.4236,213.4237,,0,48,48,213,1,214,zale,,,,,4,notharmonic,1.55,,z,nw,,,,,,,
,,,,,,,,,,,303179,,001,2024-02-16_24h15.34.907,VH_new_version2,2023.2.3,Win32,60.24096386,213.4245,214.4239,,,,,,,,,,,,,,,,,,,,,,,,,,214.424,215.01,m,1,0.5719,,215.01,215.0102,,0,49,49,83,1,84,şafak,616,27.9886,521,0.057,5,harmonic,1.8,4.446981175,m,w,,,,,,,
,,,,,,,,,,,303179,,001,2024-02-16_24h15.34.907,VH_new_version2,2023.2.3,Win32,60.24096386,215.0103,216.0102,,,,,,,,,,,,,,,,,,,,,,,,,,216.0102,216.6745,z,1,0.6336,,216.6747,216.6749,,0,50,50,155,1,156,megi,,,,,4,harmonic,1.8,,z,nw,,,,,,,
,,,,,,,,,,,303179,,001,2024-02-16_24h15.34.907,VH_new_version2,2023.2.3,Win32,60.24096386,216.6754,217.6747,,,,,,,,,,,,,,,,,,,,,,,,,,217.6747,218.2136,m,1,0.5224,,218.2136,218.2136,,0,51,51,14,1,15,ocak,1685,76.5597,1548,0.1692,4,harmonic,1.9,4.884000223,m,w,,,,,,,
,,,,,,,,,,,303179,,001,2024-02-16_24h15.34.907,VH_new_version2,2023.2.3,Win32,60.24096386,218.2139,219.2092,,,,,,,,,,,,,,,,,,,,,,,,,,219.2093,220.0449,z,1,0.7905,,220.045,220.0451,,0,52,52,200,1,201,tuzrak,,,,,6,harmonic,1.95,,z,nw,,,,,,,
,,,,,,,,,,,303179,,001,2024-02-16_24h15.34.907,VH_new_version2,2023.2.3,Win32,60.24096386,220.0455,221.042,,,,,,,,,,,,,,,,,,,,,,,,,,221.042,221.8587,z,1,0.799,,221.8587,221.8587,,0,53,53,254,1,255,hadir,,,,,5,notharmonic,1.4,,z,nw,,,,,,,
,,,,,,,,,,,303179,,001,2024-02-16_24h15.34.907,VH_new_version2,2023.2.3,Win32,60.24096386,221.8591,222.8481,,,,,,,,,,,,,,,,,,,,,,,,,,222.8483,223.5764,m,1,0.6956,,223.5765,223.5766,,0,54,54,135,1,136,gündüz,1167,53.0239,1088,0.1189,6,harmonic,1.6,4.724471668,m,w,,,,,,,
,,,,,,,,,,,303179,,001,2024-02-16_24h15.34.907,VH_new_version2,2023.2.3,Win32,60.24096386,223.5772,224.5763,,,,,,,,,,,,,,,,,,,,,,,,,,224.5764,225.3553,m,1,0.7628,,225.3554,225.3554,,0,55,55,132,1,133,abla,1287,58.4762,1156,0.1264,4,harmonic,1,4.766979143,m,w,,,,,,,
,,,,,,,,,,,303179,,001,2024-02-16_24h15.34.907,VH_new_version2,2023.2.3,Win32,60.24096386,225.3558,226.3545,,,,,,,,,,,,,,,,,,,,,,,,,,226.3546,227.0102,m,1,0.6267,,227.0103,227.0103,,0,56,56,63,1,64,hizmet,3023,137.3531,2689,0.294,6,harmonic,1.75,5.137838466,m,w,,,,,,,
,,,,,,,,,,,303179,,001,2024-02-16_24h15.34.907,VH_new_version2,2023.2.3,Win32,60.24096386,227.0107,227.9991,,,,,,,,,,,,,,,,,,,,,,,,,,227.9991,228.6004,m,1,0.5763,,228.6006,228.6009,,0,57,57,82,1,83,oyun,4926,223.8179,3995,0.4367,4,harmonic,1,5.349894817,m,w,,,,,,,
,,,,,,,,,,,303179,,001,2024-02-16_24h15.34.907,VH_new_version2,2023.2.3,Win32,60.24096386,228.6019,229.5948,,,,,,,,,,,,,,,,,,,,,,,,,,229.5949,230.528,z,1,0.9082,,230.528,230.528,,0,58,58,165,1,166,eyel,,,,,4,harmonic,1.65,,z,nw,,,,,,,
,,,,,,,,,,,303179,,001,2024-02-16_24h15.34.907,VH_new_version2,2023.2.3,Win32,60.24096386,230.5283,231.5233,,,,,,,,,,,,,,,,,,,,,,,,,,231.5234,232.1747,m,1,0.6346,,232.1748,232.1749,,0,59,59,39,1,40,mayıs,2630,119.4968,2294,0.2508,5,harmonic,1.75,5.077356275,m,w,,,,,,,
,,,,,,,,,,,303179,,001,2024-02-16_24h15.34.907,VH_new_version2,2023.2.3,Win32,60.24096386,232.1753,233.1742,,,,,,,,,,,,,,,,,,,,,,,,,,233.1742,233.8631,m,1,0.662,,233.8631,233.8633,,0,60,60,21,1,22,kötü,9344,424.5543,8257,0.9027,4,harmonic,1.65,5.627933244,m,w,,,,,,,
,,,,,,,,,,,303179,,001,2024-02-16_24h15.34.907,VH_new_version2,2023.2.3,Win32,60.24096386,233.8639,234.8527,,,,,,,,,,,,,,,,,,,,,,,,,,234.8528,235.502,m,1,0.6282,,235.502,235.5022,,0,61,61,130,1,131,başarı,1398,63.5196,1300,0.1421,6,harmonic,1.2,4.802907755,m,w,,,,,,,
,,,,,,,,,,,303179,,001,2024-02-16_24h15.34.907,VH_new_version2,2023.2.3,Win32,60.24096386,235.5023,236.5073,,,,,,,,,,,,,,,,,,,,,,,,,,236.5074,237.3378,z,1,0.8076,,237.3379,237.3379,,0,62,62,219,1,220,anel,,,,,4,notharmonic,1.7,,z,nw,,,,,,,
,,,,,,,,,,,303179,,001,2024-02-16_24h15.34.907,VH_new_version2,2023.2.3,Win32,60.24096386,237.3382,238.3333,,,,,,,,,,,,,,,,,,,,,,,,,,238.3335,239.1345,z,1,0.7749,,239.1347,239.1349,,0,63,63,156,1,157,obık,,,,,4,harmonic,1.95,,z,nw,,,,,,,
,,,,,,,,,,,303179,,001,2024-02-16_24h15.34.907,VH_new_version2,2023.2.3,Win32,60.24096386,239.1362,240.125,,,,,,,,,,,,,,,,,,,,,,,,,,240.1251,241.7439,z,1,1.5942,,241.744,241.744,,0,64,64,270,1,271,meşkup,,,,,6,notharmonic,1.95,,z,nw,,,,,,,
,,,,,,,,,,,303179,,001,2024-02-16_24h15.34.907,VH_new_version2,2023.2.3,Win32,60.24096386,241.7569,242.7599,,,,,,,,,,,,,,,,,,,,,,,,,,242.7599,243.4825,z,1,0.7024,,243.4825,243.4826,,0,65,65,171,1,172,faraç,,,,,5,harmonic,1.75,,z,nw,,,,,,,
,,,,,,,,,,,303179,,001,2024-02-16_24h15.34.907,VH_new_version2,2023.2.3,Win32,60.24096386,243.483,244.4779,,,,,,,,,,,,,,,,,,,,,,,,,,244.478,245.1934,m,1,0.6905,,245.1935,245.1935,,0,66,66,27,1,28,sekiz,872,39.6202,803,0.0878,5,harmonic,1.45,4.597916663,m,w,,,,,,,
,,,,,,,,,,,303179,,001,2024-02-16_24h15.34.907,VH_new_version2,2023.2.3,Win32,60.24096386,245.1937,246.1857,,,,,,,,,,,,,,,,,,,,,,,,,,246.186,247.0217,z,1,0.8119,,247.0217,247.0217,,0,67,67,176,1,177,çırna,,,,,5,harmonic,1.85,,z,nw,,,,,,,
,,,,,,,,,,,303179,,001,2024-02-16_24h15.34.907,VH_new_version2,2023.2.3,Win32,60.24096386,247.0219,248.0126,,,,,,,,,,,,,,,,,,,,,,,,,,248.0126,248.7505,m,1,0.7116,,248.7505,248.7506,,0,68,68,112,1,113,kelime,2185,99.2777,1971,0.2155,6,harmonic,1.25,4.996851707,m,w,,,,,,,
,,,,,,,,,,,303179,,001,2024-02-16_24h15.34.907,VH_new_version2,2023.2.3,Win32,60.24096386,248.7517,249.7452,,,,,,,,,,,,,,,,,,,,,,,,,,249.7453,250.4917,z,1,0.7279,,250.4919,250.4921,,0,69,69,258,1,259,ihati,,,,,5,notharmonic,1.95,,z,nw,,,,,,,
,,,,,,,,,,,303179,,001,2024-02-16_24h15.34.907,VH_new_version2,2023.2.3,Win32,60.24096386,250.493,251.4861,,,,,,,,,,,,,,,,,,,,,,,,,,251.4861,252.2181,m,1,0.6968,,252.2181,265.9873,space,0,70,70,134,1,135,araç,1182,53.7054,1050,0.1148,4,harmonic,1.25,4.730017956,m,w,13.7565,,,,,,
,,,,,,,,,,,303179,,001,2024-02-16_24h15.34.907,VH_new_version2,2023.2.3,Win32,60.24096386,266.0018,266.9895,,,,,,,,,,,,,,,,,,,,,,,,,,266.9895,268.1065,z,1,1.0962,,268.1067,268.1068,,0,71,71,149,1,150,irgi,,,,,4,harmonic,1.8,,z,nw,,,,,,,
,,,,,,,,,,,303179,,001,2024-02-16_24h15.34.907,VH_new_version2,2023.2.3,Win32,60.24096386,268.1077,269.1004,,,,,,,,,,,,,,,,,,,,,,,,,,269.1004,270.1686,z,1,1.0518,,270.1686,270.1687,,0,72,72,276,1,277,hiyake,,,,,6,notharmonic,2.25,,z,nw,,,,,,,
,,,,,,,,,,,303179,,001,2024-02-16_24h15.34.907,VH_new_version2,2023.2.3,Win32,60.24096386,270.1689,271.1574,,,,,,,,,,,,,,,,,,,,,,,,,,271.1574,271.7747,m,1,0.5993,,271.7748,271.775,,0,73,73,140,1,141,kimlik,867,39.393,726,0.0794,6,harmonic,1.7,4.595419056,m,w,,,,,,,
,,,,,,,,,,,303179,,001,2024-02-16_24h15.34.907,VH_new_version2,2023.2.3,Win32,60.24096386,271.7757,272.769,,,,,,,,,,,,,,,,,,,,,,,,,,272.769,273.8208,z,1,1.0256,,273.8209,273.8209,,0,74,74,281,1,282,tashin,,,,,6,notharmonic,1.85,,z,nw,,,,,,,
,,,,,,,,,,,303179,,001,2024-02-16_24h15.34.907,VH_new_version2,2023.2.3,Win32,60.24096386,273.8214,274.8198,,,,,,,,,,,,,,,,,,,,,,,,,,274.8198,275.6421,z,1,0.8012,,275.6421,275.6421,,0,75,75,283,1,284,dimdat,,,,,6,notharmonic,2.05,,z,nw,,,,,,,
,,,,,,,,,,,303179,,001,2024-02-16_24h15.34.907,VH_new_version2,2023.2.3,Win32,60.24096386,275.6425,276.6538,,,,,,,,,,,,,,,,,,,,,,,,,,276.6538,277.4535,z,1,0.7741,,277.4535,277.4535,,0,76,76,214,1,215,dera,,,,,4,notharmonic,1.2,,z,nw,,,,,,,
,,,,,,,,,,,303179,,001,2024-02-16_24h15.34.907,VH_new_version2,2023.2.3,Win32,60.24096386,277.4537,278.4538,,,,,,,,,,,,,,,,,,,,,,,,,,278.454,279.089,m,1,0.6187,,279.0891,279.0891,,0,77,77,127,1,128,kaynak,1577,71.6526,1481,0.1619,6,harmonic,1.4,4.855231954,m,w,,,,,,,
,,,,,,,,,,,303179,,001,2024-02-16_24h15.34.907,VH_new_version2,2023.2.3,Win32,60.24096386,279.0893,280.0776,,,,,,,,,,,,,,,,,,,,,,,,,,280.0777,280.7166,z,1,0.5993,,280.7166,280.7167,,0,78,78,215,1,216,zali,,,,,4,notharmonic,1.25,,z,nw,,,,,,,
,,,,,,,,,,,303179,,001,2024-02-16_24h15.34.907,VH_new_version2,2023.2.3,Win32,60.24096386,280.7171,281.7157,,,,,,,,,,,,,,,,,,,,,,,,,,281.7157,282.4111,m,1,0.6704,,282.4111,282.4112,,0,79,79,108,1,109,hayvan,2363,107.3653,1894,0.2071,6,harmonic,1.5,5.030863942,m,w,,,,,,,
,,,,,,,,,,,303179,,001,2024-02-16_24h15.34.907,VH_new_version2,2023.2.3,Win32,60.24096386,282.4117,283.4224,,,,,,,,,,,,,,,,,,,,,,,,,,283.4225,284.0264,z,1,0.5784,,284.0264,284.0265,,0,80,80,242,1,243,sayke,,,,,5,notharmonic,1.9,,z,nw,,,,,,,
,,,,,,,,,,,303179,,001,2024-02-16_24h15.34.907,VH_new_version2,2023.2.3,Win32,60.24096386,284.0267,285.0284,,,,,,,,,,,,,,,,,,,,,,,,,,285.0285,285.662,z,1,0.616,,285.6621,285.6622,,0,81,81,147,1,148,üyöm,,,,,4,harmonic,1.95,,z,nw,,,,,,,
,,,,,,,,,,,303179,,001,2024-02-16_24h15.34.907,VH_new_version2,2023.2.3,Win32,60.24096386,285.6626,286.6623,,,,,,,,,,,,,,,,,,,,,,,,,,286.6623,287.3292,z,1,0.6412,,287.3293,287.3295,,0,82,82,253,1,254,mafke,,,,,5,notharmonic,1.9,,z,nw,,,,,,,
,,,,,,,,,,,303179,,001,2024-02-16_24h15.34.907,VH_new_version2,2023.2.3,Win32,60.24096386,287.3304,288.3348,,,,,,,,,,,,,,,,,,,,,,,,,,288.3348,288.9239,m,1,0.5662,,288.924,288.9241,,0,83,83,70,1,71,gerçek,8983,408.1519,8058,0.8809,6,harmonic,1.7,5.610821823,m,w,,,,,,,
,,,,,,,,,,,303179,,001,2024-02-16_24h15.34.907,VH_new_version2,2023.2.3,Win32,60.24096386,288.9243,289.9249,,,,,,,,,,,,,,,,,,,,,,,,,,289.925,290.5088,m,1,0.5581,,290.5089,290.5089,,0,84,84,54,1,55,elbise,883,40.12,786,0.0859,6,harmonic,1.9,4.603360924,m,w,,,,,,,
,,,,,,,,,,,303179,,001,2024-02-16_24h15.34.907,VH_new_version2,2023.2.3,Win32,60.24096386,290.5091,291.5001,,,,,,,,,,,,,,,,,,,,,,,,,,291.5001,292.1758,z,1,0.6507,,292.1759,292.1759,,0,85,85,224,1,225,faer,,,,,4,notharmonic,1.9,,z,nw,,,,,,,
,,,,,,,,,,,303179,,001,2024-02-16_24h15.34.907,VH_new_version2,2023.2.3,Win32,60.24096386,292.1762,293.1651,,,,,,,,,,,,,,,,,,,,,,,,,,293.1651,293.7978,m,1,0.5978,,293.7978,293.7981,,0,86,86,101,1,102,okul,2685,121.9958,2381,0.2603,4,harmonic,1.35,5.086344879,m,w,,,,,,,
,,,,,,,,,,,303179,,001,2024-02-16_24h15.34.907,VH_new_version2,2023.2.3,Win32,60.24096386,293.7986,294.798,,,,,,,,,,,,,,,,,,,,,,,,,,294.798,295.5981,m,1,0.7821,,295.5982,295.5983,,0,87,87,56,1,57,meslek,1082,49.1618,976,0.1067,6,harmonic,1.9,4.691627776,m,w,,,,,,,
,,,,,,,,,,,303179,,001,2024-02-16_24h15.34.907,VH_new_version2,2023.2.3,Win32,60.24096386,295.5986,296.5997,,,,,,,,,,,,,,,,,,,,,,,,,,296.5998,297.4654,z,1,0.8272,,297.4654,297.4655,,0,88,88,162,1,163,möre,,,,,4,harmonic,1.65,,z,nw,,,,,,,
,,,,,,,,,,,303179,,001,2024-02-16_24h15.34.907,VH_new_version2,2023.2.3,Win32,60.24096386,297.4658,298.4541,,,,,,,,,,,,,,,,,,,,,,,,,,298.4542,299.0609,z,0,0.5832,,299.0609,299.061,,0,89,89,37,1,38,cümle,1911,86.8283,1765,0.193,5,harmonic,1.85,4.938661298,m,w,,,,,,,
,,,,,,,,,,,303179,,001,2024-02-16_24h15.34.907,VH_new_version2,2023.2.3,Win32,60.24096386,299.0613,300.0617,,,,,,,,,,,,,,,,,,,,,,,,,,300.0618,300.9836,m,1,0.8913,,300.9837,300.9838,,0,90,90,62,1,63,kültür,2566,116.5889,2206,0.2412,6,harmonic,1.55,5.066657205,m,w,,,,,,,
,,,,,,,,,,,303179,,001,2024-02-16_24h15.34.907,VH_new_version2,2023.2.3,Win32,60.24096386,300.9844,301.9836,,,,,,,,,,,,,,,,,,,,,,,,,,301.9836,302.817,z,1,0.7977,,302.8171,302.8172,,0,91,91,231,1,232,babi,,,,,4,notharmonic,1.4,,z,nw,,,,,,,
,,,,,,,,,,,303179,,001,2024-02-16_24h15.34.907,VH_new_version2,2023.2.3,Win32,60.24096386,302.8176,303.8123,,,,,,,,,,,,,,,,,,,,,,,,,,303.8123,304.6345,z,1,0.7939,,304.6345,304.6347,,0,92,92,160,1,161,ünte,,,,,4,harmonic,1.65,,z,nw,,,,,,,
,,,,,,,,,,,303179,,001,2024-02-16_24h15.34.907,VH_new_version2,2023.2.3,Win32,60.24096386,304.6354,305.6238,,,,,,,,,,,,,,,,,,,,,,,,,,305.6239,306.1893,m,1,0.5426,,306.1896,306.1897,,0,93,93,119,1,120,cuma,1941,88.1913,1774,0.1939,4,harmonic,1.3,4.945425744,m,w,,,,,,,
,,,,,,,,,,,303179,,001,2024-02-16_24h15.34.907,VH_new_version2,2023.2.3,Win32,60.24096386,306.1907,307.1854,,,,,,,,,,,,,,,,,,,,,,,,,,307.1854,307.8686,m,1,0.6572,,307.8688,307.8688,,0,94,94,26,1,27,boyun,843,38.3026,777,0.0849,5,harmonic,1.05,4.583228255,m,w,,,,,,,
,,,,,,,,,,,303179,,001,2024-02-16_24h15.34.907,VH_new_version2,2023.2.3,Win32,60.24096386,307.8696,308.8695,,,,,,,,,,,,,,,,,,,,,,,,,,308.8696,309.7529,z,1,0.855,,309.7531,309.7532,,0,95,95,175,1,176,sakça,,,,,5,harmonic,1.55,,z,nw,,,,,,,
,,,,,,,,,,,303179,,001,2024-02-16_24h15.34.907,VH_new_version2,2023.2.3,Win32,60.24096386,309.7542,310.7531,,,,,,,,,,,,,,,,,,,,,,,,,,310.7531,311.6311,z,1,0.8561,,311.6311,311.6313,,0,96,96,260,1,261,dülda,,,,,5,notharmonic,1.95,,z,nw,,,,,,,
,,,,,,,,,,,303179,,001,2024-02-16_24h15.34.907,VH_new_version2,2023.2.3,Win32,60.24096386,311.6315,312.6255,,,,,,,,,,,,,,,,,,,,,,,,,,312.6255,313.315,m,1,0.6673,,313.315,313.3151,,0,97,97,129,1,130,peynir,1421,64.5646,1248,0.1364,6,harmonic,1.9,4.809994465,m,w,,,,,,,
,,,,,,,,,,,303179,,001,2024-02-16_24h15.34.907,VH_new_version2,2023.2.3,Win32,60.24096386,313.3153,314.3048,,,,,,,,,,,,,,,,,,,,,,,,,,314.3049,315.0546,z,1,0.7095,,315.0547,315.0548,,0,98,98,188,1,189,yahat,,,,,5,harmonic,1.8,,z,nw,,,,,,,
,,,,,,,,,,,303179,,001,2024-02-16_24h15.34.907,VH_new_version2,2023.2.3,Win32,60.24096386,315.0556,316.0682,,,,,,,,,,,,,,,,,,,,,,,,,,316.0682,316.9001,z,1,0.8153,,316.9002,316.9002,,0,99,99,183,1,184,çapal,,,,,5,harmonic,1.6,,z,nw,,,,,,,
,,,,,,,,,,,303179,,001,2024-02-16_24h15.34.907,VH_new_version2,2023.2.3,Win32,60.24096386,316.9005,317.8913,,,,,,,,,,,,,,,,,,,,,,,,,,317.8914,318.6056,z,1,0.6778,,318.6056,318.6058,,0,100,100,274,1,275,çanese,,,,,6,notharmonic,2,,z,nw,,,,,,,
,,,,,,,,,,,303179,,001,2024-02-16_24h15.34.907,VH_new_version2,2023.2.3,Win32,60.24096386,318.6063,319.6056,,,,,,,,,,,,,,,,,,,,,,,,,,319.6057,320.5175,m,1,0.8955,,320.5175,320.5175,,0,101,101,11,1,12,öykü,958,43.5277,849,0.0928,4,harmonic,1.9,4.63876572,m,w,,,,,,,
,,,,,,,,,,,303179,,001,2024-02-16_24h15.34.907,VH_new_version2,2023.2.3,Win32,60.24096386,320.5177,321.5098,,,,,,,,,,,,,,,,,,,,,,,,,,321.5099,322.2397,m,1,0.6959,,322.2397,322.2397,,0,102,102,65,1,66,destek,3328,151.2111,3065,0.3351,6,harmonic,1.85,5.179583673,m,w,,,,,,,
,,,,,,,,,,,303179,,001,2024-02-16_24h15.34.907,VH_new_version2,2023.2.3,Win32,60.24096386,322.2401,323.2449,,,,,,,,,,,,,,,,,,,,,,,,,,323.2449,323.8674,m,1,0.6001,,323.8675,323.8675,,0,103,103,4,1,5,öfke,606,27.5342,542,0.0593,4,harmonic,1.85,4.439872463,m,w,,,,,,,
,,,,,,,,,,,303179,,001,2024-02-16_24h15.34.907,VH_new_version2,2023.2.3,Win32,60.24096386,323.8677,324.8677,,,,,,,,,,,,,,,,,,,,,,,,,,324.8677,325.4473,m,1,0.5546,,325.4473,325.4474,,0,104,104,75,1,76,dergi,657,29.8515,592,0.0647,5,harmonic,1.3,4.474966159,m,w,,,,,,,
,,,,,,,,,,,303179,,001,2024-02-16_24h15.34.907,VH_new_version2,2023.2.3,Win32,60.24096386,325.4478,326.4413,,,,,,,,,,,,,,,,,,,,,,,,,,326.4414,327.084,m,1,0.6242,,327.084,327.0841,,0,105,105,40,1,41,temel,4231,192.2399,3851,0.421,5,harmonic,1.55,5.283843532,m,w,,,,,,,
,,,,,,,,,,,303179,,001,2024-02-16_24h15.34.907,VH_new_version2,2023.2.3,Win32,60.24096386,327.0844,328.0758,,,,,,,,,,,,,,,,,,,,,,,,,,328.0758,328.8417,z,1,0.7284,,328.8417,328.8418,,0,106,106,247,1,248,fiyan,,,,,5,notharmonic,1.6,,z,nw,,,,,,,
,,,,,,,,,,,303179,,001,2024-02-16_24h15.34.907,VH_new_version2,2023.2.3,Win32,60.24096386,328.8426,329.8547,,,,,,,,,,,,,,,,,,,,,,,,,,329.8548,330.7373,z,1,0.8664,,330.7374,330.7375,,0,107,107,192,1,193,kumgun,,,,,6,harmonic,1.85,,z,nw,,,,,,,
,,,,,,,,,,,303179,,001,2024-02-16_24h15.34.907,VH_new_version2,2023.2.3,Win32,60.24096386,330.7378,331.7378,,,,,,,,,,,,,,,,,,,,,,,,,,331.7379,332.4268,z,1,0.6614,,332.4269,332.4271,,0,108,108,159,1,160,daro,,,,,4,harmonic,1.7,,z,nw,,,,,,,
,,,,,,,,,,,303179,,001,2024-02-16_24h15.34.907,VH_new_version2,2023.2.3,Win32,60.24096386,332.4281,333.4272,,,,,,,,,,,,,,,,,,,,,,,,,,333.4274,334.4551,m,0,1.0001,,334.4551,334.4552,,0,109,109,181,1,182,masus,,,,,5,harmonic,1.7,,z,nw,,,,,,,
,,,,,,,,,,,303179,,001,2024-02-16_24h15.34.907,VH_new_version2,2023.2.3,Win32,60.24096386,334.4555,335.4444,,,,,,,,,,,,,,,,,,,,,,,,,,335.4444,335.9941,m,1,0.5294,,335.9942,335.9942,,0,110,110,87,1,88,sevgi,3950,179.4723,3467,0.379,5,harmonic,1.65,5.253997428,m,w,,,,,,,
,,,,,,,,,,,303179,,001,2024-02-16_24h15.34.907,VH_new_version2,2023.2.3,Win32,60.24096386,335.9945,336.9945,,,,,,,,,,,,,,,,,,,,,,,,,,336.9946,337.7281,m,1,0.7124,,337.7282,337.7285,,0,111,111,74,1,75,çatı,469,21.3095,379,0.0414,4,harmonic,1,4.32857326,m,w,,,,,,,
,,,,,,,,,,,303179,,001,2024-02-16_24h15.34.907,VH_new_version2,2023.2.3,Win32,60.24096386,337.7289,338.7287,,,,,,,,,,,,,,,,,,,,,,,,,,338.7287,339.6791,m,1,0.924,,339.6791,339.6793,,0,112,112,44,1,45,erkek,6188,281.1582,5195,0.5679,5,harmonic,1.55,5.448950754,m,w,,,,,,,
,,,,,,,,,,,303179,,001,2024-02-16_24h15.34.907,VH_new_version2,2023.2.3,Win32,60.24096386,339.6798,340.6803,,,,,,,,,,,,,,,,,,,,,,,,,,340.6803,341.3625,m,1,0.6638,,341.3625,341.3627,,0,113,113,115,1,116,doğu,2105,95.6429,1823,0.1993,4,harmonic,1.05,4.980652736,m,w,,,,,,,
,,,,,,,,,,,303179,,001,2024-02-16_24h15.34.907,VH_new_version2,2023.2.3,Win32,60.24096386,341.3635,342.3631,,,,,,,,,,,,,,,,,,,,,,,,,,342.3632,343.0337,m,1,0.6497,,343.0337,343.034,,0,114,114,8,1,9,ağız,824,37.4393,758,0.0829,4,harmonic,1.2,4.57332772,m,w,,,,,,,
,,,,,,,,,,,303179,,001,2024-02-16_24h15.34.907,VH_new_version2,2023.2.3,Win32,60.24096386,343.0346,344.0313,,,,,,,,,,,,,,,,,,,,,,,,,,344.0313,344.6311,m,1,0.5827,,344.6312,344.6313,,0,115,115,19,1,20,baba,3645,165.6143,3131,0.3423,4,harmonic,1,5.219097833,m,w,,,,,,,
,,,,,,,,,,,303179,,001,2024-02-16_24h15.34.907,VH_new_version2,2023.2.3,Win32,60.24096386,344.6324,345.6304,,,,,,,,,,,,,,,,,,,,,,,,,,345.6304,346.448,m,1,0.7934,,346.4481,346.4483,,0,116,116,79,1,80,erik,376,17.0839,335,0.0366,4,harmonic,1,4.232587021,m,w,,,,,,,
,,,,,,,,,,,303179,,001,2024-02-16_24h15.34.907,VH_new_version2,2023.2.3,Win32,60.24096386,346.4489,347.4476,,,,,,,,,,,,,,,,,,,,,,,,,,347.4476,348.6985,m,1,1.2329,,348.6986,348.6987,,0,117,117,128,1,129,merkez,1445,65.6551,1255,0.1372,6,harmonic,1.8,4.817268467,m,w,,,,,,,
,,,,,,,,,,,303179,,001,2024-02-16_24h15.34.907,VH_new_version2,2023.2.3,Win32,60.24096386,348.6994,349.6988,,,,,,,,,,,,,,,,,,,,,,,,,,349.699,350.5317,z,1,0.8132,,350.5318,350.5318,,0,118,118,154,1,155,afap,,,,,4,harmonic,1.7,,z,nw,,,,,,,
,,,,,,,,,,,303179,,001,2024-02-16_24h15.34.907,VH_new_version2,2023.2.3,Win32,60.24096386,350.5323,351.5319,,,,,,,,,,,,,,,,,,,,,,,,,,351.532,352.366,z,1,0.809,,352.3661,352.3661,,0,119,119,153,1,154,uyko,,,,,4,harmonic,1.95,,z,nw,,,,,,,
,,,,,,,,,,,303179,,001,2024-02-16_24h15.34.907,VH_new_version2,2023.2.3,Win32,60.24096386,352.3665,353.3664,,,,,,,,,,,,,,,,,,,,,,,,,,353.3665,354.1497,z,1,0.7662,,354.1499,354.1501,,0,120,120,220,1,221,nica,,,,,4,notharmonic,1.75,,z,nw,,,,,,,
,,,,,,,,,,,303179,,001,2024-02-16_24h15.34.907,VH_new_version2,2023.2.3,Win32,60.24096386,354.1508,355.15,,,,,,,,,,,,,,,,,,,,,,,,,,355.15,355.784,z,1,0.6081,,355.7842,355.7843,,0,121,121,168,1,169,bovon,,,,,5,harmonic,2,,z,nw,,,,,,,
,,,,,,,,,,,303179,,001,2024-02-16_24h15.34.907,VH_new_version2,2023.2.3,Win32,60.24096386,355.7849,356.7847,,,,,,,,,,,,,,,,,,,,,,,,,,356.7847,357.6345,z,1,0.8297,,357.6346,357.6348,,0,122,122,243,1,244,kuyef,,,,,5,notharmonic,2.3,,z,nw,,,,,,,
,,,,,,,,,,,303179,,001,2024-02-16_24h15.34.907,VH_new_version2,2023.2.3,Win32,60.24096386,357.6354,358.6349,,,,,,,,,,,,,,,,,,,,,,,,,,358.6349,359.2689,z,1,0.606,,359.2691,359.2692,,0,123,123,212,1,213,yeryek,,,,,6,harmonic,1.9,,z,nw,,,,,,,
,,,,,,,,,,,303179,,001,2024-02-16_24h15.34.907,VH_new_version2,2023.2.3,Win32,60.24096386,359.2698,360.2691,,,,,,,,,,,,,,,,,,,,,,,,,,360.2691,361.0519,z,1,0.7641,,361.052,361.0521,,0,124,124,210,1,211,bellet,,,,,6,harmonic,1.65,,z,nw,,,,,,,
,,,,,,,,,,,303179,,001,2024-02-16_24h15.34.907,VH_new_version2,2023.2.3,Win32,60.24096386,361.0527,362.0527,,,,,,,,,,,,,,,,,,,,,,,,,,362.0527,362.6696,z,1,0.5929,,362.6698,362.6698,,0,125,125,190,1,191,gopuk,,,,,5,harmonic,1.85,,z,nw,,,,,,,
,,,,,,,,,,,303179,,001,2024-02-16_24h15.34.907,VH_new_version2,2023.2.3,Win32,60.24096386,362.6704,363.6703,,,,,,,,,,,,,,,,,,,,,,,,,,363.6703,364.42,m,1,0.7289,,364.4202,364.4204,,0,126,126,77,1,78,çanta,639,29.0336,551,0.0602,5,harmonic,1.6,4.462900889,m,w,,,,,,,
,,,,,,,,,,,303179,,001,2024-02-16_24h15.34.907,VH_new_version2,2023.2.3,Win32,60.24096386,364.4214,365.4199,,,,,,,,,,,,,,,,,,,,,,,,,,365.42,366.237,z,1,0.789,,366.2371,366.2372,,0,127,127,172,1,173,çatuk,,,,,5,harmonic,1.8,,z,nw,,,,,,,
,,,,,,,,,,,303179,,001,2024-02-16_24h15.34.907,VH_new_version2,2023.2.3,Win32,60.24096386,366.2376,367.2373,,,,,,,,,,,,,,,,,,,,,,,,,,367.2374,368.087,z,1,0.8322,,368.0871,368.0872,,0,128,128,184,1,185,nekir,,,,,5,harmonic,1.6,,z,nw,,,,,,,
,,,,,,,,,,,303179,,001,2024-02-16_24h15.34.907,VH_new_version2,2023.2.3,Win32,60.24096386,368.0877,369.0875,,,,,,,,,,,,,,,,,,,,,,,,,,369.0876,369.8384,m,1,0.7269,,369.8385,369.8386,,0,129,129,137,1,138,mutfak,1110,50.434,1032,0.1128,6,harmonic,1.95,4.702723414,m,w,,,,,,,
,,,,,,,,,,,303179,,001,2024-02-16_24h15.34.907,VH_new_version2,2023.2.3,Win32,60.24096386,369.8392,370.8384,,,,,,,,,,,,,,,,,,,,,,,,,,370.8385,371.4222,m,1,0.5665,,371.4223,371.4225,,0,130,130,0,1,1,ödev,191,8.6783,175,0.0191,4,harmonic,1.6,3.938434659,m,w,,,,,,,
,,,,,,,,,,,303179,,001,2024-02-16_24h15.34.907,VH_new_version2,2023.2.3,Win32,60.24096386,371.4232,372.422,,,,,,,,,,,,,,,,,,,,,,,,,,372.4221,373.1223,z,1,0.6741,,373.1224,373.1226,,0,131,131,196,1,197,etçime,,,,,6,harmonic,1.9,,z,nw,,,,,,,
,,,,,,,,,,,303179,,001,2024-02-16_24h15.34.907,VH_new_version2,2023.2.3,Win32,60.24096386,373.123,374.1231,,,,,,,,,,,,,,,,,,,,,,,,,,374.1232,374.6891,z,1,0.5489,,374.6892,374.6893,,0,132,132,199,1,200,bartam,,,,,6,harmonic,1.85,,z,nw,,,,,,,
,,,,,,,,,,,303179,,001,2024-02-16_24h15.34.907,VH_new_version2,2023.2.3,Win32,60.24096386,374.6899,375.6898,,,,,,,,,,,,,,,,,,,,,,,,,,375.6899,376.3398,m,1,0.623,,376.3398,376.3399,,0,133,133,64,1,65,teknik,3297,149.8026,2798,0.3059,6,harmonic,1.9,5.175519351,m,w,,,,,,,
,,,,,,,,,,,303179,,001,2024-02-16_24h15.34.907,VH_new_version2,2023.2.3,Win32,60.24096386,376.3406,377.3406,,,,,,,,,,,,,,,,,,,,,,,,,,377.3406,377.9575,m,1,0.5977,,377.9575,377.9576,,0,134,134,118,1,119,fırsat,1952,88.6911,1863,0.2037,6,harmonic,1.85,4.947880041,m,w,,,,,,,
,,,,,,,,,,,303179,,001,2024-02-16_24h15.34.907,VH_new_version2,2023.2.3,Win32,60.24096386,377.9582,378.9576,,,,,,,,,,,,,,,,,,,,,,,,,,378.9577,379.7369,z,1,0.7548,,379.737,379.7371,,0,135,135,280,1,281,icarar,,,,,6,notharmonic,2,,z,nw,,,,,,,
,,,,,,,,,,,303179,,001,2024-02-16_24h15.34.907,VH_new_version2,2023.2.3,Win32,60.24096386,379.7375,380.7354,,,,,,,,,,,,,,,,,,,,,,,,,,380.7354,381.2243,m,1,0.4675,,381.2244,381.2244,,0,136,136,55,1,56,zeytin,904,41.0742,758,0.0829,6,harmonic,1.85,4.613569113,m,w,,,,,,,
,,,,,,,,,,,303179,,001,2024-02-16_24h15.34.907,VH_new_version2,2023.2.3,Win32,60.24096386,381.2247,382.2195,,,,,,,,,,,,,,,,,,,,,,,,,,382.2195,382.8921,m,1,0.6464,,382.8921,382.8922,,0,137,137,90,1,91,insan,3684,167.3864,3486,0.3811,5,harmonic,1.55,5.223720169,m,w,,,,,,,
,,,,,,,,,,,303179,,001,2024-02-16_24h15.34.907,VH_new_version2,2023.2.3,Win32,60.24096386,382.8929,383.8922,,,,,,,,,,,,,,,,,,,,,,,,,,383.8922,384.354,m,1,0.448,,384.3541,384.3541,,0,138,138,46,1,47,hayat,7922,359.9443,7314,0.7996,5,harmonic,1.35,5.556235301,m,w,,,,,,,
,,,,,,,,,,,303179,,001,2024-02-16_24h15.34.907,VH_new_version2,2023.2.3,Win32,60.24096386,384.3544,385.3436,,,,,,,,,,,,,,,,,,,,,,,,,,385.3437,385.9431,m,1,0.5562,,385.9432,385.9433,,0,139,139,86,1,87,takım,4370,198.5555,3726,0.4073,5,harmonic,1,5.297881922,m,w,,,,,,,
,,,,,,,,,,,303179,,001,2024-02-16_24h15.34.907,VH_new_version2,2023.2.3,Win32,60.24096386,385.9438,386.9379,,,,,,,,,,,,,,,,,,,,,,,,,,386.938,387.4765,m,1,0.5155,,387.4765,387.4766,,0,140,140,66,1,67,tercih,4577,207.9607,4282,0.4681,6,harmonic,1.7,5.317981271,m,w,,,,,,,
,,,,,,,,,,,303179,,001,2024-02-16_24h15.34.907,VH_new_version2,2023.2.3,Win32,60.24096386,387.4769,388.477,,,,,,,,,,,,,,,,,,,,,,,,,,388.477,389.0768,m,1,0.5717,,389.0769,390.5216,space,0,141,141,109,1,110,ürün,2268,103.0489,1954,0.2136,4,harmonic,1.1,5.01304336,m,w,1.433,,,,,,
,,,,,,,,,,,303179,,001,2024-02-16_24h15.34.907,VH_new_version2,2023.2.3,Win32,60.24096386,390.5219,391.5221,,,,,,,,,,,,,,,,,,,,,,,,,,391.5221,392.1278,m,1,0.5803,,392.1279,392.128,,0,142,142,31,1,32,pembe,1549,70.3804,1327,0.1451,5,harmonic,2,4.847451731,m,w,,,,,,,
,,,,,,,,,,,303179,,001,2024-02-16_24h15.34.907,VH_new_version2,2023.2.3,Win32,60.24096386,392.1282,393.1233,,,,,,,,,,,,,,,,,,,,,,,,,,393.1233,393.6957,m,1,0.5469,,393.6958,393.6959,,0,143,143,125,1,126,bardak,1728,78.5135,1569,0.1715,6,harmonic,1.6,4.894944338,m,w,,,,,,,
,,,,,,,,,,,303179,,001,2024-02-16_24h15.34.907,VH_new_version2,2023.2.3,Win32,60.24096386,393.6967,394.6959,,,,,,,,,,,,,,,,,,,,,,,,,,394.6959,395.2454,m,0,0.528,,395.2454,395.2455,,0,144,144,189,1,190,genek,,,,,5,harmonic,1.6,,z,nw,,,,,,,
,,,,,,,,,,,303179,,001,2024-02-16_24h15.34.907,VH_new_version2,2023.2.3,Win32,60.24096386,395.2458,396.246,,,,,,,,,,,,,,,,,,,,,,,,,,396.246,396.8131,m,1,0.542,,396.8131,396.8132,,0,145,145,33,1,34,sayfa,1655,75.1966,1502,0.1642,5,harmonic,1.45,4.876198204,m,w,,,,,,,
,,,,,,,,,,,303179,,001,2024-02-16_24h15.34.907,VH_new_version2,2023.2.3,Win32,60.24096386,396.8137,397.8243,,,,,,,,,,,,,,,,,,,,,,,,,,397.8244,398.3916,z,0,0.5502,,398.3917,398.3917,,0,146,146,122,1,123,kapı,1792,81.4214,1566,0.1712,4,harmonic,1,4.910738566,m,w,,,,,,,
,,,,,,,,,,,303179,,001,2024-02-16_24h15.34.907,VH_new_version2,2023.2.3,Win32,60.24096386,398.3919,399.3803,,,,,,,,,,,,,,,,,,,,,,,,,,399.3803,399.8804,m,1,0.4741,,399.8804,399.8805,,0,147,147,123,1,124,yıldız,1775,80.649,1532,0.1675,6,harmonic,1.6,4.906598987,m,w,,,,,,,
,,,,,,,,,,,303179,,001,2024-02-16_24h15.34.907,VH_new_version2,2023.2.3,Win32,60.24096386,399.881,400.8764,,,,,,,,,,,,,,,,,,,,,,,,,,400.8764,401.8426,z,1,0.9498,,401.8426,401.8426,,0,148,148,265,1,266,terhan,,,,,6,notharmonic,1.95,,z,nw,,,,,,,
,,,,,,,,,,,303179,,001,2024-02-16_24h15.34.907,VH_new_version2,2023.2.3,Win32,60.24096386,401.8429,402.8313,,,,,,,,,,,,,,,,,,,,,,,,,,402.8314,403.3987,m,1,0.5409,,403.3987,403.3989,,0,149,149,126,1,127,millet,1658,75.3329,1508,0.1649,6,harmonic,1.7,4.876984686,m,w,,,,,,,
,,,,,,,,,,,303179,,001,2024-02-16_24h15.34.907,VH_new_version2,2023.2.3,Win32,60.24096386,403.3999,404.3986,,,,,,,,,,,,,,,,,,,,,,,,,,404.3986,405.1318,z,1,0.712,,405.1318,405.1319,,0,150,150,152,1,153,ebür,,,,,4,harmonic,1.95,,z,nw,,,,,,,
,,,,,,,,,,,303179,,001,2024-02-16_24h15.34.907,VH_new_version2,2023.2.3,Win32,60.24096386,405.1322,406.1259,,,,,,,,,,,,,,,,,,,,,,,,,,406.1259,406.6327,m,1,0.4755,,406.6328,406.6328,,0,151,151,51,1,52,yaprak,739,33.5772,678,0.0741,6,harmonic,1.7,4.526044478,m,w,,,,,,,
,,,,,,,,,,,303179,,001,2024-02-16_24h15.34.907,VH_new_version2,2023.2.3,Win32,60.24096386,406.6333,407.6326,,,,,,,,,,,,,,,,,,,,,,,,,,407.6326,408.1828,m,1,0.5332,,408.1829,408.183,,0,152,152,97,1,98,nefes,2871,130.4469,2553,0.2791,5,harmonic,1.8,5.115433763,m,w,,,,,,,
,,,,,,,,,,,303179,,001,2024-02-16_24h15.34.907,VH_new_version2,2023.2.3,Win32,60.24096386,408.1837,409.1771,,,,,,,,,,,,,,,,,,,,,,,,,,409.1771,409.7,m,1,0.4956,,409.7,409.7001,,0,153,153,60,1,61,nefret,2429,110.3641,2115,0.2312,6,harmonic,1.8,5.042827826,m,w,,,,,,,
,,,,,,,,,,,303179,,001,2024-02-16_24h15.34.907,VH_new_version2,2023.2.3,Win32,60.24096386,409.7006,410.7009,,,,,,,,,,,,,,,,,,,,,,,,,,410.7011,411.3225,z,1,0.5938,,411.3227,411.3229,,0,154,154,223,1,224,mame,,,,,4,notharmonic,1.65,,z,nw,,,,,,,
,,,,,,,,,,,303179,,001,2024-02-16_24h15.34.907,VH_new_version2,2023.2.3,Win32,60.24096386,411.3238,412.3117,,,,,,,,,,,,,,,,,,,,,,,,,,412.3117,412.9011,z,1,0.5591,,412.9012,412.9014,,0,155,155,261,1,262,eksan,,,,,5,notharmonic,1.7,,z,nw,,,,,,,
,,,,,,,,,,,303179,,001,2024-02-16_24h15.34.907,VH_new_version2,2023.2.3,Win32,60.24096386,412.9018,413.9125,,,,,,,,,,,,,,,,,,,,,,,,,,413.9125,414.4629,m,1,0.5327,,414.4629,414.463,,0,156,156,57,1,58,bayram,1948,88.5094,1648,0.1802,6,harmonic,1.85,4.946989397,m,w,,,,,,,
,,,,,,,,,,,303179,,001,2024-02-16_24h15.34.907,VH_new_version2,2023.2.3,Win32,60.24096386,414.4633,415.4544,,,,,,,,,,,,,,,,,,,,,,,,,,415.4545,416.2861,m,1,0.7958,,416.2863,416.2865,,0,157,157,7,1,8,inci,757,34.3951,686,0.075,4,harmonic,1.05,4.536496576,m,w,,,,,,,
,,,,,,,,,,,303179,,001,2024-02-16_24h15.34.907,VH_new_version2,2023.2.3,Win32,60.24096386,416.2871,417.2854,,,,,,,,,,,,,,,,,,,,,,,,,,417.2855,417.8696,m,1,0.5675,,417.8697,417.8697,,0,158,158,89,1,90,sonuç,3768,171.203,3626,0.3964,5,harmonic,1.8,5.233511371,m,w,,,,,,,
,,,,,,,,,,,303179,,001,2024-02-16_24h15.34.907,VH_new_version2,2023.2.3,Win32,60.24096386,417.8702,418.8695,,,,,,,,,,,,,,,,,,,,,,,,,,418.8695,419.3694,m,1,0.4748,,419.3694,419.3694,,0,159,159,99,1,100,altı,2782,126.403,2571,0.2811,4,harmonic,1,5.101757381,m,w,,,,,,,
,,,,,,,,,,,303179,,001,2024-02-16_24h15.34.907,VH_new_version2,2023.2.3,Win32,60.24096386,419.3697,420.3592,,,,,,,,,,,,,,,,,,,,,,,,,,420.3592,420.9157,m,1,0.5346,,420.9157,420.9158,,0,160,160,3,1,4,otuz,583,26.4892,556,0.0608,4,harmonic,1.45,4.423068842,m,w,,,,,,,
,,,,,,,,,,,303179,,001,2024-02-16_24h15.34.907,VH_new_version2,2023.2.3,Win32,60.24096386,420.9162,421.9203,,,,,,,,,,,,,,,,,,,,,,,,,,421.9203,422.8314,z,1,0.8888,,422.8314,422.8315,,0,161,161,255,1,256,resap,,,,,5,notharmonic,1.9,,z,nw,,,,,,,
,,,,,,,,,,,303179,,001,2024-02-16_24h15.34.907,VH_new_version2,2023.2.3,Win32,60.24096386,422.8317,423.8233,,,,,,,,,,,,,,,,,,,,,,,,,,423.8234,424.4883,z,1,0.6387,,424.4883,424.4885,,0,162,162,164,1,165,üdel,,,,,4,harmonic,1.95,,z,nw,,,,,,,
,,,,,,,,,,,303179,,001,2024-02-16_24h15.34.907,VH_new_version2,2023.2.3,Win32,60.24096386,424.4893,425.4823,,,,,,,,,,,,,,,,,,,,,,,,,,425.4823,426.0568,m,1,0.5487,,426.0569,426.0569,,0,163,163,113,1,114,görev,2159,98.0964,1998,0.2184,5,harmonic,1.75,4.99165307,m,w,,,,,,,
,,,,,,,,,,,303179,,001,2024-02-16_24h15.34.907,VH_new_version2,2023.2.3,Win32,60.24096386,426.0579,427.0554,,,,,,,,,,,,,,,,,,,,,,,,,,427.0555,427.7891,z,1,0.7172,,427.7892,427.7892,,0,164,164,277,1,278,şeylam,,,,,6,notharmonic,2,,z,nw,,,,,,,
,,,,,,,,,,,303179,,001,2024-02-16_24h15.34.907,VH_new_version2,2023.2.3,Win32,60.24096386,427.7897,428.8009,,,,,,,,,,,,,,,,,,,,,,,,,,428.801,429.5726,m,1,0.7369,,429.5726,429.5726,,0,165,165,10,1,11,eser,958,43.5277,892,0.0975,4,harmonic,1,4.63876572,m,w,,,,,,,
,,,,,,,,,,,303179,,001,2024-02-16_24h15.34.907,VH_new_version2,2023.2.3,Win32,60.24096386,429.5729,430.5735,,,,,,,,,,,,,,,,,,,,,,,,,,430.5735,431.1853,m,1,0.585,,431.1853,431.1854,,0,166,166,104,1,105,hediye,2501,113.6355,2224,0.2431,6,harmonic,1.7,5.055514027,m,w,,,,,,,
,,,,,,,,,,,303179,,001,2024-02-16_24h15.34.907,VH_new_version2,2023.2.3,Win32,60.24096386,431.1855,432.1744,,,,,,,,,,,,,,,,,,,,,,,,,,432.1745,432.9239,z,1,0.7112,,432.9241,432.9241,,0,167,167,250,1,251,hapef,,,,,5,notharmonic,1.95,,z,nw,,,,,,,
,,,,,,,,,,,303179,,001,2024-02-16_24h15.34.907,VH_new_version2,2023.2.3,Win32,60.24096386,432.9246,433.9241,,,,,,,,,,,,,,,,,,,,,,,,,,433.9241,434.5252,m,1,0.5831,,434.5253,434.5254,,0,168,168,16,1,17,umut,1988,90.3268,1818,0.1987,4,harmonic,1.55,4.955816625,m,w,,,,,,,
,,,,,,,,,,,303179,,001,2024-02-16_24h15.34.907,VH_new_version2,2023.2.3,Win32,60.24096386,434.5263,435.5244,,,,,,,,,,,,,,,,,,,,,,,,,,435.5244,436.1777,m,1,0.6319,,436.1779,436.1779,,0,169,169,50,1,51,kurşun,604,27.4434,551,0.0602,6,harmonic,1.55,4.438437916,m,w,,,,,,,
,,,,,,,,,,,303179,,001,2024-02-16_24h15.34.907,VH_new_version2,2023.2.3,Win32,60.24096386,436.1784,437.175,,,,,,,,,,,,,,,,,,,,,,,,,,437.175,437.9084,z,1,0.7155,,437.9085,437.9085,,0,170,170,194,1,195,bufsay,,,,,6,harmonic,2.6,,z,nw,,,,,,,
,,,,,,,,,,,303179,,001,2024-02-16_24h15.34.907,VH_new_version2,2023.2.3,Win32,60.24096386,437.9089,438.9041,,,,,,,,,,,,,,,,,,,,,,,,,,438.9041,439.855,z,1,0.9255,,439.8551,439.8551,,0,171,171,262,1,263,barali,,,,,6,notharmonic,1.95,,z,nw,,,,,,,
,,,,,,,,,,,303179,,001,2024-02-16_24h15.34.907,VH_new_version2,2023.2.3,Win32,60.24096386,439.8553,440.8539,,,,,,,,,,,,,,,,,,,,,,,,,,440.8539,441.4392,z,1,0.5689,,441.4392,441.4393,,0,172,172,161,1,162,mağa,,,,,4,harmonic,1.15,,z,nw,,,,,,,
,,,,,,,,,,,303179,,001,2024-02-16_24h15.34.907,VH_new_version2,2023.2.3,Win32,60.24096386,441.4395,442.4275,,,,,,,,,,,,,,,,,,,,,,,,,,442.4276,443.1101,z,1,0.6391,,443.1102,443.1103,,0,173,173,157,1,158,öşek,,,,,4,harmonic,1.7,,z,nw,,,,,,,
,,,,,,,,,,,303179,,001,2024-02-16_24h15.34.907,VH_new_version2,2023.2.3,Win32,60.24096386,443.1106,444.1106,,,,,,,,,,,,,,,,,,,,,,,,,,444.1106,444.7943,z,1,0.6636,,444.7943,444.7944,,0,174,174,230,1,231,asez,,,,,4,notharmonic,1.9,,z,nw,,,,,,,
,,,,,,,,,,,303179,,001,2024-02-16_24h15.34.907,VH_new_version2,2023.2.3,Win32,60.24096386,444.7949,445.8057,,,,,,,,,,,,,,,,,,,,,,,,,,445.8057,446.3328,m,1,0.5014,,446.3329,446.333,,0,175,175,72,1,73,uğur,787,35.7582,666,0.0728,4,harmonic,1.6,4.553375649,m,w,,,,,,,
,,,,,,,,,,,303179,,001,2024-02-16_24h15.34.907,VH_new_version2,2023.2.3,Win32,60.24096386,446.3336,447.3281,,,,,,,,,,,,,,,,,,,,,,,,,,447.3282,447.7615,m,1,0.4146,,447.7615,447.7615,,0,176,176,12,1,13,ağaç,1245,56.5679,1082,0.1183,4,harmonic,1.6,4.752570056,m,w,,,,,,,
,,,,,,,,,,,303179,,001,2024-02-16_24h15.34.907,VH_new_version2,2023.2.3,Win32,60.24096386,447.7619,448.7562,,,,,,,,,,,,,,,,,,,,,,,,,,448.7562,449.5346,z,1,0.7534,,449.5346,449.5347,,0,177,177,259,1,260,kiyaf,,,,,5,notharmonic,1.95,,z,nw,,,,,,,
,,,,,,,,,,,303179,,001,2024-02-16_24h15.34.907,VH_new_version2,2023.2.3,Win32,60.24096386,449.5349,450.529,,,,,,,,,,,,,,,,,,,,,,,,,,450.5291,451.1795,m,1,0.631,,451.1795,451.1796,,0,178,178,133,1,134,parmak,1268,57.6129,1165,0.1274,6,harmonic,1.75,4.760519736,m,w,,,,,,,
,,,,,,,,,,,303179,,001,2024-02-16_24h15.34.907,VH_new_version2,2023.2.3,Win32,60.24096386,451.1798,452.1696,,,,,,,,,,,,,,,,,,,,,,,,,,452.1697,453.1004,z,1,0.9006,,453.1004,453.1004,,0,179,179,278,1,279,avalün,,,,,6,notharmonic,2.2,,z,nw,,,,,,,
,,,,,,,,,,,303179,,001,2024-02-16_24h15.34.907,VH_new_version2,2023.2.3,Win32,60.24096386,453.101,454.097,,,,,,,,,,,,,,,,,,,,,,,,,,454.0971,454.8808,m,1,0.7653,,454.8808,454.881,,0,180,180,117,1,118,çiçek,2071,94.098,1772,0.1937,5,harmonic,1.95,4.973580393,m,w,,,,,,,
,,,,,,,,,,,303179,,001,2024-02-16_24h15.34.907,VH_new_version2,2023.2.3,Win32,60.24096386,454.8815,455.8756,,,,,,,,,,,,,,,,,,,,,,,,,,455.8757,456.6477,m,1,0.7469,,456.6477,456.6479,,0,181,181,88,1,89,yorum,3801,172.7024,3473,0.3797,5,harmonic,1.1,5.237298373,m,w,,,,,,,
,,,,,,,,,,,303179,,001,2024-02-16_24h15.34.907,VH_new_version2,2023.2.3,Win32,60.24096386,456.6483,457.6434,,,,,,,,,,,,,,,,,,,,,,,,,,457.6435,458.2816,z,1,0.6191,,458.2816,458.2817,,0,182,182,233,1,234,eali,,,,,4,notharmonic,1,,z,nw,,,,,,,
,,,,,,,,,,,303179,,001,2024-02-16_24h15.34.907,VH_new_version2,2023.2.3,Win32,60.24096386,458.2821,459.2703,,,,,,,,,,,,,,,,,,,,,,,,,,459.2704,459.7822,m,1,0.4831,,459.7822,459.7823,,0,183,183,100,1,101,ekmek,2734,124.2221,2318,0.2534,5,harmonic,1.3,5.094198867,m,w,,,,,,,
,,,,,,,,,,,303179,,001,2024-02-16_24h15.34.907,VH_new_version2,2023.2.3,Win32,60.24096386,459.7825,460.7767,,,,,,,,,,,,,,,,,,,,,,,,,,460.7768,461.6659,z,1,0.869,,461.6659,461.6659,,0,184,184,206,1,207,teşcik,,,,,6,harmonic,1.9,,z,nw,,,,,,,
,,,,,,,,,,,303179,,001,2024-02-16_24h15.34.907,VH_new_version2,2023.2.3,Win32,60.24096386,461.6664,462.6782,,,,,,,,,,,,,,,,,,,,,,,,,,462.6782,463.2672,m,1,0.5614,,463.2674,463.2677,,0,185,185,32,1,33,güney,1639,74.4697,1439,0.1573,5,harmonic,1.65,4.871979604,m,w,,,,,,,
,,,,,,,,,,,303179,,001,2024-02-16_24h15.34.907,VH_new_version2,2023.2.3,Win32,60.24096386,463.2684,464.2619,,,,,,,,,,,,,,,,,,,,,,,,,,464.2619,465.0967,z,1,0.8177,,465.0968,465.0968,,0,186,186,185,1,186,birpi,,,,,5,harmonic,1.75,,z,nw,,,,,,,
,,,,,,,,,,,303179,,001,2024-02-16_24h15.34.907,VH_new_version2,2023.2.3,Win32,60.24096386,465.0973,466.1015,,,,,,,,,,,,,,,,,,,,,,,,,,466.1015,466.7841,m,1,0.6453,,466.7841,466.7841,,0,187,187,36,1,37,gönül,1786,81.1488,1676,0.1832,5,harmonic,1.8,4.909282102,m,w,,,,,,,
,,,,,,,,,,,303179,,001,2024-02-16_24h15.34.907,VH_new_version2,2023.2.3,Win32,60.24096386,466.7843,467.7727,,,,,,,,,,,,,,,,,,,,,,,,,,467.7729,468.4905,z,1,0.6942,,468.4905,468.4905,,0,188,188,180,1,181,finer,,,,,5,harmonic,1.65,,z,nw,,,,,,,
,,,,,,,,,,,303179,,001,2024-02-16_24h15.34.907,VH_new_version2,2023.2.3,Win32,60.24096386,468.4908,469.4791,,,,,,,,,,,,,,,,,,,,,,,,,,469.4792,470.1184,z,1,0.615,,470.1184,470.1186,,0,189,189,177,1,178,akapı,,,,,5,harmonic,1.8,,z,nw,,,,,,,
,,,,,,,,,,,303179,,001,2024-02-16_24h15.34.907,VH_new_version2,2023.2.3,Win32,60.24096386,470.1189,471.1137,,,,,,,,,,,,,,,,,,,,,,,,,,471.1137,471.8822,m,1,0.7521,,471.8823,471.8823,,0,190,190,24,1,25,dokuz,802,36.4397,646,0.0706,5,harmonic,1.55,4.561574793,m,w,,,,,,,
,,,,,,,,,,,303179,,001,2024-02-16_24h15.34.907,VH_new_version2,2023.2.3,Win32,60.24096386,471.8827,472.8861,,,,,,,,,,,,,,,,,,,,,,,,,,472.8862,473.564,m,1,0.6541,,473.564,473.564,,0,191,191,34,1,35,çorba,1674,76.0599,1513,0.1654,5,harmonic,1.75,4.88115575,m,w,,,,,,,
,,,,,,,,,,,303179,,001,2024-02-16_24h15.34.907,VH_new_version2,2023.2.3,Win32,60.24096386,473.5642,474.5654,,,,,,,,,,,,,,,,,,,,,,,,,,474.5654,475.2832,z,1,0.7011,,475.2833,475.2833,,0,192,192,150,1,151,acuz,,,,,4,harmonic,1.65,,z,nw,,,,,,,
,,,,,,,,,,,303179,,001,2024-02-16_24h15.34.907,VH_new_version2,2023.2.3,Win32,60.24096386,475.2835,476.2816,,,,,,,,,,,,,,,,,,,,,,,,,,476.2817,477.1383,m,1,0.8292,,477.1384,477.1386,,0,193,193,136,1,137,tebrik,1117,50.7521,1102,0.1205,6,harmonic,1.85,4.705454017,m,w,,,,,,,
,,,,,,,,,,,303179,,001,2024-02-16_24h15.34.907,VH_new_version2,2023.2.3,Win32,60.24096386,477.1394,478.1377,,,,,,,,,,,,,,,,,,,,,,,,,,478.1377,478.7712,m,1,0.6141,,478.7713,478.7714,,0,194,194,96,1,97,şehir,2981,135.4448,2608,0.2851,5,harmonic,1.75,5.131762336,m,w,,,,,,,
,,,,,,,,,,,303179,,001,2024-02-16_24h15.34.907,VH_new_version2,2023.2.3,Win32,60.24096386,478.772,479.7716,,,,,,,,,,,,,,,,,,,,,,,,,,479.7717,480.7551,z,1,0.9617,,480.7551,480.7551,,0,195,195,203,1,204,yağcır,,,,,6,harmonic,1.9,,z,nw,,,,,,,
,,,,,,,,,,,303179,,001,2024-02-16_24h15.34.907,VH_new_version2,2023.2.3,Win32,60.24096386,480.7557,481.7555,,,,,,,,,,,,,,,,,,,,,,,,,,481.7555,482.5724,z,1,0.7988,,482.5724,482.5725,,0,196,196,208,1,209,terbiy,,,,,6,harmonic,1.9,,z,nw,,,,,,,
,,,,,,,,,,,303179,,001,2024-02-16_24h15.34.907,VH_new_version2,2023.2.3,Win32,60.24096386,482.5733,483.5727,,,,,,,,,,,,,,,,,,,,,,,,,,483.5728,484.4563,z,1,0.8616,,484.4563,484.4564,,0,197,197,163,1,164,küvü,,,,,4,harmonic,1.7,,z,nw,,,,,,,
,,,,,,,,,,,303179,,001,2024-02-16_24h15.34.907,VH_new_version2,2023.2.3,Win32,60.24096386,484.457,485.4565,,,,,,,,,,,,,,,,,,,,,,,,,,485.4565,487.3241,m,1,1.8496,,487.3241,487.3243,,0,198,198,22,1,23,özel,9726,441.9109,8559,0.9357,4,harmonic,1.35,5.645334714,m,w,,,,,,,
,,,,,,,,,,,303179,,001,2024-02-16_24h15.34.907,VH_new_version2,2023.2.3,Win32,60.24096386,487.3327,488.3243,,,,,,,,,,,,,,,,,,,,,,,,,,488.3245,489.1247,z,1,0.7823,,489.1248,489.1249,,0,199,199,202,1,203,cehret,,,,,6,harmonic,1.85,,z,nw,,,,,,,
,,,,,,,,,,,303179,,001,2024-02-16_24h15.34.907,VH_new_version2,2023.2.3,Win32,60.24096386,489.1257,490.1253,,,,,,,,,,,,,,,,,,,,,,,,,,490.1254,490.9418,z,1,0.7941,,490.942,490.9421,,0,200,200,238,1,239,labin,,,,,5,notharmonic,1.65,,z,nw,,,,,,,
,,,,,,,,,,,303179,,001,2024-02-16_24h15.34.907,VH_new_version2,2023.2.3,Win32,60.24096386,490.9427,491.942,,,,,,,,,,,,,,,,,,,,,,,,,,491.942,492.4756,m,1,0.5137,,492.4757,492.4758,,0,201,201,67,1,68,sosyal,5290,240.3566,4372,0.4779,6,harmonic,1.85,5.380856052,m,w,,,,,,,
,,,,,,,,,,,303179,,001,2024-02-16_24h15.34.907,VH_new_version2,2023.2.3,Win32,60.24096386,492.4764,493.4758,,,,,,,,,,,,,,,,,,,,,,,,,,493.4758,494.1759,z,1,0.6807,,494.176,494.176,,0,202,202,267,1,268,tapare,,,,,6,notharmonic,1.95,,z,nw,,,,,,,
,,,,,,,,,,,303179,,001,2024-02-16_24h15.34.907,VH_new_version2,2023.2.3,Win32,60.24096386,494.1768,495.1765,,,,,,,,,,,,,,,,,,,,,,,,,,495.1766,495.9099,z,1,0.7158,,495.91,495.9102,,0,203,203,268,1,269,mucepi,,,,,6,notharmonic,2.85,,z,nw,,,,,,,
,,,,,,,,,,,303179,,001,2024-02-16_24h15.34.907,VH_new_version2,2023.2.3,Win32,60.24096386,495.9109,496.9107,,,,,,,,,,,,,,,,,,,,,,,,,,496.9107,497.5609,m,1,0.6261,,497.561,497.5612,,0,204,204,81,1,82,hava,4975,226.0443,4398,0.4808,4,harmonic,1,5.35419356,m,w,,,,,,,
,,,,,,,,,,,303179,,001,2024-02-16_24h15.34.907,VH_new_version2,2023.2.3,Win32,60.24096386,497.562,498.5604,,,,,,,,,,,,,,,,,,,,,,,,,,498.5605,499.178,m,1,0.5988,,499.178,499.1782,,0,205,205,110,1,111,akıl,2208,100.3228,2004,0.2191,4,harmonic,1,5.001399645,m,w,,,,,,,
,,,,,,,,,,,303179,,001,2024-02-16_24h15.34.907,VH_new_version2,2023.2.3,Win32,60.24096386,499.1788,500.1784,,,,,,,,,,,,,,,,,,,,,,,,,,500.1785,500.7947,m,1,0.5933,,500.7947,500.7947,,0,206,206,9,1,10,uçak,894,40.6198,752,0.0822,4,harmonic,1.4,4.608737781,m,w,,,,,,,
,,,,,,,,,,,303179,,001,2024-02-16_24h15.34.907,VH_new_version2,2023.2.3,Win32,60.24096386,500.7956,501.7951,,,,,,,,,,,,,,,,,,,,,,,,,,501.7951,502.5292,z,1,0.7176,,502.5293,502.5296,,0,207,207,146,1,147,öğne,,,,,4,harmonic,1.7,,z,nw,,,,,,,
,,,,,,,,,,,303179,,001,2024-02-16_24h15.34.907,VH_new_version2,2023.2.3,Win32,60.24096386,502.5302,503.5291,,,,,,,,,,,,,,,,,,,,,,,,,,503.5293,504.1504,m,0,0.5967,,504.1504,504.1506,,0,208,208,229,1,230,irar,,,,,4,notharmonic,1.65,,z,nw,,,,,,,
,,,,,,,,,,,303179,,001,2024-02-16_24h15.34.907,VH_new_version2,2023.2.3,Win32,60.24096386,504.1517,505.1466,,,,,,,,,,,,,,,,,,,,,,,,,,505.1467,505.6961,m,1,0.5348,,505.6961,505.6962,,0,209,209,106,1,107,altın,2385,108.3649,2017,0.2205,5,harmonic,1,5.034888635,m,w,,,,,,,
,,,,,,,,,,,303179,,001,2024-02-16_24h15.34.907,VH_new_version2,2023.2.3,Win32,60.24096386,505.697,506.6966,,,,,,,,,,,,,,,,,,,,,,,,,,506.6967,507.3305,z,1,0.6106,,507.3306,507.3308,,0,210,210,225,1,226,elda,,,,,4,notharmonic,1.6,,z,nw,,,,,,,
,,,,,,,,,,,303179,,001,2024-02-16_24h15.34.907,VH_new_version2,2023.2.3,Win32,60.24096386,507.3314,508.3307,,,,,,,,,,,,,,,,,,,,,,,,,,508.3307,508.964,z,1,0.6174,,508.964,508.9641,,0,211,211,166,1,167,dokoş,,,,,5,harmonic,2,,z,nw,,,,,,,
,,,,,,,,,,,303179,,001,2024-02-16_24h15.34.907,VH_new_version2,2023.2.3,Win32,60.24096386,508.9647,509.9645,,,,,,,,,,,,,,,,,,,,,,,,,,509.9645,510.6312,z,1,0.6455,,510.6313,511.8002,space,0,212,212,228,1,229,idna,,,,,4,notharmonic,1.8,,z,nw,1.1565,,,,,,
,,,,,,,,,,,303179,,001,2024-02-16_24h15.34.907,VH_new_version2,2023.2.3,Win32,60.24096386,511.821,512.8154,,,,,,,,,,,,,,,,,,,,,,,,,,512.8155,513.5821,m,1,0.7472,,513.5823,513.5824,,0,213,213,78,1,79,şişe,478,21.7184,440,0.0481,4,harmonic,1.05,4.336827828,m,w,,,,,,,
,,,,,,,,,,,303179,,001,2024-02-16_24h15.34.907,VH_new_version2,2023.2.3,Win32,60.24096386,513.5831,514.5829,,,,,,,,,,,,,,,,,,,,,,,,,,514.5829,515.3992,z,1,0.798,,515.3993,515.3993,,0,214,214,143,1,144,uçek,,,,,4,harmonic,1.85,,z,nw,,,,,,,
,,,,,,,,,,,303179,,001,2024-02-16_24h15.34.907,VH_new_version2,2023.2.3,Win32,60.24096386,515.4002,516.3994,,,,,,,,,,,,,,,,,,,,,,,,,,516.3995,517.0836,m,1,0.667,,517.0837,517.0838,,0,215,215,20,1,21,süre,8679,394.3393,8119,0.8876,4,harmonic,1,5.595870061,m,w,,,,,,,
,,,,,,,,,,,303179,,001,2024-02-16_24h15.34.907,VH_new_version2,2023.2.3,Win32,60.24096386,517.0842,518.0864,,,,,,,,,,,,,,,,,,,,,,,,,,518.0865,518.9342,z,1,0.8219,,518.9343,518.9346,,0,216,216,144,1,145,içke,,,,,4,harmonic,1.6,,z,nw,,,,,,,
,,,,,,,,,,,303179,,001,2024-02-16_24h15.34.907,VH_new_version2,2023.2.3,Win32,60.24096386,518.9352,519.9342,,,,,,,,,,,,,,,,,,,,,,,,,,519.9342,520.7343,z,1,0.7779,,520.7343,520.7344,,0,217,217,272,1,273,takime,,,,,6,notharmonic,1.5,,z,nw,,,,,,,
,,,,,,,,,,,303179,,001,2024-02-16_24h15.34.907,VH_new_version2,2023.2.3,Win32,60.24096386,520.7352,521.7346,,,,,,,,,,,,,,,,,,,,,,,,,,521.7346,522.452,z,1,0.6939,,522.452,522.4523,,0,218,218,251,1,252,madit,,,,,5,notharmonic,1.9,,z,nw,,,,,,,
,,,,,,,,,,,303179,,001,2024-02-16_24h15.34.907,VH_new_version2,2023.2.3,Win32,60.24096386,522.4531,523.4526,,,,,,,,,,,,,,,,,,,,,,,,,,523.4527,524.2691,z,1,0.7974,,524.2692,524.2694,,0,219,219,186,1,187,erbik,,,,,5,harmonic,1.75,,z,nw,,,,,,,
,,,,,,,,,,,303179,,001,2024-02-16_24h15.34.907,VH_new_version2,2023.2.3,Win32,60.24096386,524.27,525.2689,,,,,,,,,,,,,,,,,,,,,,,,,,525.2689,525.8693,z,1,0.5767,,525.8695,525.8696,,0,220,220,266,1,267,ebvace,,,,,6,notharmonic,2.95,,z,nw,,,,,,,
,,,,,,,,,,,303179,,001,2024-02-16_24h15.34.907,VH_new_version2,2023.2.3,Win32,60.24096386,525.8703,526.87,,,,,,,,,,,,,,,,,,,,,,,,,,526.8701,527.7864,m,1,0.8975,,527.7865,527.7866,,0,221,221,111,1,112,balık,2189,99.4595,1817,0.1986,5,harmonic,1,4.997646272,m,w,,,,,,,
,,,,,,,,,,,303179,,001,2024-02-16_24h15.34.907,VH_new_version2,2023.2.3,Win32,60.24096386,527.7875,528.7867,,,,,,,,,,,,,,,,,,,,,,,,,,528.7871,529.2867,m,1,0.4779,,529.2868,529.287,,0,222,222,91,1,92,yeşil,3445,156.5271,2946,0.3221,5,harmonic,1.8,5.194589539,m,w,,,,,,,
,,,,,,,,,,,303179,,001,2024-02-16_24h15.34.907,VH_new_version2,2023.2.3,Win32,60.24096386,529.2877,530.2869,,,,,,,,,,,,,,,,,,,,,,,,,,530.287,532.0748,z,1,1.7733,,532.0748,532.0749,,0,223,223,269,1,270,sakate,,,,,6,notharmonic,1.8,,z,nw,,,,,,,
,,,,,,,,,,,303179,,001,2024-02-16_24h15.34.907,VH_new_version2,2023.2.3,Win32,60.24096386,532.0754,533.0753,,,,,,,,,,,,,,,,,,,,,,,,,,533.0755,533.7216,m,1,0.6245,,533.7216,533.7217,,0,224,224,23,1,24,evet,12599,572.4486,11447,1.2514,4,harmonic,1.65,5.757736498,m,w,,,,,,,
,,,,,,,,,,,303179,,001,2024-02-16_24h15.34.907,VH_new_version2,2023.2.3,Win32,60.24096386,533.7226,534.7229,,,,,,,,,,,,,,,,,,,,,,,,,,534.7231,535.6052,z,1,0.8575,,535.6052,535.6054,,0,225,225,248,1,249,talif,,,,,5,notharmonic,1.5,,z,nw,,,,,,,
,,,,,,,,,,,303179,,001,2024-02-16_24h15.34.907,VH_new_version2,2023.2.3,Win32,60.24096386,535.6057,536.6058,,,,,,,,,,,,,,,,,,,,,,,,,,536.6058,537.8079,z,1,1.1864,,537.808,537.8081,,0,226,226,241,1,242,akter,,,,,5,notharmonic,1.8,,z,nw,,,,,,,
,,,,,,,,,,,303179,,001,2024-02-16_24h15.34.907,VH_new_version2,2023.2.3,Win32,60.24096386,537.809,538.8072,,,,,,,,,,,,,,,,,,,,,,,,,,538.8074,540.6569,z,1,1.8294,,540.6569,540.657,,0,227,227,205,1,206,hücmet,,,,,6,harmonic,1.85,,z,nw,,,,,,,
,,,,,,,,,,,303179,,001,2024-02-16_24h15.34.907,VH_new_version2,2023.2.3,Win32,60.24096386,540.6578,541.6574,,,,,,,,,,,,,,,,,,,,,,,,,,541.6574,542.3078,m,1,0.629,,542.3079,542.3081,,0,228,228,68,1,69,devlet,5766,261.9842,4854,0.5306,6,harmonic,1.65,5.4182751,m,w,,,,,,,
,,,,,,,,,,,303179,,001,2024-02-16_24h15.34.907,VH_new_version2,2023.2.3,Win32,60.24096386,542.3087,543.3085,,,,,,,,,,,,,,,,,,,,,,,,,,543.3087,543.9424,m,1,0.615,,543.9424,543.9426,,0,229,229,85,1,86,güneş,4371,198.6009,3610,0.3946,5,harmonic,1.7,5.297981212,m,w,,,,,,,
,,,,,,,,,,,303179,,001,2024-02-16_24h15.34.907,VH_new_version2,2023.2.3,Win32,60.24096386,543.9432,544.9424,,,,,,,,,,,,,,,,,,,,,,,,,,544.9425,545.5926,z,1,0.6326,,545.5926,545.5928,,0,230,230,236,1,237,alte,,,,,4,notharmonic,1.7,,z,nw,,,,,,,
,,,,,,,,,,,303179,,001,2024-02-16_24h15.34.907,VH_new_version2,2023.2.3,Win32,60.24096386,545.5935,546.5929,,,,,,,,,,,,,,,,,,,,,,,,,,546.593,547.2593,z,1,0.6428,,547.2594,547.2597,,0,231,231,221,1,222,mane,,,,,4,notharmonic,1.4,,z,nw,,,,,,,
,,,,,,,,,,,303179,,001,2024-02-16_24h15.34.907,VH_new_version2,2023.2.3,Win32,60.24096386,547.2601,548.2598,,,,,,,,,,,,,,,,,,,,,,,,,,548.2598,548.8926,m,1,0.6156,,548.8926,548.8928,,0,232,232,71,1,72,boya,918,41.7103,799,0.0873,4,harmonic,1,4.620243314,m,w,,,,,,,
,,,,,,,,,,,303179,,001,2024-02-16_24h15.34.907,VH_new_version2,2023.2.3,Win32,60.24096386,548.8933,549.8931,,,,,,,,,,,,,,,,,,,,,,,,,,549.8931,550.6934,z,1,0.7791,,550.6935,550.6937,,0,233,233,222,1,223,laze,,,,,4,notharmonic,1.7,,z,nw,,,,,,,
,,,,,,,,,,,303179,,001,2024-02-16_24h15.34.907,VH_new_version2,2023.2.3,Win32,60.24096386,550.6944,551.6936,,,,,,,,,,,,,,,,,,,,,,,,,,551.6937,552.3772,m,1,0.665,,552.3772,552.3772,,0,234,234,98,1,99,bilim,2828,128.4931,2382,0.2604,5,harmonic,1,5.108879807,m,w,,,,,,,
,,,,,,,,,,,303179,,001,2024-02-16_24h15.34.907,VH_new_version2,2023.2.3,Win32,60.24096386,552.378,553.3776,,,,,,,,,,,,,,,,,,,,,,,,,,553.3776,554.0668,z,1,0.6681,,554.067,554.0671,,0,235,235,142,1,143,öbeh,,,,,4,harmonic,1.95,,z,nw,,,,,,,
,,,,,,,,,,,303179,,001,2024-02-16_24h15.34.907,VH_new_version2,2023.2.3,Win32,60.24096386,554.068,555.0651,,,,,,,,,,,,,,,,,,,,,,,,,,555.0651,555.5453,m,1,0.4614,,555.5454,555.5456,,0,236,236,102,1,103,toplum,2562,116.4071,2249,0.2459,6,harmonic,1.65,5.06597947,m,w,,,,,,,
,,,,,,,,,,,303179,,001,2024-02-16_24h15.34.907,VH_new_version2,2023.2.3,Win32,60.24096386,555.5463,556.5452,,,,,,,,,,,,,,,,,,,,,,,,,,556.5452,557.2287,z,1,0.6616,,557.2289,557.229,,0,237,237,246,1,247,masil,,,,,5,notharmonic,1.7,,z,nw,,,,,,,
,,,,,,,,,,,303179,,001,2024-02-16_24h15.34.907,VH_new_version2,2023.2.3,Win32,60.24096386,557.2298,558.2299,,,,,,,,,,,,,,,,,,,,,,,,,,558.23,558.8132,m,1,0.5641,,558.8134,558.8136,,0,238,238,59,1,60,zengin,2193,99.6412,2015,0.2203,6,harmonic,1.65,4.998438949,m,w,,,,,,,
,,,,,,,,,,,303179,,001,2024-02-16_24h15.34.907,VH_new_version2,2023.2.3,Win32,60.24096386,558.8154,559.813,,,,,,,,,,,,,,,,,,,,,,,,,,559.8131,560.5138,z,1,0.6771,,560.5139,560.5142,,0,239,239,174,1,175,güzeh,,,,,5,harmonic,1.85,,z,nw,,,,,,,
,,,,,,,,,,,303179,,001,2024-02-16_24h15.34.907,VH_new_version2,2023.2.3,Win32,60.24096386,560.5151,561.5146,,,,,,,,,,,,,,,,,,,,,,,,,,561.5147,562.4162,m,1,0.8852,,562.4163,562.4166,,0,240,240,120,1,121,yedi,1880,85.4197,1729,0.189,4,harmonic,1,4.931558042,m,w,,,,,,,
,,,,,,,,,,,303179,,001,2024-02-16_24h15.34.907,VH_new_version2,2023.2.3,Win32,60.24096386,562.4176,563.4146,,,,,,,,,,,,,,,,,,,,,,,,,,563.4146,563.9989,m,1,0.5673,,563.999,563.9991,,0,241,241,2,1,3,iğne,515,23.3996,455,0.0497,4,harmonic,1.65,4.369208434,m,w,,,,,,,
,,,,,,,,,,,303179,,001,2024-02-16_24h15.34.907,VH_new_version2,2023.2.3,Win32,60.24096386,563.9997,565.0023,,,,,,,,,,,,,,,,,,,,,,,,,,565.0025,565.5645,m,1,0.5399,,565.5645,565.5646,,0,242,242,92,1,93,yarın,3440,156.3,3222,0.3522,5,harmonic,1,5.193958978,m,w,,,,,,,
,,,,,,,,,,,303179,,001,2024-02-16_24h15.34.907,VH_new_version2,2023.2.3,Win32,60.24096386,565.565,566.565,,,,,,,,,,,,,,,,,,,,,,,,,,566.565,567.149,m,1,0.5593,,567.1491,567.1493,,0,243,243,5,1,6,üzüm,716,32.5322,588,0.0643,4,harmonic,1.45,4.512313434,m,w,,,,,,,
,,,,,,,,,,,303179,,001,2024-02-16_24h15.34.907,VH_new_version2,2023.2.3,Win32,60.24096386,567.1501,568.1492,,,,,,,,,,,,,,,,,,,,,,,,,,568.1493,568.7998,z,1,0.6356,,568.7999,568.8,,0,244,244,216,1,217,same,,,,,4,notharmonic,1.6,,z,nw,,,,,,,
,,,,,,,,,,,303179,,001,2024-02-16_24h15.34.907,VH_new_version2,2023.2.3,Win32,60.24096386,568.8006,569.8001,,,,,,,,,,,,,,,,,,,,,,,,,,569.8002,570.3672,m,1,0.5462,,570.3673,570.3675,,0,245,245,139,1,140,teklif,913,41.4831,848,0.0927,6,harmonic,1.7,4.617871203,m,w,,,,,,,
,,,,,,,,,,,303179,,001,2024-02-16_24h15.34.907,VH_new_version2,2023.2.3,Win32,60.24096386,570.3682,571.3673,,,,,,,,,,,,,,,,,,,,,,,,,,571.3674,572.0501,z,1,0.6666,,572.0502,572.0504,,0,246,246,227,1,228,esta,,,,,4,notharmonic,1.7,,z,nw,,,,,,,
,,,,,,,,,,,303179,,001,2024-02-16_24h15.34.907,VH_new_version2,2023.2.3,Win32,60.24096386,572.0515,573.0509,,,,,,,,,,,,,,,,,,,,,,,,,,573.051,573.6339,m,1,0.5575,,573.634,573.6343,,0,247,247,105,1,106,hasta,2431,110.455,2140,0.2339,5,harmonic,1,5.04318538,m,w,,,,,,,
,,,,,,,,,,,303179,,001,2024-02-16_24h15.34.907,VH_new_version2,2023.2.3,Win32,60.24096386,573.6348,574.6351,,,,,,,,,,,,,,,,,,,,,,,,,,574.6353,575.3176,m,1,0.6637,,575.3179,575.3182,,0,248,248,17,1,18,sarı,2072,94.1435,1838,0.2009,4,harmonic,1,4.97379034,m,w,,,,,,,
,,,,,,,,,,,303179,,001,2024-02-16_24h15.34.907,VH_new_version2,2023.2.3,Win32,60.24096386,575.3188,576.3178,,,,,,,,,,,,,,,,,,,,,,,,,,576.3178,576.9516,m,1,0.6142,,576.9516,576.952,,0,249,249,6,1,7,avuç,729,33.1229,659,0.072,4,harmonic,1.85,4.520128353,m,w,,,,,,,
,,,,,,,,,,,303179,,001,2024-02-16_24h15.34.907,VH_new_version2,2023.2.3,Win32,60.24096386,576.9529,577.9532,,,,,,,,,,,,,,,,,,,,,,,,,,577.9533,578.6029,m,1,0.6303,,578.603,578.6033,,0,250,250,53,1,54,çıplak,819,37.2121,766,0.0837,6,harmonic,2,4.570684179,m,w,,,,,,,
,,,,,,,,,,,303179,,001,2024-02-16_24h15.34.907,VH_new_version2,2023.2.3,Win32,60.24096386,578.6041,579.6024,,,,,,,,,,,,,,,,,,,,,,,,,,579.6024,580.7866,z,1,1.1622,,580.7867,580.7869,,0,251,251,158,1,159,uzot,,,,,4,harmonic,1.9,,z,nw,,,,,,,
,,,,,,,,,,,303179,,001,2024-02-16_24h15.34.907,VH_new_version2,2023.2.3,Win32,60.24096386,580.7877,581.7871,,,,,,,,,,,,,,,,,,,,,,,,,,581.7872,582.5539,z,1,0.7469,,582.5541,582.5542,,0,252,252,264,1,265,şingan,,,,,6,notharmonic,2.15,,z,nw,,,,,,,
,,,,,,,,,,,303179,,001,2024-02-16_24h15.34.907,VH_new_version2,2023.2.3,Win32,60.24096386,582.5549,583.5537,,,,,,,,,,,,,,,,,,,,,,,,,,583.5538,584.1943,z,1,0.6213,,584.1945,584.1945,,0,253,253,197,1,198,zemkin,,,,,6,harmonic,1.85,,z,nw,,,,,,,
,,,,,,,,,,,303179,,001,2024-02-16_24h15.34.907,VH_new_version2,2023.2.3,Win32,60.24096386,584.1947,585.1879,,,,,,,,,,,,,,,,,,,,,,,,,,585.188,585.8209,z,1,0.6165,,585.821,585.821,,0,254,254,257,1,258,seran,,,,,5,notharmonic,1.35,,z,nw,,,,,,,
,,,,,,,,,,,303179,,001,2024-02-16_24h15.34.907,VH_new_version2,2023.2.3,Win32,60.24096386,585.8217,586.8219,,,,,,,,,,,,,,,,,,,,,,,,,,586.822,587.6381,m,1,0.7952,,587.6382,587.6382,,0,255,255,114,1,115,ayak,2143,97.3694,1931,0.2111,4,harmonic,1,4.988422494,m,w,,,,,,,
,,,,,,,,,,,303179,,001,2024-02-16_24h15.34.907,VH_new_version2,2023.2.3,Win32,60.24096386,587.6387,588.6394,,,,,,,,,,,,,,,,,,,,,,,,,,588.6395,589.1554,m,1,0.4971,,589.1556,589.1557,,0,256,256,141,1,142,fındık,865,39.3022,769,0.0841,6,harmonic,1.95,4.594416861,m,w,,,,,,,
,,,,,,,,,,,303179,,001,2024-02-16_24h15.34.907,VH_new_version2,2023.2.3,Win32,60.24096386,589.1563,590.156,,,,,,,,,,,,,,,,,,,,,,,,,,590.1562,590.84,m,1,0.6634,,590.8401,590.8403,,0,257,257,49,1,50,çeyrek,540,24.5355,477,0.0521,6,harmonic,1.9,4.389794913,m,w,,,,,,,
,,,,,,,,,,,303179,,001,2024-02-16_24h15.34.907,VH_new_version2,2023.2.3,Win32,60.24096386,590.841,591.84,,,,,,,,,,,,,,,,,,,,,,,,,,591.8401,592.3896,m,1,0.5295,,592.3896,592.3899,,0,258,258,95,1,96,sanat,3121,141.8059,2485,0.2717,5,harmonic,1.4,5.151694301,m,w,,,,,,,
,,,,,,,,,,,303179,,001,2024-02-16_24h15.34.907,VH_new_version2,2023.2.3,Win32,60.24096386,592.3907,593.39,,,,,,,,,,,,,,,,,,,,,,,,,,593.39,594.1569,z,1,0.7449,,594.1571,594.1574,,0,259,259,279,1,280,tevaha,,,,,6,notharmonic,2,,z,nw,,,,,,,
,,,,,,,,,,,303179,,001,2024-02-16_24h15.34.907,VH_new_version2,2023.2.3,Win32,60.24096386,594.1581,595.1573,,,,,,,,,,,,,,,,,,,,,,,,,,595.1573,595.924,z,1,0.7493,,595.924,595.9241,,0,260,260,148,1,149,aşıç,,,,,4,harmonic,1.65,,z,nw,,,,,,,
,,,,,,,,,,,303179,,001,2024-02-16_24h15.34.907,VH_new_version2,2023.2.3,Win32,60.24096386,595.9248,596.9248,,,,,,,,,,,,,,,,,,,,,,,,,,596.9249,597.7432,m,1,0.797,,597.7433,597.7435,,0,261,261,124,1,125,sultan,1756,79.7857,1368,0.1496,6,harmonic,1.55,4.90192506,m,w,,,,,,,
,,,,,,,,,,,303179,,001,2024-02-16_24h15.34.907,VH_new_version2,2023.2.3,Win32,60.24096386,597.7443,598.7416,,,,,,,,,,,,,,,,,,,,,,,,,,598.7418,599.5587,m,1,0.8017,,599.5588,599.5589,,0,262,262,58,1,59,toprak,1989,90.3723,1762,0.1926,6,harmonic,1.9,4.956035335,m,w,,,,,,,
,,,,,,,,,,,303179,,001,2024-02-16_24h15.34.907,VH_new_version2,2023.2.3,Win32,60.24096386,599.5594,600.5591,,,,,,,,,,,,,,,,,,,,,,,,,,600.5593,601.2424,z,1,0.6601,,601.2426,601.2428,,0,263,263,249,1,250,sisaj,,,,,5,notharmonic,2,,z,nw,,,,,,,
,,,,,,,,,,,303179,,001,2024-02-16_24h15.34.907,VH_new_version2,2023.2.3,Win32,60.24096386,601.2432,602.2429,,,,,,,,,,,,,,,,,,,,,,,,,,602.2429,602.7464,m,1,0.4905,,602.7465,602.7465,,0,264,264,25,1,26,orman,819,37.2121,705,0.0771,5,harmonic,1.3,4.570684179,m,w,,,,,,,
,,,,,,,,,,,303179,,001,2024-02-16_24h15.34.907,VH_new_version2,2023.2.3,Win32,60.24096386,602.7468,603.7435,,,,,,,,,,,,,,,,,,,,,,,,,,603.7435,604.2267,m,1,0.4575,,604.2267,604.227,,0,265,265,28,1,29,melek,878,39.8928,773,0.0845,5,harmonic,1.1,4.60089452,m,w,,,,,,,
,,,,,,,,,,,303179,,001,2024-02-16_24h15.34.907,VH_new_version2,2023.2.3,Win32,60.24096386,604.2276,605.2267,,,,,,,,,,,,,,,,,,,,,,,,,,605.2267,605.7108,m,1,0.4644,,605.7109,605.711,,0,266,266,61,1,62,yağmur,2491,113.1812,2156,0.2357,6,harmonic,1.9,5.053774294,m,w,,,,,,,
,,,,,,,,,,,303179,,001,2024-02-16_24h15.34.907,VH_new_version2,2023.2.3,Win32,60.24096386,605.7116,606.7108,,,,,,,,,,,,,,,,,,,,,,,,,,606.7109,607.244,m,1,0.5137,,607.2441,607.2441,,0,267,267,121,1,122,usta,1823,82.8299,1478,0.1616,4,harmonic,1.5,4.918187137,m,w,,,,,,,
,,,,,,,,,,,303179,,001,2024-02-16_24h15.34.907,VH_new_version2,2023.2.3,Win32,60.24096386,607.2445,608.2443,,,,,,,,,,,,,,,,,,,,,,,,,,608.2444,609.1612,z,1,0.8913,,609.1613,609.1613,,0,268,268,167,1,168,ontan,,,,,5,harmonic,1.6,,z,nw,,,,,,,
,,,,,,,,,,,303179,,001,2024-02-16_24h15.34.907,VH_new_version2,2023.2.3,Win32,60.24096386,609.1618,610.1616,,,,,,,,,,,,,,,,,,,,,,,,,,610.1616,610.9621,z,1,0.7844,,610.9623,610.9625,,0,269,269,237,1,238,masem,,,,,5,notharmonic,1.7,,z,nw,,,,,,,
,,,,,,,,,,,303179,,001,2024-02-16_24h15.34.907,VH_new_version2,2023.2.3,Win32,60.24096386,610.9632,611.963,,,,,,,,,,,,,,,,,,,,,,,,,,611.9631,612.6462,z,1,0.6567,,612.6464,612.6467,,0,270,270,198,1,199,tenlek,,,,,6,harmonic,1.85,,z,nw,,,,,,,
,,,,,,,,,,,303179,,001,2024-02-16_24h15.34.907,VH_new_version2,2023.2.3,Win32,60.24096386,612.6475,613.6465,,,,,,,,,,,,,,,,,,,,,,,,,,613.6466,614.4644,z,1,0.7989,,614.4645,614.4646,,0,271,271,204,1,205,kürfür,,,,,6,harmonic,1.95,,z,nw,,,,,,,
,,,,,,,,,,,303179,,001,2024-02-16_24h15.34.907,VH_new_version2,2023.2.3,Win32,60.24096386,614.4653,615.4648,,,,,,,,,,,,,,,,,,,,,,,,,,615.4649,616.2152,z,1,0.7297,,616.2152,616.2154,,0,272,272,256,1,257,betaş,,,,,5,notharmonic,1.85,,z,nw,,,,,,,
,,,,,,,,,,,303179,,001,2024-02-16_24h15.34.907,VH_new_version2,2023.2.3,Win32,60.24096386,616.2162,617.2138,,,,,,,,,,,,,,,,,,,,,,,,,,617.2138,617.7979,m,1,0.5661,,617.7979,617.7981,,0,273,273,69,1,70,yüksek,7909,359.3536,7119,0.7783,6,harmonic,1.7,5.555522,m,w,,,,,,,
,,,,,,,,,,,303179,,001,2024-02-16_24h15.34.907,VH_new_version2,2023.2.3,Win32,60.24096386,617.7989,618.7979,,,,,,,,,,,,,,,,,,,,,,,,,,618.7979,619.3983,m,1,0.5733,,619.3984,619.3986,,0,274,274,18,1,19,ülke,3121,141.8059,2801,0.3062,4,harmonic,1.65,5.151694301,m,w,,,,,,,
,,,,,,,,,,,303179,,001,2024-02-16_24h15.34.907,VH_new_version2,2023.2.3,Win32,60.24096386,619.3994,620.398,,,,,,,,,,,,,,,,,,,,,,,,,,620.398,620.9657,m,1,0.5512,,620.9658,620.9659,,0,275,275,45,1,46,akşam,7480,339.8615,6833,0.747,5,harmonic,1.6,5.53130197,m,w,,,,,,,
,,,,,,,,,,,303179,,001,2024-02-16_24h15.34.907,VH_new_version2,2023.2.3,Win32,60.24096386,620.9664,621.9663,,,,,,,,,,,,,,,,,,,,,,,,,,621.9665,622.6494,z,1,0.6566,,622.6495,622.6498,,0,276,276,226,1,227,şüda,,,,,4,notharmonic,1.9,,z,nw,,,,,,,
,,,,,,,,,,,303179,,001,2024-02-16_24h15.34.907,VH_new_version2,2023.2.3,Win32,60.24096386,622.6505,623.6497,,,,,,,,,,,,,,,,,,,,,,,,,,623.6497,624.4166,z,1,0.745,,624.4167,624.417,,0,277,277,195,1,196,çoflak,,,,,6,harmonic,2,,z,nw,,,,,,,
,,,,,,,,,,,303179,,001,2024-02-16_24h15.34.907,VH_new_version2,2023.2.3,Win32,60.24096386,624.4177,625.4167,,,,,,,,,,,,,,,,,,,,,,,,,,625.4167,626.0699,m,1,0.6313,,626.07,626.0701,,0,278,278,29,1,30,şarap,926,42.0738,787,0.086,5,harmonic,1.9,4.624011738,m,w,,,,,,,
,,,,,,,,,,,303179,,001,2024-02-16_24h15.34.907,VH_new_version2,2023.2.3,Win32,60.24096386,626.0706,627.067,,,,,,,,,,,,,,,,,,,,,,,,,,627.067,628.1506,z,1,1.0652,,628.1506,628.1511,,0,279,279,145,1,146,oyoz,,,,,4,harmonic,1.9,,z,nw,,,,,,,
,,,,,,,,,,,303179,,001,2024-02-16_24h15.34.907,VH_new_version2,2023.2.3,Win32,60.24096386,628.1518,629.1511,,,,,,,,,,,,,,,,,,,,,,,,,,629.1512,629.8682,z,1,0.6961,,629.8683,629.8686,,0,280,280,252,1,253,canit,,,,,5,notharmonic,1.8,,z,nw,,,,,,,
,,,,,,,,,,,303179,,001,2024-02-16_24h15.34.907,VH_new_version2,2023.2.3,Win32,60.24096386,629.8695,630.8686,,,,,,,,,,,,,,,,,,,,,,,,,,630.8687,631.503,z,1,0.6094,,631.5031,631.5032,,0,281,281,170,1,171,telen,,,,,5,harmonic,1.15,,z,nw,,,,,,,
,,,,,,,,,,,303179,,001,2024-02-16_24h15.34.907,VH_new_version2,2023.2.3,Win32,60.24096386,631.5038,632.5022,,,,,,,,,,,,,,,,,,,,,,,,,,632.5022,633.3022,z,1,0.7791,,633.3022,633.3023,,0,282,282,193,1,194,hatrak,,,,,6,harmonic,1.95,,z,nw,,,,,,,
,,,,,,,,,,,303179,,001,2024-02-16_24h15.34.907,VH_new_version2,2023.2.3,Win32,60.24096386,633.303,634.3029,,,,,,,,,,,,,,,,,,,,,,,,,,634.303,634.8864,z,1,0.5563,,634.8866,635.8537,space,0,283,283,179,1,180,şünle,,,,,5,harmonic,1.75,,z,nw,0.9512,,,,,,
,,,,,,,,,,,303179,,001,2024-02-16_24h15.34.907,VH_new_version2,2023.2.3,Win32,60.24096386,,,,,,,,,,,,,,,,,,,,,,,,,,,,,,,,,,,,,,,,,,,,,,,,,,,,,,,,635.8555,637.7874,space,1.9077,