welcome.started,welcome.stopped,key_resp_welc.keys,key_resp_welc.rt,key_resp_welc.duration,trials_2.thisRepN,trials_2.thisTrialN,trials_2.thisN,trials_2.thisIndex,trials_2.ran,Introduction,participant,Email Adresiniz,session,date,expName,psychopyVersion,OS,frameRate,fix.started,fix.stopped,Studypractice.started,Studypractice.stopped,key_resp_p.keys,key_resp_p.corr,key_resp_p.rt,key_resp_p.duration,rt,corr,FB.started,FB.stopped,trials.thisRepN,trials.thisTrialN,trials.thisN,trials.thisIndex,trials.ran,item_nr_p,target_p,isHarmonic_p,target_cond_p,CorrAns_p,inst2.started,inst2.stopped,key_resp_xx.keys,key_resp_xx.rt,key_resp_xx.duration,TestTrial.started,TestTrial.stopped,key_respTest.keys,key_respTest.corr,key_respTest.rt,key_respTest.duration,Pause.started,Pause.stopped,key_resp_pause.keys,trials_3.thisRepN,trials_3.thisTrialN,trials_3.thisN,trials_3.thisIndex,trials_3.ran,item_nr,target,BlogFreq,BlogFreqPm,BlogCD,BlogCDPc,WordLength,isHarmonic,old20,Zipf,CorrAns,word_cond,key_resp_pause.rt,key_resp_pause.duration,Bye.started,Bye.stopped,key_resp_bye.keys,key_resp_bye.rt,key_resp_bye.duration
0.0196,12.4935,space,12.4581,,0,0,0,0,1,"Deneye hoş geldiniz,

Devam etmek için BOŞLUK tuşuna basınız.",456779,,001,2024-02-16_18h31.31.844,VH_new_version2,2023.2.3,Win32,58.13953488,,,,,,,,,,,,,,,,,,,,,,,,,,,,,,,,,,,,,,,,,,,,,,,,,,,,,,,,,,,,
12.4949,22.195,space,9.672,,0,1,1,1,1,"Bu çalışma Valencia Üniversitesi kapsamında yürütülmektedir. Deneydeki göreviniz, ekrana çıkacak Türkçe sözcüklerin kelime olup olmadığını belirlemenizdir. Eğer sözcük gerçek bir kelime ise ""m"" tuşuna, değil ise ""z"" tuşuna basınız.   

Devam etmek için BOŞLUK tuşuna basınız.",456779,,001,2024-02-16_18h31.31.844,VH_new_version2,2023.2.3,Win32,58.13953488,,,,,,,,,,,,,,,,,,,,,,,,,,,,,,,,,,,,,,,,,,,,,,,,,,,,,,,,,,,,
22.2024,32.5135,space,10.2843,,0,2,2,2,1,"Her sözcük için en fazla iki saniyede cevap vermeniz beklenmektedir. Aksi takdirde deney bir sonraki sözcük ile devam eder. 
Bu çalışmada oldukça hızlı ve doğru cevaplama yapmanız beklenmektedir.

Devam etmek için BOŞLUK tuşuna basınız.",456779,,001,2024-02-16_18h31.31.844,VH_new_version2,2023.2.3,Win32,58.13953488,,,,,,,,,,,,,,,,,,,,,,,,,,,,,,,,,,,,,,,,,,,,,,,,,,,,,,,,,,,,
32.5209,38.7144,space,6.1718,,0,3,3,3,1,"Çalışmaya başlamadan önce ufak bir pratik yer almaktadır.
Kelimedir: ""m""
Kelime değildir: ""z""

Pratik teste başlamak için BOŞLUK tuşuna basınız. ",456779,,001,2024-02-16_18h31.31.844,VH_new_version2,2023.2.3,Win32,58.13953488,,,,,,,,,,,,,,,,,,,,,,,,,,,,,,,,,,,,,,,,,,,,,,,,,,,,,,,,,,,,
,,,,,,,,,,,456779,,001,2024-02-16_18h31.31.844,VH_new_version2,2023.2.3,Win32,58.13953488,38.7268,39.7197,39.7198,41.2712,m,1,1.5336,,1.5336,1,41.2714,42.2649,0,0,0,10,1,11,nefret,harmonic,word,m,,,,,,,,,,,,,,,,,,,,,,,,,,,,,,,,,,,,,,
,,,,,,,,,,,456779,,001,2024-02-16_18h31.31.844,VH_new_version2,2023.2.3,Win32,58.13953488,42.2652,43.2646,43.2646,45.6154,m,1,2.3232,,2.3232,1,45.6154,46.6205,0,1,1,1,1,2,veri,harmonic,word,m,,,,,,,,,,,,,,,,,,,,,,,,,,,,,,,,,,,,,,
,,,,,,,,,,,456779,,001,2024-02-16_18h31.31.844,VH_new_version2,2023.2.3,Win32,58.13953488,46.6207,47.6157,47.6157,48.8723,z,1,1.2351,,1.2351,1,48.8723,49.8662,0,2,2,22,1,23,gizım,notharmonic,nw,z,,,,,,,,,,,,,,,,,,,,,,,,,,,,,,,,,,,,,,
,,,,,,,,,,,456779,,001,2024-02-16_18h31.31.844,VH_new_version2,2023.2.3,Win32,58.13953488,49.8663,50.8663,50.8663,51.4826,m,1,0.5855,,0.5855,1,51.4826,52.4824,0,3,3,9,1,10,zarar,harmonic,word,m,,,,,,,,,,,,,,,,,,,,,,,,,,,,,,,,,,,,,,
,,,,,,,,,,,456779,,001,2024-02-16_18h31.31.844,VH_new_version2,2023.2.3,Win32,58.13953488,52.4826,53.4893,53.4894,54.2,m,0,0.6845,,0.6845,0,54.2,55.1883,0,4,4,17,1,18,pilar,notharmonic,nw,z,,,,,,,,,,,,,,,,,,,,,,,,,,,,,,,,,,,,,,
,,,,,,,,,,,456779,,001,2024-02-16_18h31.31.844,VH_new_version2,2023.2.3,Win32,58.13953488,55.1885,56.1829,56.183,56.933,z,1,0.7228,,0.7228,1,56.9331,57.9333,0,5,5,14,1,15,mahne,notharmonic,nw,z,,,,,,,,,,,,,,,,,,,,,,,,,,,,,,,,,,,,,,
,,,,,,,,,,,456779,,001,2024-02-16_18h31.31.844,VH_new_version2,2023.2.3,Win32,58.13953488,57.9339,58.9334,58.9334,59.6,z,1,0.6426,,0.6426,1,59.6001,60.6003,0,6,6,20,1,21,yoğuk,harmonic,nw,z,,,,,,,,,,,,,,,,,,,,,,,,,,,,,,,,,,,,,,
,,,,,,,,,,,456779,,001,2024-02-16_18h31.31.844,VH_new_version2,2023.2.3,Win32,58.13953488,60.6007,61.6004,61.6005,62.1728,m,1,0.55,,0.55,1,62.1728,63.1673,0,7,7,3,1,4,sevgi,harmonic,word,m,,,,,,,,,,,,,,,,,,,,,,,,,,,,,,,,,,,,,,
,,,,,,,,,,,456779,,001,2024-02-16_18h31.31.844,VH_new_version2,2023.2.3,Win32,58.13953488,63.1675,64.1684,64.1684,64.918,z,1,0.7169,,0.7169,1,64.918,65.9186,0,8,8,18,1,19,pimer,harmonic,nw,z,,,,,,,,,,,,,,,,,,,,,,,,,,,,,,,,,,,,,,
,,,,,,,,,,,456779,,001,2024-02-16_18h31.31.844,VH_new_version2,2023.2.3,Win32,58.13953488,65.9188,66.9072,66.9072,67.8356,m,1,0.9028,,0.9028,1,67.8356,68.8357,0,9,9,7,1,8,oran,harmonic,word,m,,,,,,,,,,,,,,,,,,,,,,,,,,,,,,,,,,,,,,
,,,,,,,,,,,456779,,001,2024-02-16_18h31.31.844,VH_new_version2,2023.2.3,Win32,58.13953488,68.8358,69.8358,69.8358,70.6193,z,1,0.7499,,0.7499,1,70.6193,71.6194,0,10,10,19,1,20,mımal,harmonic,nw,z,,,,,,,,,,,,,,,,,,,,,,,,,,,,,,,,,,,,,,
,,,,,,,,,,,456779,,001,2024-02-16_18h31.31.844,VH_new_version2,2023.2.3,Win32,58.13953488,71.6196,72.6193,72.6193,73.1864,m,1,0.5328,,0.5328,1,73.1864,74.1865,0,11,11,4,1,5,soğuk,harmonic,word,m,,,,,,,,,,,,,,,,,,,,,,,,,,,,,,,,,,,,,,
,,,,,,,,,,,456779,,001,2024-02-16_18h31.31.844,VH_new_version2,2023.2.3,Win32,58.13953488,74.1867,75.1866,75.1867,76.2198,m,1,1.0103,,1.0103,1,76.2198,77.2255,0,12,12,0,1,1,hazır,harmonic,word,m,,,,,,,,,,,,,,,,,,,,,,,,,,,,,,,,,,,,,,
,,,,,,,,,,,456779,,001,2024-02-16_18h31.31.844,VH_new_version2,2023.2.3,Win32,58.13953488,77.2256,78.2197,78.2197,78.9756,m,1,0.7325,,0.7325,1,78.9756,79.9704,0,13,13,8,1,9,bilim,harmonic,word,m,,,,,,,,,,,,,,,,,,,,,,,,,,,,,,,,,,,,,,
,,,,,,,,,,,456779,,001,2024-02-16_18h31.31.844,VH_new_version2,2023.2.3,Win32,58.13953488,79.9706,80.97,80.97,81.8208,m,1,0.8263,,0.8263,1,81.8209,82.8209,0,14,14,2,1,3,yardım,harmonic,word,m,,,,,,,,,,,,,,,,,,,,,,,,,,,,,,,,,,,,,,
,,,,,,,,,,,456779,,001,2024-02-16_18h31.31.844,VH_new_version2,2023.2.3,Win32,58.13953488,82.8211,83.8267,83.8267,85.6373,z,1,1.7934,,1.7934,1,85.6374,86.6377,0,15,15,13,1,14,orat,harmonic,nw,z,,,,,,,,,,,,,,,,,,,,,,,,,,,,,,,,,,,,,,
,,,,,,,,,,,456779,,001,2024-02-16_18h31.31.844,VH_new_version2,2023.2.3,Win32,58.13953488,86.6379,87.6379,87.6379,88.4045,z,1,0.735,,0.735,1,88.4045,89.4113,0,16,16,16,1,17,ihlot,notharmonic,nw,z,,,,,,,,,,,,,,,,,,,,,,,,,,,,,,,,,,,,,,
,,,,,,,,,,,456779,,001,2024-02-16_18h31.31.844,VH_new_version2,2023.2.3,Win32,58.13953488,89.4114,90.4056,90.4057,91.1892,m,1,0.7574,,0.7574,1,91.1893,92.1892,0,17,17,11,1,12,teslim,harmonic,word,m,,,,,,,,,,,,,,,,,,,,,,,,,,,,,,,,,,,,,,
,,,,,,,,,,,456779,,001,2024-02-16_18h31.31.844,VH_new_version2,2023.2.3,Win32,58.13953488,92.1895,93.1894,93.1894,93.8894,z,1,0.6722,,0.6722,1,93.8894,94.8892,0,18,18,21,1,22,güçli,harmonic,nw,z,,,,,,,,,,,,,,,,,,,,,,,,,,,,,,,,,,,,,,
,,,,,,,,,,,456779,,001,2024-02-16_18h31.31.844,VH_new_version2,2023.2.3,Win32,58.13953488,94.8894,95.8892,95.8892,96.6732,m,1,0.7577,,0.7577,1,96.6732,97.6626,0,19,19,6,1,7,sebep,harmonic,word,m,,,,,,,,,,,,,,,,,,,,,,,,,,,,,,,,,,,,,,
,,,,,,,,,,,456779,,001,2024-02-16_18h31.31.844,VH_new_version2,2023.2.3,Win32,58.13953488,97.6629,98.6567,98.6567,99.3397,m,1,0.6541,,0.6541,1,99.3397,100.3294,0,20,20,5,1,6,gizli,harmonic,word,m,,,,,,,,,,,,,,,,,,,,,,,,,,,,,,,,,,,,,,
,,,,,,,,,,,456779,,001,2024-02-16_18h31.31.844,VH_new_version2,2023.2.3,Win32,58.13953488,100.3297,101.324,101.3241,102.1136,z,1,0.7679,,0.7679,1,102.1136,103.1076,0,21,21,23,1,24,zarim,notharmonic,nw,z,,,,,,,,,,,,,,,,,,,,,,,,,,,,,,,,,,,,,,
,,,,,,,,,,,456779,,001,2024-02-16_18h31.31.844,VH_new_version2,2023.2.3,Win32,58.13953488,103.1078,104.1079,104.1079,104.7138,z,1,0.5831,,0.5831,1,104.7138,105.708,0,22,22,15,1,16,geki,harmonic,nw,z,,,,,,,,,,,,,,,,,,,,,,,,,,,,,,,,,,,,,,
,,,,,,,,,,,456779,,001,2024-02-16_18h31.31.844,VH_new_version2,2023.2.3,Win32,58.13953488,105.7083,106.7082,106.7082,107.3749,z,1,0.634,,0.634,1,107.3749,108.3749,0,23,23,12,1,13,tahip,notharmonic,nw,z,,,,,,,,,,,,,,,,,,,,,,,,,,,,,,,,,,,,,,
,,,,,,,,,,,456779,,001,2024-02-16_18h31.31.844,VH_new_version2,2023.2.3,Win32,58.13953488,,,,,,,,,,,,,,,,,,,,,,,108.3754,117.9774,space,9.5684,,,,,,,,,,,,,,,,,,,,,,,,,,,,,,,,,,
,,,,,,,,,,,456779,,001,2024-02-16_18h31.31.844,VH_new_version2,2023.2.3,Win32,58.13953488,118.0102,118.9933,,,,,,,,,,,,,,,,,,,,,,,,,,118.9935,119.6097,z,1,0.596,,119.6099,119.6106,,0,0,0,215,1,216,zali,,,,,4,notharmonic,1.25,,z,nw,,,,,,,
,,,,,,,,,,,456779,,001,2024-02-16_18h31.31.844,VH_new_version2,2023.2.3,Win32,58.13953488,119.6108,120.6101,,,,,,,,,,,,,,,,,,,,,,,,,,120.6101,121.2098,z,1,0.584,,121.2098,121.2099,,0,1,1,274,1,275,çanese,,,,,6,notharmonic,2,,z,nw,,,,,,,
,,,,,,,,,,,456779,,001,2024-02-16_18h31.31.844,VH_new_version2,2023.2.3,Win32,58.13953488,121.2101,122.21,,,,,,,,,,,,,,,,,,,,,,,,,,122.21,122.8602,m,1,0.6348,,122.8603,122.8604,,0,2,2,79,1,80,erik,376,17.0839,335,0.0366,4,harmonic,1,4.232587021,m,w,,,,,,,
,,,,,,,,,,,456779,,001,2024-02-16_18h31.31.844,VH_new_version2,2023.2.3,Win32,58.13953488,122.8607,123.8601,,,,,,,,,,,,,,,,,,,,,,,,,,123.8601,124.4104,z,1,0.5357,,124.4104,124.4104,,0,3,3,206,1,207,teşcik,,,,,6,harmonic,1.9,,z,nw,,,,,,,
,,,,,,,,,,,456779,,001,2024-02-16_18h31.31.844,VH_new_version2,2023.2.3,Win32,58.13953488,124.4107,125.411,,,,,,,,,,,,,,,,,,,,,,,,,,125.4111,126.0279,m,1,0.5975,,126.0279,126.0281,,0,4,4,22,1,23,özel,9726,441.9109,8559,0.9357,4,harmonic,1.35,5.645334714,m,w,,,,,,,
,,,,,,,,,,,456779,,001,2024-02-16_18h31.31.844,VH_new_version2,2023.2.3,Win32,58.13953488,126.0283,127.0278,,,,,,,,,,,,,,,,,,,,,,,,,,127.0279,127.5775,m,1,0.531,,127.5776,127.5778,,0,5,5,39,1,40,mayıs,2630,119.4968,2294,0.2508,5,harmonic,1.75,5.077356275,m,w,,,,,,,
,,,,,,,,,,,456779,,001,2024-02-16_18h31.31.844,VH_new_version2,2023.2.3,Win32,58.13953488,127.578,128.5784,,,,,,,,,,,,,,,,,,,,,,,,,,128.5784,129.0948,m,1,0.4971,,129.0949,129.0951,,0,6,6,83,1,84,şafak,616,27.9886,521,0.057,5,harmonic,1.8,4.446981175,m,w,,,,,,,
,,,,,,,,,,,456779,,001,2024-02-16_18h31.31.844,VH_new_version2,2023.2.3,Win32,58.13953488,129.0953,130.0952,,,,,,,,,,,,,,,,,,,,,,,,,,130.0953,130.695,z,1,0.5914,,130.6951,130.6952,,0,7,7,158,1,159,uzot,,,,,4,harmonic,1.9,,z,nw,,,,,,,
,,,,,,,,,,,456779,,001,2024-02-16_18h31.31.844,VH_new_version2,2023.2.3,Win32,58.13953488,130.6955,131.6954,,,,,,,,,,,,,,,,,,,,,,,,,,131.6954,132.2957,m,1,0.5814,,132.2957,132.2958,,0,8,8,14,1,15,ocak,1685,76.5597,1548,0.1692,4,harmonic,1.9,4.884000223,m,w,,,,,,,
,,,,,,,,,,,456779,,001,2024-02-16_18h31.31.844,VH_new_version2,2023.2.3,Win32,58.13953488,132.2961,133.2952,,,,,,,,,,,,,,,,,,,,,,,,,,133.2952,133.8122,m,1,0.499,,133.8122,133.8124,,0,9,9,58,1,59,toprak,1989,90.3723,1762,0.1926,6,harmonic,1.9,4.956035335,m,w,,,,,,,
,,,,,,,,,,,456779,,001,2024-02-16_18h31.31.844,VH_new_version2,2023.2.3,Win32,58.13953488,133.8126,134.8124,,,,,,,,,,,,,,,,,,,,,,,,,,134.8124,135.3462,m,1,0.5145,,135.3463,135.3464,,0,10,10,68,1,69,devlet,5766,261.9842,4854,0.5306,6,harmonic,1.65,5.4182751,m,w,,,,,,,
,,,,,,,,,,,456779,,001,2024-02-16_18h31.31.844,VH_new_version2,2023.2.3,Win32,58.13953488,135.3466,136.3463,,,,,,,,,,,,,,,,,,,,,,,,,,136.3463,136.979,z,1,0.6218,,136.9791,136.9792,,0,11,11,198,1,199,tenlek,,,,,6,harmonic,1.85,,z,nw,,,,,,,
,,,,,,,,,,,456779,,001,2024-02-16_18h31.31.844,VH_new_version2,2023.2.3,Win32,58.13953488,136.9795,137.9798,,,,,,,,,,,,,,,,,,,,,,,,,,137.9798,138.5463,m,1,0.5569,,138.5463,138.5464,,0,12,12,98,1,99,bilim,2828,128.4931,2382,0.2604,5,harmonic,1,5.108879807,m,w,,,,,,,
,,,,,,,,,,,456779,,001,2024-02-16_18h31.31.844,VH_new_version2,2023.2.3,Win32,58.13953488,138.5466,139.5468,,,,,,,,,,,,,,,,,,,,,,,,,,139.5468,140.2793,z,1,0.7247,,140.2793,140.2794,,0,13,13,262,1,263,barali,,,,,6,notharmonic,1.95,,z,nw,,,,,,,
,,,,,,,,,,,456779,,001,2024-02-16_18h31.31.844,VH_new_version2,2023.2.3,Win32,58.13953488,140.2797,141.2796,,,,,,,,,,,,,,,,,,,,,,,,,,141.2796,142.013,z,1,0.7144,,142.013,142.013,,0,14,14,169,1,170,senez,,,,,5,harmonic,1.65,,z,nw,,,,,,,
,,,,,,,,,,,456779,,001,2024-02-16_18h31.31.844,VH_new_version2,2023.2.3,Win32,58.13953488,142.0131,143.014,,,,,,,,,,,,,,,,,,,,,,,,,,143.014,143.5804,m,1,0.5537,,143.5804,143.5805,,0,15,15,77,1,78,çanta,639,29.0336,551,0.0602,5,harmonic,1.6,4.462900889,m,w,,,,,,,
,,,,,,,,,,,456779,,001,2024-02-16_18h31.31.844,VH_new_version2,2023.2.3,Win32,58.13953488,143.5809,144.5805,,,,,,,,,,,,,,,,,,,,,,,,,,144.5805,145.2309,m,1,0.6331,,145.2309,145.231,,0,16,16,97,1,98,nefes,2871,130.4469,2553,0.2791,5,harmonic,1.8,5.115433763,m,w,,,,,,,
,,,,,,,,,,,456779,,001,2024-02-16_18h31.31.844,VH_new_version2,2023.2.3,Win32,58.13953488,145.2311,146.2303,,,,,,,,,,,,,,,,,,,,,,,,,,146.2303,146.7476,m,1,0.4995,,146.7476,146.7477,,0,17,17,72,1,73,uğur,787,35.7582,666,0.0728,4,harmonic,1.6,4.553375649,m,w,,,,,,,
,,,,,,,,,,,456779,,001,2024-02-16_18h31.31.844,VH_new_version2,2023.2.3,Win32,58.13953488,146.7479,147.7477,,,,,,,,,,,,,,,,,,,,,,,,,,147.7478,148.2311,m,1,0.4658,,148.2312,148.2313,,0,18,18,94,1,95,bebek,3301,149.9843,2794,0.3054,5,harmonic,1.6,5.176045801,m,w,,,,,,,
,,,,,,,,,,,456779,,001,2024-02-16_18h31.31.844,VH_new_version2,2023.2.3,Win32,58.13953488,148.2315,149.2314,,,,,,,,,,,,,,,,,,,,,,,,,,149.2315,149.7981,m,1,0.5501,,149.7981,149.7982,,0,19,19,122,1,123,kapı,1792,81.4214,1566,0.1712,4,harmonic,1,4.910738566,m,w,,,,,,,
,,,,,,,,,,,456779,,001,2024-02-16_18h31.31.844,VH_new_version2,2023.2.3,Win32,58.13953488,149.7985,150.7979,,,,,,,,,,,,,,,,,,,,,,,,,,150.7979,151.3983,m,1,0.591,,151.3983,151.3984,,0,20,20,78,1,79,şişe,478,21.7184,440,0.0481,4,harmonic,1.05,4.336827828,m,w,,,,,,,
,,,,,,,,,,,456779,,001,2024-02-16_18h31.31.844,VH_new_version2,2023.2.3,Win32,58.13953488,151.3988,152.398,,,,,,,,,,,,,,,,,,,,,,,,,,152.398,152.9488,m,1,0.5318,,152.9489,152.9489,,0,21,21,63,1,64,hizmet,3023,137.3531,2689,0.294,6,harmonic,1.75,5.137838466,m,w,,,,,,,
,,,,,,,,,,,456779,,001,2024-02-16_18h31.31.844,VH_new_version2,2023.2.3,Win32,58.13953488,152.9492,153.9487,,,,,,,,,,,,,,,,,,,,,,,,,,153.9488,154.599,z,1,0.6336,,154.5991,154.5992,,0,22,22,190,1,191,gopuk,,,,,5,harmonic,1.85,,z,nw,,,,,,,
,,,,,,,,,,,456779,,001,2024-02-16_18h31.31.844,VH_new_version2,2023.2.3,Win32,58.13953488,154.5994,155.5992,,,,,,,,,,,,,,,,,,,,,,,,,,155.5992,156.1993,m,1,0.5847,,156.1993,156.1993,,0,23,23,32,1,33,güney,1639,74.4697,1439,0.1573,5,harmonic,1.65,4.871979604,m,w,,,,,,,
,,,,,,,,,,,456779,,001,2024-02-16_18h31.31.844,VH_new_version2,2023.2.3,Win32,58.13953488,156.1997,157.1995,,,,,,,,,,,,,,,,,,,,,,,,,,157.1995,157.7328,m,1,0.5199,,157.7328,157.7329,,0,24,24,110,1,111,akıl,2208,100.3228,2004,0.2191,4,harmonic,1,5.001399645,m,w,,,,,,,
,,,,,,,,,,,456779,,001,2024-02-16_18h31.31.844,VH_new_version2,2023.2.3,Win32,58.13953488,157.7333,158.7329,,,,,,,,,,,,,,,,,,,,,,,,,,158.7329,159.3493,z,1,0.5969,,159.3494,159.3495,,0,25,25,233,1,234,eali,,,,,4,notharmonic,1,,z,nw,,,,,,,
,,,,,,,,,,,456779,,001,2024-02-16_18h31.31.844,VH_new_version2,2023.2.3,Win32,58.13953488,159.3497,160.3496,,,,,,,,,,,,,,,,,,,,,,,,,,160.3496,161.0834,z,1,0.7235,,161.0834,161.0835,,0,26,26,224,1,225,faer,,,,,4,notharmonic,1.9,,z,nw,,,,,,,
,,,,,,,,,,,456779,,001,2024-02-16_18h31.31.844,VH_new_version2,2023.2.3,Win32,58.13953488,161.0837,162.0836,,,,,,,,,,,,,,,,,,,,,,,,,,162.0836,162.6671,z,1,0.5721,,162.6672,162.6672,,0,27,27,253,1,254,mafke,,,,,5,notharmonic,1.9,,z,nw,,,,,,,
,,,,,,,,,,,456779,,001,2024-02-16_18h31.31.844,VH_new_version2,2023.2.3,Win32,58.13953488,162.6675,163.6673,,,,,,,,,,,,,,,,,,,,,,,,,,163.6673,164.3498,z,1,0.6637,,164.3498,164.3499,,0,28,28,236,1,237,alte,,,,,4,notharmonic,1.7,,z,nw,,,,,,,
,,,,,,,,,,,456779,,001,2024-02-16_18h31.31.844,VH_new_version2,2023.2.3,Win32,58.13953488,164.35,165.3503,,,,,,,,,,,,,,,,,,,,,,,,,,165.3504,165.8999,m,1,0.5423,,165.8999,165.8999,,0,29,29,45,1,46,akşam,7480,339.8615,6833,0.747,5,harmonic,1.6,5.53130197,m,w,,,,,,,
,,,,,,,,,,,456779,,001,2024-02-16_18h31.31.844,VH_new_version2,2023.2.3,Win32,58.13953488,165.9001,166.9008,,,,,,,,,,,,,,,,,,,,,,,,,,166.9008,167.6843,z,1,0.772,,167.6844,167.6844,,0,30,30,168,1,169,bovon,,,,,5,harmonic,2,,z,nw,,,,,,,
,,,,,,,,,,,456779,,001,2024-02-16_18h31.31.844,VH_new_version2,2023.2.3,Win32,58.13953488,167.6847,168.6837,,,,,,,,,,,,,,,,,,,,,,,,,,168.6837,169.2171,m,1,0.5166,,169.2172,169.2172,,0,31,31,41,1,42,hayal,4498,204.3713,4079,0.4459,5,harmonic,1.45,5.310419907,m,w,,,,,,,
,,,,,,,,,,,456779,,001,2024-02-16_18h31.31.844,VH_new_version2,2023.2.3,Win32,58.13953488,169.2175,170.2173,,,,,,,,,,,,,,,,,,,,,,,,,,170.2173,171.4509,z,1,1.2265,,171.451,171.451,,0,32,32,210,1,211,bellet,,,,,6,harmonic,1.65,,z,nw,,,,,,,
,,,,,,,,,,,456779,,001,2024-02-16_18h31.31.844,VH_new_version2,2023.2.3,Win32,58.13953488,171.4511,172.4512,,,,,,,,,,,,,,,,,,,,,,,,,,172.4512,173.0512,z,1,0.584,,173.0512,173.0513,,0,33,33,155,1,156,megi,,,,,4,harmonic,1.8,,z,nw,,,,,,,
,,,,,,,,,,,456779,,001,2024-02-16_18h31.31.844,VH_new_version2,2023.2.3,Win32,58.13953488,173.0515,174.0514,,,,,,,,,,,,,,,,,,,,,,,,,,174.0514,174.6347,z,1,0.5712,,174.6347,174.6347,,0,34,34,252,1,253,canit,,,,,5,notharmonic,1.8,,z,nw,,,,,,,
,,,,,,,,,,,456779,,001,2024-02-16_18h31.31.844,VH_new_version2,2023.2.3,Win32,58.13953488,174.635,175.6349,,,,,,,,,,,,,,,,,,,,,,,,,,175.6349,176.2348,z,1,0.5911,,176.2349,176.2349,,0,35,35,156,1,157,obık,,,,,4,harmonic,1.95,,z,nw,,,,,,,
,,,,,,,,,,,456779,,001,2024-02-16_18h31.31.844,VH_new_version2,2023.2.3,Win32,58.13953488,176.2352,177.235,,,,,,,,,,,,,,,,,,,,,,,,,,177.235,177.8185,m,1,0.5726,,177.8185,177.8186,,0,36,36,36,1,37,gönül,1786,81.1488,1676,0.1832,5,harmonic,1.8,4.909282102,m,w,,,,,,,
,,,,,,,,,,,456779,,001,2024-02-16_18h31.31.844,VH_new_version2,2023.2.3,Win32,58.13953488,177.8189,178.8187,,,,,,,,,,,,,,,,,,,,,,,,,,178.8187,179.4187,z,1,0.5873,,179.4187,179.4187,,0,37,37,191,1,192,pedrek,,,,,6,harmonic,2,,z,nw,,,,,,,
,,,,,,,,,,,456779,,001,2024-02-16_18h31.31.844,VH_new_version2,2023.2.3,Win32,58.13953488,179.4189,180.419,,,,,,,,,,,,,,,,,,,,,,,,,,180.419,181.1691,z,1,0.7315,,181.1691,181.1692,,0,38,38,175,1,176,sakça,,,,,5,harmonic,1.55,,z,nw,,,,,,,
,,,,,,,,,,,456779,,001,2024-02-16_18h31.31.844,VH_new_version2,2023.2.3,Win32,58.13953488,181.1694,182.1691,,,,,,,,,,,,,,,,,,,,,,,,,,182.1692,182.7694,z,1,0.5799,,182.7694,182.7695,,0,39,39,172,1,173,çatuk,,,,,5,harmonic,1.8,,z,nw,,,,,,,
,,,,,,,,,,,456779,,001,2024-02-16_18h31.31.844,VH_new_version2,2023.2.3,Win32,58.13953488,182.7697,183.7693,,,,,,,,,,,,,,,,,,,,,,,,,,183.7694,184.4028,z,1,0.6239,,184.4028,184.4029,,0,40,40,277,1,278,şeylam,,,,,6,notharmonic,2,,z,nw,,,,,,,
,,,,,,,,,,,456779,,001,2024-02-16_18h31.31.844,VH_new_version2,2023.2.3,Win32,58.13953488,184.4032,185.403,,,,,,,,,,,,,,,,,,,,,,,,,,185.403,186.0197,m,1,0.5971,,186.0198,186.0198,,0,41,41,82,1,83,oyun,4926,223.8179,3995,0.4367,4,harmonic,1,5.349894817,m,w,,,,,,,
,,,,,,,,,,,456779,,001,2024-02-16_18h31.31.844,VH_new_version2,2023.2.3,Win32,58.13953488,186.0201,187.0199,,,,,,,,,,,,,,,,,,,,,,,,,,187.02,187.6868,z,1,0.6513,,187.6869,187.6869,,0,42,42,209,1,210,soğkal,,,,,6,harmonic,2.1,,z,nw,,,,,,,
,,,,,,,,,,,456779,,001,2024-02-16_18h31.31.844,VH_new_version2,2023.2.3,Win32,58.13953488,187.6873,188.6868,,,,,,,,,,,,,,,,,,,,,,,,,,188.6869,189.2368,m,1,0.54,,189.2369,189.2369,,0,43,43,46,1,47,hayat,7922,359.9443,7314,0.7996,5,harmonic,1.35,5.556235301,m,w,,,,,,,
,,,,,,,,,,,456779,,001,2024-02-16_18h31.31.844,VH_new_version2,2023.2.3,Win32,58.13953488,189.2372,190.2377,,,,,,,,,,,,,,,,,,,,,,,,,,190.2377,190.7712,m,1,0.5202,,190.7712,190.7712,,0,44,44,132,1,133,abla,1287,58.4762,1156,0.1264,4,harmonic,1,4.766979143,m,w,,,,,,,
,,,,,,,,,,,456779,,001,2024-02-16_18h31.31.844,VH_new_version2,2023.2.3,Win32,58.13953488,190.7716,191.7713,,,,,,,,,,,,,,,,,,,,,,,,,,191.7713,192.3212,m,1,0.532,,192.3213,192.3213,,0,45,45,31,1,32,pembe,1549,70.3804,1327,0.1451,5,harmonic,2,4.847451731,m,w,,,,,,,
,,,,,,,,,,,456779,,001,2024-02-16_18h31.31.844,VH_new_version2,2023.2.3,Win32,58.13953488,192.3217,193.3215,,,,,,,,,,,,,,,,,,,,,,,,,,193.3215,194.0215,z,1,0.6875,,194.0215,194.0217,,0,46,46,178,1,179,güzül,,,,,5,harmonic,1.65,,z,nw,,,,,,,
,,,,,,,,,,,456779,,001,2024-02-16_18h31.31.844,VH_new_version2,2023.2.3,Win32,58.13953488,194.0218,195.0216,,,,,,,,,,,,,,,,,,,,,,,,,,195.0218,195.6887,z,1,0.6481,,195.6888,195.6888,,0,47,47,200,1,201,tuzrak,,,,,6,harmonic,1.95,,z,nw,,,,,,,
,,,,,,,,,,,456779,,001,2024-02-16_18h31.31.844,VH_new_version2,2023.2.3,Win32,58.13953488,195.6891,196.6883,,,,,,,,,,,,,,,,,,,,,,,,,,196.6883,197.3388,z,1,0.6312,,197.3388,197.3389,,0,48,48,283,1,284,dimdat,,,,,6,notharmonic,2.05,,z,nw,,,,,,,
,,,,,,,,,,,456779,,001,2024-02-16_18h31.31.844,VH_new_version2,2023.2.3,Win32,58.13953488,197.3392,198.3391,,,,,,,,,,,,,,,,,,,,,,,,,,198.3391,198.9894,m,1,0.6303,,198.9894,198.9894,,0,49,49,139,1,140,teklif,913,41.4831,848,0.0927,6,harmonic,1.7,4.617871203,m,w,,,,,,,
,,,,,,,,,,,456779,,001,2024-02-16_18h31.31.844,VH_new_version2,2023.2.3,Win32,58.13953488,198.9897,199.9894,,,,,,,,,,,,,,,,,,,,,,,,,,199.9895,200.5555,z,1,0.5512,,200.5555,200.5556,,0,50,50,180,1,181,finer,,,,,5,harmonic,1.65,,z,nw,,,,,,,
,,,,,,,,,,,456779,,001,2024-02-16_18h31.31.844,VH_new_version2,2023.2.3,Win32,58.13953488,200.5559,201.5561,,,,,,,,,,,,,,,,,,,,,,,,,,201.5562,202.1231,m,1,0.5498,,202.1231,202.1232,,0,51,51,80,1,81,ahlak,641,29.1245,543,0.0594,5,harmonic,1.35,4.464258478,m,w,,,,,,,
,,,,,,,,,,,456779,,001,2024-02-16_18h31.31.844,VH_new_version2,2023.2.3,Win32,58.13953488,202.1235,203.1232,,,,,,,,,,,,,,,,,,,,,,,,,,203.1232,203.6067,z,1,0.4637,,203.6068,203.6068,,0,52,52,260,1,261,dülda,,,,,5,notharmonic,1.95,,z,nw,,,,,,,
,,,,,,,,,,,456779,,001,2024-02-16_18h31.31.844,VH_new_version2,2023.2.3,Win32,58.13953488,203.607,204.607,,,,,,,,,,,,,,,,,,,,,,,,,,204.607,205.2895,z,1,0.6669,,205.2895,205.2896,,0,53,53,242,1,243,sayke,,,,,5,notharmonic,1.9,,z,nw,,,,,,,
,,,,,,,,,,,456779,,001,2024-02-16_18h31.31.844,VH_new_version2,2023.2.3,Win32,58.13953488,205.2898,206.2898,,,,,,,,,,,,,,,,,,,,,,,,,,206.2898,206.8237,z,1,0.5159,,206.8238,206.8238,,0,54,54,240,1,241,makek,,,,,5,notharmonic,1.9,,z,nw,,,,,,,
,,,,,,,,,,,456779,,001,2024-02-16_18h31.31.844,VH_new_version2,2023.2.3,Win32,58.13953488,206.8241,207.8237,,,,,,,,,,,,,,,,,,,,,,,,,,207.8237,208.39,m,1,0.5479,,208.39,208.3901,,0,55,55,133,1,134,parmak,1268,57.6129,1165,0.1274,6,harmonic,1.75,4.760519736,m,w,,,,,,,
,,,,,,,,,,,456779,,001,2024-02-16_18h31.31.844,VH_new_version2,2023.2.3,Win32,58.13953488,208.3904,209.3908,,,,,,,,,,,,,,,,,,,,,,,,,,209.3909,209.9904,z,1,0.5854,,209.9904,209.9904,,0,56,56,179,1,180,şünle,,,,,5,harmonic,1.75,,z,nw,,,,,,,
,,,,,,,,,,,456779,,001,2024-02-16_18h31.31.844,VH_new_version2,2023.2.3,Win32,58.13953488,209.9906,210.9909,,,,,,,,,,,,,,,,,,,,,,,,,,210.9909,211.5744,m,1,0.5732,,211.5744,211.5744,,0,57,57,13,1,14,kedi,1646,74.7877,1394,0.1524,4,harmonic,1.1,4.873830177,m,w,,,,,,,
,,,,,,,,,,,456779,,001,2024-02-16_18h31.31.844,VH_new_version2,2023.2.3,Win32,58.13953488,211.5748,212.5746,,,,,,,,,,,,,,,,,,,,,,,,,,212.5747,213.1749,z,1,0.5878,,213.1749,213.175,,0,58,58,269,1,270,sakate,,,,,6,notharmonic,1.8,,z,nw,,,,,,,
,,,,,,,,,,,456779,,001,2024-02-16_18h31.31.844,VH_new_version2,2023.2.3,Win32,58.13953488,213.1753,214.175,,,,,,,,,,,,,,,,,,,,,,,,,,214.175,214.825,z,1,0.6396,,214.8252,214.8252,,0,59,59,228,1,229,idna,,,,,4,notharmonic,1.8,,z,nw,,,,,,,
,,,,,,,,,,,456779,,001,2024-02-16_18h31.31.844,VH_new_version2,2023.2.3,Win32,58.13953488,214.8254,215.8252,,,,,,,,,,,,,,,,,,,,,,,,,,215.8252,216.4253,z,1,0.5832,,216.4253,216.4254,,0,60,60,174,1,175,güzeh,,,,,5,harmonic,1.85,,z,nw,,,,,,,
,,,,,,,,,,,456779,,001,2024-02-16_18h31.31.844,VH_new_version2,2023.2.3,Win32,58.13953488,216.4257,217.425,,,,,,,,,,,,,,,,,,,,,,,,,,217.425,217.992,m,1,0.5517,,217.9921,217.9922,,0,61,61,35,1,36,araba,1704,77.423,1485,0.1623,5,harmonic,1,4.888869995,m,w,,,,,,,
,,,,,,,,,,,456779,,001,2024-02-16_18h31.31.844,VH_new_version2,2023.2.3,Win32,58.13953488,217.9925,218.9917,,,,,,,,,,,,,,,,,,,,,,,,,,218.9917,219.8416,m,1,0.8339,,219.8417,219.8417,,0,62,62,1,1,2,ufuk,437,19.8555,403,0.0441,4,harmonic,1.85,4.297880828,m,w,,,,,,,
,,,,,,,,,,,456779,,001,2024-02-16_18h31.31.844,VH_new_version2,2023.2.3,Win32,58.13953488,219.842,220.8425,,,,,,,,,,,,,,,,,,,,,,,,,,220.8425,221.3595,m,1,0.5033,,221.3595,221.3596,,0,63,63,102,1,103,toplum,2562,116.4071,2249,0.2459,6,harmonic,1.65,5.06597947,m,w,,,,,,,
,,,,,,,,,,,456779,,001,2024-02-16_18h31.31.844,VH_new_version2,2023.2.3,Win32,58.13953488,221.3598,222.359,,,,,,,,,,,,,,,,,,,,,,,,,,222.359,222.9423,m,1,0.5764,,222.9424,222.9424,,0,64,64,134,1,135,araç,1182,53.7054,1050,0.1148,4,harmonic,1.25,4.730017956,m,w,,,,,,,
,,,,,,,,,,,456779,,001,2024-02-16_18h31.31.844,VH_new_version2,2023.2.3,Win32,58.13953488,222.9427,223.9433,,,,,,,,,,,,,,,,,,,,,,,,,,223.9433,224.5591,z,1,0.5968,,224.5591,224.5592,,0,65,65,244,1,245,kimık,,,,,5,notharmonic,2,,z,nw,,,,,,,
,,,,,,,,,,,456779,,001,2024-02-16_18h31.31.844,VH_new_version2,2023.2.3,Win32,58.13953488,224.5595,225.5598,,,,,,,,,,,,,,,,,,,,,,,,,,225.5598,226.2927,m,1,0.719,,226.2927,226.2927,,0,66,66,50,1,51,kurşun,604,27.4434,551,0.0602,6,harmonic,1.55,4.438437916,m,w,,,,,,,
,,,,,,,,,,,456779,,001,2024-02-16_18h31.31.844,VH_new_version2,2023.2.3,Win32,58.13953488,226.2929,227.2935,,,,,,,,,,,,,,,,,,,,,,,,,,227.2936,227.8938,z,1,0.5888,,227.8938,227.8938,,0,67,67,148,1,149,aşıç,,,,,4,harmonic,1.65,,z,nw,,,,,,,
,,,,,,,,,,,456779,,001,2024-02-16_18h31.31.844,VH_new_version2,2023.2.3,Win32,58.13953488,227.8942,228.894,,,,,,,,,,,,,,,,,,,,,,,,,,228.894,229.394,m,1,0.4895,,229.3941,229.3941,,0,68,68,74,1,75,çatı,469,21.3095,379,0.0414,4,harmonic,1,4.32857326,m,w,,,,,,,
,,,,,,,,,,,456779,,001,2024-02-16_18h31.31.844,VH_new_version2,2023.2.3,Win32,58.13953488,229.3945,230.3942,,,,,,,,,,,,,,,,,,,,,,,,,,230.3943,230.9101,m,1,0.5054,,230.9101,230.9102,,0,69,69,86,1,87,takım,4370,198.5555,3726,0.4073,5,harmonic,1,5.297881922,m,w,,,,,,,
,,,,,,,,,,,456779,,001,2024-02-16_18h31.31.844,VH_new_version2,2023.2.3,Win32,58.13953488,230.9104,231.9104,,,,,,,,,,,,,,,,,,,,,,,,,,231.9104,232.5445,z,1,0.6159,,232.5446,236.7117,space,0,70,70,142,1,143,öbeh,,,,,4,harmonic,1.95,,z,nw,4.1549,,,,,,
,,,,,,,,,,,456779,,001,2024-02-16_18h31.31.844,VH_new_version2,2023.2.3,Win32,58.13953488,236.7182,237.7118,,,,,,,,,,,,,,,,,,,,,,,,,,237.7118,238.2954,z,1,0.5696,,238.2955,238.2956,,0,71,71,160,1,161,ünte,,,,,4,harmonic,1.65,,z,nw,,,,,,,
,,,,,,,,,,,456779,,001,2024-02-16_18h31.31.844,VH_new_version2,2023.2.3,Win32,58.13953488,238.2959,239.2956,,,,,,,,,,,,,,,,,,,,,,,,,,239.2956,239.879,z,1,0.5645,,239.879,239.8791,,0,72,72,197,1,198,zemkin,,,,,6,harmonic,1.85,,z,nw,,,,,,,
,,,,,,,,,,,456779,,001,2024-02-16_18h31.31.844,VH_new_version2,2023.2.3,Win32,58.13953488,239.8793,240.8783,,,,,,,,,,,,,,,,,,,,,,,,,,240.8783,241.4459,z,1,0.5482,,241.4459,241.4459,,0,73,73,238,1,239,labin,,,,,5,notharmonic,1.65,,z,nw,,,,,,,
,,,,,,,,,,,456779,,001,2024-02-16_18h31.31.844,VH_new_version2,2023.2.3,Win32,58.13953488,241.4463,242.446,,,,,,,,,,,,,,,,,,,,,,,,,,242.446,242.9795,m,1,0.5215,,242.9795,242.9796,,0,74,74,124,1,125,sultan,1756,79.7857,1368,0.1496,6,harmonic,1.55,4.90192506,m,w,,,,,,,
,,,,,,,,,,,456779,,001,2024-02-16_18h31.31.844,VH_new_version2,2023.2.3,Win32,58.13953488,242.9798,243.9797,,,,,,,,,,,,,,,,,,,,,,,,,,243.9797,244.5128,z,1,0.5198,,244.5128,244.5128,,0,75,75,196,1,197,etçime,,,,,6,harmonic,1.9,,z,nw,,,,,,,
,,,,,,,,,,,456779,,001,2024-02-16_18h31.31.844,VH_new_version2,2023.2.3,Win32,58.13953488,244.5131,245.5132,,,,,,,,,,,,,,,,,,,,,,,,,,245.5133,246.1298,z,1,0.6,,246.1298,246.1299,,0,76,76,237,1,238,masem,,,,,5,notharmonic,1.7,,z,nw,,,,,,,
,,,,,,,,,,,456779,,001,2024-02-16_18h31.31.844,VH_new_version2,2023.2.3,Win32,58.13953488,246.1302,247.1294,,,,,,,,,,,,,,,,,,,,,,,,,,247.1294,247.6796,z,1,0.5394,,247.6796,247.6796,,0,77,77,218,1,219,ecmu,,,,,4,notharmonic,2,,z,nw,,,,,,,
,,,,,,,,,,,456779,,001,2024-02-16_18h31.31.844,VH_new_version2,2023.2.3,Win32,58.13953488,247.6799,248.6796,,,,,,,,,,,,,,,,,,,,,,,,,,248.6796,249.2471,z,1,0.5507,,249.2471,249.2472,,0,78,78,282,1,283,daketi,,,,,6,notharmonic,1.8,,z,nw,,,,,,,
,,,,,,,,,,,456779,,001,2024-02-16_18h31.31.844,VH_new_version2,2023.2.3,Win32,58.13953488,249.2475,250.2473,,,,,,,,,,,,,,,,,,,,,,,,,,250.2473,250.8632,z,1,0.5976,,250.8632,250.8633,,0,79,79,239,1,240,kanel,,,,,5,notharmonic,1.9,,z,nw,,,,,,,
,,,,,,,,,,,456779,,001,2024-02-16_18h31.31.844,VH_new_version2,2023.2.3,Win32,58.13953488,250.8634,251.8643,,,,,,,,,,,,,,,,,,,,,,,,,,251.8643,252.3972,m,1,0.5154,,252.3973,252.3974,,0,80,80,137,1,138,mutfak,1110,50.434,1032,0.1128,6,harmonic,1.95,4.702723414,m,w,,,,,,,
,,,,,,,,,,,456779,,001,2024-02-16_18h31.31.844,VH_new_version2,2023.2.3,Win32,58.13953488,252.3977,253.3975,,,,,,,,,,,,,,,,,,,,,,,,,,253.3975,254.1309,z,1,0.7168,,254.1309,254.131,,0,81,81,243,1,244,kuyef,,,,,5,notharmonic,2.3,,z,nw,,,,,,,
,,,,,,,,,,,456779,,001,2024-02-16_18h31.31.844,VH_new_version2,2023.2.3,Win32,58.13953488,254.1312,255.131,,,,,,,,,,,,,,,,,,,,,,,,,,255.131,255.6981,m,1,0.5503,,255.6982,255.6983,,0,82,82,48,1,49,çocuk,10612,482.1672,8979,0.9816,5,harmonic,1.75,5.683197664,m,w,,,,,,,
,,,,,,,,,,,456779,,001,2024-02-16_18h31.31.844,VH_new_version2,2023.2.3,Win32,58.13953488,255.6984,256.6979,,,,,,,,,,,,,,,,,,,,,,,,,,256.6979,257.4145,m,1,0.7052,,257.4145,257.4145,,0,83,83,30,1,31,pamuk,937,42.5736,826,0.0903,5,harmonic,1.9,4.629140375,m,w,,,,,,,
,,,,,,,,,,,456779,,001,2024-02-16_18h31.31.844,VH_new_version2,2023.2.3,Win32,58.13953488,257.4146,258.4151,,,,,,,,,,,,,,,,,,,,,,,,,,258.4151,258.9988,m,1,0.5708,,258.9988,258.9989,,0,84,84,65,1,66,destek,3328,151.2111,3065,0.3351,6,harmonic,1.85,5.179583673,m,w,,,,,,,
,,,,,,,,,,,456779,,001,2024-02-16_18h31.31.844,VH_new_version2,2023.2.3,Win32,58.13953488,258.9991,259.9989,,,,,,,,,,,,,,,,,,,,,,,,,,259.9989,260.5989,m,1,0.5821,,260.599,260.599,,0,85,85,130,1,131,başarı,1398,63.5196,1300,0.1421,6,harmonic,1.2,4.802907755,m,w,,,,,,,
,,,,,,,,,,,456779,,001,2024-02-16_18h31.31.844,VH_new_version2,2023.2.3,Win32,58.13953488,260.5993,261.5992,,,,,,,,,,,,,,,,,,,,,,,,,,261.5992,262.0822,m,1,0.4741,,262.0823,262.0823,,0,86,86,67,1,68,sosyal,5290,240.3566,4372,0.4779,6,harmonic,1.85,5.380856052,m,w,,,,,,,
,,,,,,,,,,,456779,,001,2024-02-16_18h31.31.844,VH_new_version2,2023.2.3,Win32,58.13953488,262.0827,263.0826,,,,,,,,,,,,,,,,,,,,,,,,,,263.0826,263.6159,m,1,0.5193,,263.6159,263.616,,0,87,87,62,1,63,kültür,2566,116.5889,2206,0.2412,6,harmonic,1.55,5.066657205,m,w,,,,,,,
,,,,,,,,,,,456779,,001,2024-02-16_18h31.31.844,VH_new_version2,2023.2.3,Win32,58.13953488,263.6163,264.6154,,,,,,,,,,,,,,,,,,,,,,,,,,264.6155,265.0993,m,1,0.4653,,265.0994,265.0995,,0,88,88,123,1,124,yıldız,1775,80.649,1532,0.1675,6,harmonic,1.6,4.906598987,m,w,,,,,,,
,,,,,,,,,,,456779,,001,2024-02-16_18h31.31.844,VH_new_version2,2023.2.3,Win32,58.13953488,265.0998,266.0993,,,,,,,,,,,,,,,,,,,,,,,,,,266.0993,266.6162,m,1,0.5067,,266.6163,266.6164,,0,89,89,26,1,27,boyun,843,38.3026,777,0.0849,5,harmonic,1.05,4.583228255,m,w,,,,,,,
,,,,,,,,,,,456779,,001,2024-02-16_18h31.31.844,VH_new_version2,2023.2.3,Win32,58.13953488,266.6167,267.6163,,,,,,,,,,,,,,,,,,,,,,,,,,267.6164,268.1326,m,1,0.5028,,268.1326,268.1326,,0,90,90,43,1,44,bilgi,5981,271.7529,5353,0.5852,5,harmonic,1.5,5.434174187,m,w,,,,,,,
,,,,,,,,,,,456779,,001,2024-02-16_18h31.31.844,VH_new_version2,2023.2.3,Win32,58.13953488,268.1328,269.1335,,,,,,,,,,,,,,,,,,,,,,,,,,269.1335,269.7999,z,1,0.6466,,269.7999,269.8,,0,91,91,232,1,233,leda,,,,,4,notharmonic,1.6,,z,nw,,,,,,,
,,,,,,,,,,,456779,,001,2024-02-16_18h31.31.844,VH_new_version2,2023.2.3,Win32,58.13953488,269.8003,270.8005,,,,,,,,,,,,,,,,,,,,,,,,,,270.8005,271.4005,z,1,0.5878,,271.4005,271.4005,,0,92,92,199,1,200,bartam,,,,,6,harmonic,1.85,,z,nw,,,,,,,
,,,,,,,,,,,456779,,001,2024-02-16_18h31.31.844,VH_new_version2,2023.2.3,Win32,58.13953488,271.4008,272.4006,,,,,,,,,,,,,,,,,,,,,,,,,,272.4007,273.2842,z,1,0.8672,,273.2842,273.2843,,0,93,93,167,1,168,ontan,,,,,5,harmonic,1.6,,z,nw,,,,,,,
,,,,,,,,,,,456779,,001,2024-02-16_18h31.31.844,VH_new_version2,2023.2.3,Win32,58.13953488,273.2845,274.2846,,,,,,,,,,,,,,,,,,,,,,,,,,274.2846,275.0009,m,1,0.7057,,275.001,275.0011,,0,94,94,23,1,24,evet,12599,572.4486,11447,1.2514,4,harmonic,1.65,5.757736498,m,w,,,,,,,
,,,,,,,,,,,456779,,001,2024-02-16_18h31.31.844,VH_new_version2,2023.2.3,Win32,58.13953488,275.0014,276.001,,,,,,,,,,,,,,,,,,,,,,,,,,276.001,276.5346,m,1,0.5148,,276.5346,276.5347,,0,95,95,85,1,86,güneş,4371,198.6009,3610,0.3946,5,harmonic,1.7,5.297981212,m,w,,,,,,,
,,,,,,,,,,,456779,,001,2024-02-16_18h31.31.844,VH_new_version2,2023.2.3,Win32,58.13953488,276.535,277.5349,,,,,,,,,,,,,,,,,,,,,,,,,,277.5349,278.1678,m,1,0.6146,,278.1678,278.1678,,0,96,96,9,1,10,uçak,894,40.6198,752,0.0822,4,harmonic,1.4,4.608737781,m,w,,,,,,,
,,,,,,,,,,,456779,,001,2024-02-16_18h31.31.844,VH_new_version2,2023.2.3,Win32,58.13953488,278.1681,279.1683,,,,,,,,,,,,,,,,,,,,,,,,,,279.1683,279.6685,m,1,0.4807,,279.6685,279.6685,,0,97,97,56,1,57,meslek,1082,49.1618,976,0.1067,6,harmonic,1.9,4.691627776,m,w,,,,,,,
,,,,,,,,,,,456779,,001,2024-02-16_18h31.31.844,VH_new_version2,2023.2.3,Win32,58.13953488,279.6688,280.6684,,,,,,,,,,,,,,,,,,,,,,,,,,280.6685,281.1688,m,1,0.49,,281.1688,281.1688,,0,98,98,17,1,18,sarı,2072,94.1435,1838,0.2009,4,harmonic,1,4.97379034,m,w,,,,,,,
,,,,,,,,,,,456779,,001,2024-02-16_18h31.31.844,VH_new_version2,2023.2.3,Win32,58.13953488,281.1691,282.1683,,,,,,,,,,,,,,,,,,,,,,,,,,282.1683,282.8022,z,1,0.6153,,282.8023,282.8024,,0,99,99,154,1,155,afap,,,,,4,harmonic,1.7,,z,nw,,,,,,,
,,,,,,,,,,,456779,,001,2024-02-16_18h31.31.844,VH_new_version2,2023.2.3,Win32,58.13953488,282.8026,283.8025,,,,,,,,,,,,,,,,,,,,,,,,,,283.8026,284.3355,z,1,0.522,,284.3356,284.3356,,0,100,100,149,1,150,irgi,,,,,4,harmonic,1.8,,z,nw,,,,,,,
,,,,,,,,,,,456779,,001,2024-02-16_18h31.31.844,VH_new_version2,2023.2.3,Win32,58.13953488,284.3359,285.3359,,,,,,,,,,,,,,,,,,,,,,,,,,285.3359,286.0028,m,1,0.6479,,286.0029,286.003,,0,101,101,28,1,29,melek,878,39.8928,773,0.0845,5,harmonic,1.1,4.60089452,m,w,,,,,,,
,,,,,,,,,,,456779,,001,2024-02-16_18h31.31.844,VH_new_version2,2023.2.3,Win32,58.13953488,286.0033,287.003,,,,,,,,,,,,,,,,,,,,,,,,,,287.003,287.5531,m,1,0.533,,287.5532,287.5532,,0,102,102,125,1,126,bardak,1728,78.5135,1569,0.1715,6,harmonic,1.6,4.894944338,m,w,,,,,,,
,,,,,,,,,,,456779,,001,2024-02-16_18h31.31.844,VH_new_version2,2023.2.3,Win32,58.13953488,287.5535,288.5533,,,,,,,,,,,,,,,,,,,,,,,,,,288.5533,289.1533,z,1,0.5815,,289.1533,289.1535,,0,103,103,281,1,282,tashin,,,,,6,notharmonic,1.85,,z,nw,,,,,,,
,,,,,,,,,,,456779,,001,2024-02-16_18h31.31.844,VH_new_version2,2023.2.3,Win32,58.13953488,289.1538,290.1535,,,,,,,,,,,,,,,,,,,,,,,,,,290.1535,290.7028,z,1,0.5415,,290.7029,290.7029,,0,104,104,258,1,259,ihati,,,,,5,notharmonic,1.95,,z,nw,,,,,,,
,,,,,,,,,,,456779,,001,2024-02-16_18h31.31.844,VH_new_version2,2023.2.3,Win32,58.13953488,290.7032,291.7036,,,,,,,,,,,,,,,,,,,,,,,,,,291.7037,292.2698,m,1,0.5562,,292.2699,292.27,,0,105,105,140,1,141,kimlik,867,39.393,726,0.0794,6,harmonic,1.7,4.595419056,m,w,,,,,,,
,,,,,,,,,,,456779,,001,2024-02-16_18h31.31.844,VH_new_version2,2023.2.3,Win32,58.13953488,292.2703,293.2699,,,,,,,,,,,,,,,,,,,,,,,,,,293.2699,293.8204,m,1,0.536,,293.8205,293.8205,,0,106,106,109,1,110,ürün,2268,103.0489,1954,0.2136,4,harmonic,1.1,5.01304336,m,w,,,,,,,
,,,,,,,,,,,456779,,001,2024-02-16_18h31.31.844,VH_new_version2,2023.2.3,Win32,58.13953488,293.8208,294.8202,,,,,,,,,,,,,,,,,,,,,,,,,,294.8202,295.3706,m,1,0.5323,,295.3707,295.3707,,0,107,107,73,1,74,gemi,629,28.5793,544,0.0595,4,harmonic,1.1,4.456051587,m,w,,,,,,,
,,,,,,,,,,,456779,,001,2024-02-16_18h31.31.844,VH_new_version2,2023.2.3,Win32,58.13953488,295.3711,296.3704,,,,,,,,,,,,,,,,,,,,,,,,,,296.3704,296.9037,m,1,0.5151,,296.9038,296.9038,,0,108,108,126,1,127,millet,1658,75.3329,1508,0.1649,6,harmonic,1.7,4.876984686,m,w,,,,,,,
,,,,,,,,,,,456779,,001,2024-02-16_18h31.31.844,VH_new_version2,2023.2.3,Win32,58.13953488,296.904,297.9047,,,,,,,,,,,,,,,,,,,,,,,,,,297.9047,298.4383,m,1,0.5208,,298.4383,298.4384,,0,109,109,24,1,25,dokuz,802,36.4397,646,0.0706,5,harmonic,1.55,4.561574793,m,w,,,,,,,
,,,,,,,,,,,456779,,001,2024-02-16_18h31.31.844,VH_new_version2,2023.2.3,Win32,58.13953488,298.4386,299.438,,,,,,,,,,,,,,,,,,,,,,,,,,299.438,299.9551,m,1,0.4977,,299.9552,299.9552,,0,110,110,69,1,70,yüksek,7909,359.3536,7119,0.7783,6,harmonic,1.7,5.555522,m,w,,,,,,,
,,,,,,,,,,,456779,,001,2024-02-16_18h31.31.844,VH_new_version2,2023.2.3,Win32,58.13953488,299.9554,300.9552,,,,,,,,,,,,,,,,,,,,,,,,,,300.9552,301.7046,z,1,0.7324,,301.7046,301.7046,,0,111,111,268,1,269,mucepi,,,,,6,notharmonic,2.85,,z,nw,,,,,,,
,,,,,,,,,,,456779,,001,2024-02-16_18h31.31.844,VH_new_version2,2023.2.3,Win32,58.13953488,301.7048,302.7053,,,,,,,,,,,,,,,,,,,,,,,,,,302.7053,303.2888,z,1,0.5641,,303.2889,303.2889,,0,112,112,164,1,165,üdel,,,,,4,harmonic,1.95,,z,nw,,,,,,,
,,,,,,,,,,,456779,,001,2024-02-16_18h31.31.844,VH_new_version2,2023.2.3,Win32,58.13953488,303.2893,304.289,,,,,,,,,,,,,,,,,,,,,,,,,,304.289,304.8381,z,1,0.5417,,304.8382,304.8382,,0,113,113,264,1,265,şingan,,,,,6,notharmonic,2.15,,z,nw,,,,,,,
,,,,,,,,,,,456779,,001,2024-02-16_18h31.31.844,VH_new_version2,2023.2.3,Win32,58.13953488,304.8385,305.8393,,,,,,,,,,,,,,,,,,,,,,,,,,305.8393,306.7894,z,1,0.9373,,306.7894,306.7894,,0,114,114,265,1,266,terhan,,,,,6,notharmonic,1.95,,z,nw,,,,,,,
,,,,,,,,,,,456779,,001,2024-02-16_18h31.31.844,VH_new_version2,2023.2.3,Win32,58.13953488,306.7897,307.789,,,,,,,,,,,,,,,,,,,,,,,,,,307.789,308.4563,m,1,0.6508,,308.4563,308.4563,,0,115,115,27,1,28,sekiz,872,39.6202,803,0.0878,5,harmonic,1.45,4.597916663,m,w,,,,,,,
,,,,,,,,,,,456779,,001,2024-02-16_18h31.31.844,VH_new_version2,2023.2.3,Win32,58.13953488,308.4566,309.4557,,,,,,,,,,,,,,,,,,,,,,,,,,309.4557,310.0894,m,1,0.6209,,310.0894,310.0895,,0,116,116,115,1,116,doğu,2105,95.6429,1823,0.1993,4,harmonic,1.05,4.980652736,m,w,,,,,,,
,,,,,,,,,,,456779,,001,2024-02-16_18h31.31.844,VH_new_version2,2023.2.3,Win32,58.13953488,310.0897,311.0899,,,,,,,,,,,,,,,,,,,,,,,,,,311.0899,311.6734,m,1,0.5656,,311.6735,311.6735,,0,117,117,127,1,128,kaynak,1577,71.6526,1481,0.1619,6,harmonic,1.4,4.855231954,m,w,,,,,,,
,,,,,,,,,,,456779,,001,2024-02-16_18h31.31.844,VH_new_version2,2023.2.3,Win32,58.13953488,311.6738,312.6737,,,,,,,,,,,,,,,,,,,,,,,,,,312.6737,313.1896,m,1,0.4975,,313.1896,313.1898,,0,118,118,12,1,13,ağaç,1245,56.5679,1082,0.1183,4,harmonic,1.6,4.752570056,m,w,,,,,,,
,,,,,,,,,,,456779,,001,2024-02-16_18h31.31.844,VH_new_version2,2023.2.3,Win32,58.13953488,313.1901,314.1904,,,,,,,,,,,,,,,,,,,,,,,,,,314.1905,314.6241,m,1,0.4224,,314.6241,314.6242,,0,119,119,42,1,43,şeker,4708,213.9128,4170,0.4559,5,harmonic,1.6,5.330236772,m,w,,,,,,,
,,,,,,,,,,,456779,,001,2024-02-16_18h31.31.844,VH_new_version2,2023.2.3,Win32,58.13953488,314.6244,315.6241,,,,,,,,,,,,,,,,,,,,,,,,,,315.6242,316.974,z,1,1.3301,,316.974,316.974,,0,120,120,249,1,250,sisaj,,,,,5,notharmonic,2,,z,nw,,,,,,,
,,,,,,,,,,,456779,,001,2024-02-16_18h31.31.844,VH_new_version2,2023.2.3,Win32,58.13953488,316.9743,317.9745,,,,,,,,,,,,,,,,,,,,,,,,,,317.9745,318.6406,z,1,0.656,,318.6407,318.6407,,0,121,121,219,1,220,anel,,,,,4,notharmonic,1.7,,z,nw,,,,,,,
,,,,,,,,,,,456779,,001,2024-02-16_18h31.31.844,VH_new_version2,2023.2.3,Win32,58.13953488,318.641,319.6411,,,,,,,,,,,,,,,,,,,,,,,,,,319.6411,320.308,z,1,0.6481,,320.308,320.3081,,0,122,122,211,1,212,yıksık,,,,,6,harmonic,1.8,,z,nw,,,,,,,
,,,,,,,,,,,456779,,001,2024-02-16_18h31.31.844,VH_new_version2,2023.2.3,Win32,58.13953488,320.3083,321.3076,,,,,,,,,,,,,,,,,,,,,,,,,,321.3076,322.0414,z,1,0.714,,322.0414,322.0416,,0,123,123,222,1,223,laze,,,,,4,notharmonic,1.7,,z,nw,,,,,,,
,,,,,,,,,,,456779,,001,2024-02-16_18h31.31.844,VH_new_version2,2023.2.3,Win32,58.13953488,322.0419,323.0418,,,,,,,,,,,,,,,,,,,,,,,,,,323.0418,324.1754,m,1,1.1185,,324.1754,324.1755,,0,124,124,53,1,54,çıplak,819,37.2121,766,0.0837,6,harmonic,2,4.570684179,m,w,,,,,,,
,,,,,,,,,,,456779,,001,2024-02-16_18h31.31.844,VH_new_version2,2023.2.3,Win32,58.13953488,324.1823,325.1755,,,,,,,,,,,,,,,,,,,,,,,,,,325.1755,326.0255,z,1,0.8317,,326.0255,326.0256,,0,125,125,254,1,255,hadir,,,,,5,notharmonic,1.4,,z,nw,,,,,,,
,,,,,,,,,,,456779,,001,2024-02-16_18h31.31.844,VH_new_version2,2023.2.3,Win32,58.13953488,326.0259,327.0258,,,,,,,,,,,,,,,,,,,,,,,,,,327.0258,327.7091,m,1,0.6708,,327.7092,327.7092,,0,126,126,96,1,97,şehir,2981,135.4448,2608,0.2851,5,harmonic,1.75,5.131762336,m,w,,,,,,,
,,,,,,,,,,,456779,,001,2024-02-16_18h31.31.844,VH_new_version2,2023.2.3,Win32,58.13953488,327.7096,328.7088,,,,,,,,,,,,,,,,,,,,,,,,,,328.7088,329.2762,m,1,0.5488,,329.2762,329.2762,,0,127,127,135,1,136,gündüz,1167,53.0239,1088,0.1189,6,harmonic,1.6,4.724471668,m,w,,,,,,,
,,,,,,,,,,,456779,,001,2024-02-16_18h31.31.844,VH_new_version2,2023.2.3,Win32,58.13953488,329.2765,330.2764,,,,,,,,,,,,,,,,,,,,,,,,,,330.2764,330.7763,m,1,0.4913,,330.7763,330.7763,,0,128,128,11,1,12,öykü,958,43.5277,849,0.0928,4,harmonic,1.9,4.63876572,m,w,,,,,,,
,,,,,,,,,,,456779,,001,2024-02-16_18h31.31.844,VH_new_version2,2023.2.3,Win32,58.13953488,330.7767,331.7768,,,,,,,,,,,,,,,,,,,,,,,,,,331.7768,332.7759,m,1,0.9829,,332.776,332.776,,0,129,129,89,1,90,sonuç,3768,171.203,3626,0.3964,5,harmonic,1.8,5.233511371,m,w,,,,,,,
,,,,,,,,,,,456779,,001,2024-02-16_18h31.31.844,VH_new_version2,2023.2.3,Win32,58.13953488,332.7763,333.7768,,,,,,,,,,,,,,,,,,,,,,,,,,333.7768,335.2438,m,1,1.4567,,335.2438,335.2439,,0,130,130,91,1,92,yeşil,3445,156.5271,2946,0.3221,5,harmonic,1.8,5.194589539,m,w,,,,,,,
,,,,,,,,,,,456779,,001,2024-02-16_18h31.31.844,VH_new_version2,2023.2.3,Win32,58.13953488,335.2442,336.2431,,,,,,,,,,,,,,,,,,,,,,,,,,336.2432,336.9942,z,1,0.7309,,336.9943,336.9943,,0,131,131,216,1,217,same,,,,,4,notharmonic,1.6,,z,nw,,,,,,,
,,,,,,,,,,,456779,,001,2024-02-16_18h31.31.844,VH_new_version2,2023.2.3,Win32,58.13953488,336.9946,337.9944,,,,,,,,,,,,,,,,,,,,,,,,,,337.9944,338.6108,z,1,0.5982,,338.6108,338.6108,,0,132,132,150,1,151,acuz,,,,,4,harmonic,1.65,,z,nw,,,,,,,
,,,,,,,,,,,456779,,001,2024-02-16_18h31.31.844,VH_new_version2,2023.2.3,Win32,58.13953488,338.6111,339.611,,,,,,,,,,,,,,,,,,,,,,,,,,339.611,340.344,m,1,0.7148,,340.344,340.3441,,0,133,133,100,1,101,ekmek,2734,124.2221,2318,0.2534,5,harmonic,1.3,5.094198867,m,w,,,,,,,
,,,,,,,,,,,456779,,001,2024-02-16_18h31.31.844,VH_new_version2,2023.2.3,Win32,58.13953488,340.3443,341.3449,,,,,,,,,,,,,,,,,,,,,,,,,,341.3449,342.0282,m,1,0.672,,342.0283,342.0283,,0,134,134,47,1,48,yemek,9626,437.3673,8311,0.9086,5,harmonic,1.35,5.64084631,m,w,,,,,,,
,,,,,,,,,,,456779,,001,2024-02-16_18h31.31.844,VH_new_version2,2023.2.3,Win32,58.13953488,342.0286,343.0282,,,,,,,,,,,,,,,,,,,,,,,,,,343.0282,343.8285,z,1,0.7862,,343.8285,343.8287,,0,135,135,146,1,147,öğne,,,,,4,harmonic,1.7,,z,nw,,,,,,,
,,,,,,,,,,,456779,,001,2024-02-16_18h31.31.844,VH_new_version2,2023.2.3,Win32,58.13953488,343.829,344.8285,,,,,,,,,,,,,,,,,,,,,,,,,,344.8285,345.3788,m,1,0.5353,,345.3788,345.3789,,0,136,136,40,1,41,temel,4231,192.2399,3851,0.421,5,harmonic,1.55,5.283843532,m,w,,,,,,,
,,,,,,,,,,,456779,,001,2024-02-16_18h31.31.844,VH_new_version2,2023.2.3,Win32,58.13953488,345.3792,346.3787,,,,,,,,,,,,,,,,,,,,,,,,,,346.3787,347.2288,z,1,0.8322,,347.2289,347.2289,,0,137,137,225,1,226,elda,,,,,4,notharmonic,1.6,,z,nw,,,,,,,
,,,,,,,,,,,456779,,001,2024-02-16_18h31.31.844,VH_new_version2,2023.2.3,Win32,58.13953488,347.2292,348.2291,,,,,,,,,,,,,,,,,,,,,,,,,,348.2291,348.8123,m,1,0.5713,,348.8124,348.8125,,0,138,138,106,1,107,altın,2385,108.3649,2017,0.2205,5,harmonic,1,5.034888635,m,w,,,,,,,
,,,,,,,,,,,456779,,001,2024-02-16_18h31.31.844,VH_new_version2,2023.2.3,Win32,58.13953488,348.8128,349.8127,,,,,,,,,,,,,,,,,,,,,,,,,,349.8128,350.4627,z,1,0.6305,,350.4628,350.4628,,0,139,139,246,1,247,masil,,,,,5,notharmonic,1.7,,z,nw,,,,,,,
,,,,,,,,,,,456779,,001,2024-02-16_18h31.31.844,VH_new_version2,2023.2.3,Win32,58.13953488,350.463,351.4631,,,,,,,,,,,,,,,,,,,,,,,,,,351.4631,352.2464,m,1,0.7707,,352.2464,352.2465,,0,140,140,3,1,4,otuz,583,26.4892,556,0.0608,4,harmonic,1.45,4.423068842,m,w,,,,,,,
,,,,,,,,,,,456779,,001,2024-02-16_18h31.31.844,VH_new_version2,2023.2.3,Win32,58.13953488,352.2467,353.2466,,,,,,,,,,,,,,,,,,,,,,,,,,353.2467,353.7792,m,1,0.5193,,353.7792,354.9136,space,0,141,141,59,1,60,zengin,2193,99.6412,2015,0.2203,6,harmonic,1.65,4.998438949,m,w,1.1246,,,,,,
,,,,,,,,,,,456779,,001,2024-02-16_18h31.31.844,VH_new_version2,2023.2.3,Win32,58.13953488,354.9139,355.9137,,,,,,,,,,,,,,,,,,,,,,,,,,355.9138,356.5131,z,1,0.5891,,356.5132,356.5132,,0,142,142,194,1,195,bufsay,,,,,6,harmonic,2.6,,z,nw,,,,,,,
,,,,,,,,,,,456779,,001,2024-02-16_18h31.31.844,VH_new_version2,2023.2.3,Win32,58.13953488,356.5134,357.5141,,,,,,,,,,,,,,,,,,,,,,,,,,357.5141,358.08,z,1,0.5484,,358.08,358.0801,,0,143,143,145,1,146,oyoz,,,,,4,harmonic,1.9,,z,nw,,,,,,,
,,,,,,,,,,,456779,,001,2024-02-16_18h31.31.844,VH_new_version2,2023.2.3,Win32,58.13953488,358.0803,359.0801,,,,,,,,,,,,,,,,,,,,,,,,,,359.0802,359.7142,z,1,0.6178,,359.7142,359.7143,,0,144,144,212,1,213,yeryek,,,,,6,harmonic,1.9,,z,nw,,,,,,,
,,,,,,,,,,,456779,,001,2024-02-16_18h31.31.844,VH_new_version2,2023.2.3,Win32,58.13953488,359.7145,360.714,,,,,,,,,,,,,,,,,,,,,,,,,,360.714,361.2646,m,1,0.5389,,361.2646,361.2646,,0,145,145,18,1,19,ülke,3121,141.8059,2801,0.3062,4,harmonic,1.65,5.151694301,m,w,,,,,,,
,,,,,,,,,,,456779,,001,2024-02-16_18h31.31.844,VH_new_version2,2023.2.3,Win32,58.13953488,361.2649,362.2641,,,,,,,,,,,,,,,,,,,,,,,,,,362.2642,362.7481,m,1,0.4644,,362.7481,362.7482,,0,146,146,111,1,112,balık,2189,99.4595,1817,0.1986,5,harmonic,1,4.997646272,m,w,,,,,,,
,,,,,,,,,,,456779,,001,2024-02-16_18h31.31.844,VH_new_version2,2023.2.3,Win32,58.13953488,362.7485,363.7474,,,,,,,,,,,,,,,,,,,,,,,,,,363.7475,364.298,m,1,0.5319,,364.298,364.2981,,0,147,147,131,1,132,doğa,1381,62.7472,1180,0.129,4,harmonic,1,4.797594351,m,w,,,,,,,
,,,,,,,,,,,456779,,001,2024-02-16_18h31.31.844,VH_new_version2,2023.2.3,Win32,58.13953488,364.2985,365.2984,,,,,,,,,,,,,,,,,,,,,,,,,,365.2984,366.0318,z,1,0.717,,366.0319,366.032,,0,148,148,214,1,215,dera,,,,,4,notharmonic,1.2,,z,nw,,,,,,,
,,,,,,,,,,,456779,,001,2024-02-16_18h31.31.844,VH_new_version2,2023.2.3,Win32,58.13953488,366.0322,367.0314,,,,,,,,,,,,,,,,,,,,,,,,,,367.0314,367.632,z,1,0.5876,,367.6321,367.6321,,0,149,149,188,1,189,yahat,,,,,5,harmonic,1.8,,z,nw,,,,,,,
,,,,,,,,,,,456779,,001,2024-02-16_18h31.31.844,VH_new_version2,2023.2.3,Win32,58.13953488,367.6324,368.6322,,,,,,,,,,,,,,,,,,,,,,,,,,368.6322,369.2657,m,1,0.6139,,369.2658,369.2659,,0,150,150,8,1,9,ağız,824,37.4393,758,0.0829,4,harmonic,1.2,4.57332772,m,w,,,,,,,
,,,,,,,,,,,456779,,001,2024-02-16_18h31.31.844,VH_new_version2,2023.2.3,Win32,58.13953488,369.2661,370.2657,,,,,,,,,,,,,,,,,,,,,,,,,,370.2658,370.7494,m,1,0.465,,370.7494,370.7495,,0,151,151,90,1,91,insan,3684,167.3864,3486,0.3811,5,harmonic,1.55,5.223720169,m,w,,,,,,,
,,,,,,,,,,,456779,,001,2024-02-16_18h31.31.844,VH_new_version2,2023.2.3,Win32,58.13953488,370.7498,371.7495,,,,,,,,,,,,,,,,,,,,,,,,,,371.7495,372.3162,z,1,0.5503,,372.3163,372.3163,,0,152,152,186,1,187,erbik,,,,,5,harmonic,1.75,,z,nw,,,,,,,
,,,,,,,,,,,456779,,001,2024-02-16_18h31.31.844,VH_new_version2,2023.2.3,Win32,58.13953488,372.3166,373.3165,,,,,,,,,,,,,,,,,,,,,,,,,,373.3166,373.8493,m,1,0.522,,373.8493,373.8494,,0,153,153,16,1,17,umut,1988,90.3268,1818,0.1987,4,harmonic,1.55,4.955816625,m,w,,,,,,,
,,,,,,,,,,,456779,,001,2024-02-16_18h31.31.844,VH_new_version2,2023.2.3,Win32,58.13953488,373.8496,374.8495,,,,,,,,,,,,,,,,,,,,,,,,,,374.8496,375.6167,z,1,0.7566,,375.6167,375.6167,,0,154,154,220,1,221,nica,,,,,4,notharmonic,1.75,,z,nw,,,,,,,
,,,,,,,,,,,456779,,001,2024-02-16_18h31.31.844,VH_new_version2,2023.2.3,Win32,58.13953488,375.617,376.617,,,,,,,,,,,,,,,,,,,,,,,,,,376.617,377.1835,z,1,0.5485,,377.1835,377.1835,,0,155,155,143,1,144,uçek,,,,,4,harmonic,1.85,,z,nw,,,,,,,
,,,,,,,,,,,456779,,001,2024-02-16_18h31.31.844,VH_new_version2,2023.2.3,Win32,58.13953488,377.1837,378.1839,,,,,,,,,,,,,,,,,,,,,,,,,,378.1839,378.7004,m,1,0.5059,,378.7004,378.7005,,0,156,156,57,1,58,bayram,1948,88.5094,1648,0.1802,6,harmonic,1.85,4.946989397,m,w,,,,,,,
,,,,,,,,,,,456779,,001,2024-02-16_18h31.31.844,VH_new_version2,2023.2.3,Win32,58.13953488,378.7009,379.7,,,,,,,,,,,,,,,,,,,,,,,,,,379.7,380.4173,m,1,0.7091,,380.4174,380.4174,,0,157,157,66,1,67,tercih,4577,207.9607,4282,0.4681,6,harmonic,1.7,5.317981271,m,w,,,,,,,
,,,,,,,,,,,456779,,001,2024-02-16_18h31.31.844,VH_new_version2,2023.2.3,Win32,58.13953488,380.4177,381.4178,,,,,,,,,,,,,,,,,,,,,,,,,,381.4178,382.1178,z,1,0.6834,,382.1178,382.1179,,0,158,158,203,1,204,yağcır,,,,,6,harmonic,1.9,,z,nw,,,,,,,
,,,,,,,,,,,456779,,001,2024-02-16_18h31.31.844,VH_new_version2,2023.2.3,Win32,58.13953488,382.1181,383.1179,,,,,,,,,,,,,,,,,,,,,,,,,,383.1179,383.718,m,1,0.5865,,383.718,383.7181,,0,159,159,44,1,45,erkek,6188,281.1582,5195,0.5679,5,harmonic,1.55,5.448950754,m,w,,,,,,,
,,,,,,,,,,,456779,,001,2024-02-16_18h31.31.844,VH_new_version2,2023.2.3,Win32,58.13953488,383.7183,384.7184,,,,,,,,,,,,,,,,,,,,,,,,,,384.7184,385.3684,z,1,0.6298,,385.3684,385.3684,,0,160,160,176,1,177,çırna,,,,,5,harmonic,1.85,,z,nw,,,,,,,
,,,,,,,,,,,456779,,001,2024-02-16_18h31.31.844,VH_new_version2,2023.2.3,Win32,58.13953488,385.3688,386.3684,,,,,,,,,,,,,,,,,,,,,,,,,,386.3684,386.9351,m,1,0.5562,,386.9352,386.9352,,0,161,161,84,1,85,eğitim,4784,217.366,3846,0.4204,6,harmonic,1.5,5.337191613,m,w,,,,,,,
,,,,,,,,,,,456779,,001,2024-02-16_18h31.31.844,VH_new_version2,2023.2.3,Win32,58.13953488,386.9356,387.9354,,,,,,,,,,,,,,,,,,,,,,,,,,387.9354,388.6184,m,1,0.6697,,388.6184,388.6185,,0,162,162,114,1,115,ayak,2143,97.3694,1931,0.2111,4,harmonic,1,4.988422494,m,w,,,,,,,
,,,,,,,,,,,456779,,001,2024-02-16_18h31.31.844,VH_new_version2,2023.2.3,Win32,58.13953488,388.6188,389.6182,,,,,,,,,,,,,,,,,,,,,,,,,,389.6182,390.2854,z,1,0.6548,,390.2855,390.2856,,0,163,163,157,1,158,öşek,,,,,4,harmonic,1.7,,z,nw,,,,,,,
,,,,,,,,,,,456779,,001,2024-02-16_18h31.31.844,VH_new_version2,2023.2.3,Win32,58.13953488,390.2858,391.286,,,,,,,,,,,,,,,,,,,,,,,,,,391.2861,392.2686,z,1,0.9745,,392.2687,392.2687,,0,164,164,280,1,281,icarar,,,,,6,notharmonic,2,,z,nw,,,,,,,
,,,,,,,,,,,456779,,001,2024-02-16_18h31.31.844,VH_new_version2,2023.2.3,Win32,58.13953488,392.2688,393.2693,,,,,,,,,,,,,,,,,,,,,,,,,,393.2694,393.8196,m,1,0.5316,,393.8196,393.8197,,0,165,165,107,1,108,isim,2366,107.5017,2163,0.2365,4,harmonic,1,5.031415332,m,w,,,,,,,
,,,,,,,,,,,456779,,001,2024-02-16_18h31.31.844,VH_new_version2,2023.2.3,Win32,58.13953488,393.8199,394.8193,,,,,,,,,,,,,,,,,,,,,,,,,,394.8193,395.4029,z,1,0.5667,,395.4029,395.403,,0,166,166,165,1,166,eyel,,,,,4,harmonic,1.65,,z,nw,,,,,,,
,,,,,,,,,,,456779,,001,2024-02-16_18h31.31.844,VH_new_version2,2023.2.3,Win32,58.13953488,395.4033,396.4034,,,,,,,,,,,,,,,,,,,,,,,,,,396.4034,397.1197,z,1,0.7003,,397.1198,397.1199,,0,167,167,234,1,235,ated,,,,,4,notharmonic,1.8,,z,nw,,,,,,,
,,,,,,,,,,,456779,,001,2024-02-16_18h31.31.844,VH_new_version2,2023.2.3,Win32,58.13953488,397.1201,398.1197,,,,,,,,,,,,,,,,,,,,,,,,,,398.1198,398.687,m,1,0.5476,,398.687,398.6871,,0,168,168,4,1,5,öfke,606,27.5342,542,0.0593,4,harmonic,1.85,4.439872463,m,w,,,,,,,
,,,,,,,,,,,456779,,001,2024-02-16_18h31.31.844,VH_new_version2,2023.2.3,Win32,58.13953488,398.6873,399.6869,,,,,,,,,,,,,,,,,,,,,,,,,,399.6869,400.7706,z,1,1.068,,400.7707,400.7708,,0,169,169,162,1,163,möre,,,,,4,harmonic,1.65,,z,nw,,,,,,,
,,,,,,,,,,,456779,,001,2024-02-16_18h31.31.844,VH_new_version2,2023.2.3,Win32,58.13953488,400.771,401.7702,,,,,,,,,,,,,,,,,,,,,,,,,,401.7702,402.3703,m,1,0.5918,,402.3703,402.3704,,0,170,170,60,1,61,nefret,2429,110.3641,2115,0.2312,6,harmonic,1.8,5.042827826,m,w,,,,,,,
,,,,,,,,,,,456779,,001,2024-02-16_18h31.31.844,VH_new_version2,2023.2.3,Win32,58.13953488,402.3705,403.3706,,,,,,,,,,,,,,,,,,,,,,,,,,403.3706,403.9202,z,1,0.5429,,403.9202,403.9202,,0,171,171,217,1,218,heka,,,,,4,notharmonic,1.75,,z,nw,,,,,,,
,,,,,,,,,,,456779,,001,2024-02-16_18h31.31.844,VH_new_version2,2023.2.3,Win32,58.13953488,403.9204,404.9211,,,,,,,,,,,,,,,,,,,,,,,,,,404.9212,405.5873,z,1,0.6582,,405.5873,405.5873,,0,172,172,144,1,145,içke,,,,,4,harmonic,1.6,,z,nw,,,,,,,
,,,,,,,,,,,456779,,001,2024-02-16_18h31.31.844,VH_new_version2,2023.2.3,Win32,58.13953488,405.5876,406.5884,,,,,,,,,,,,,,,,,,,,,,,,,,406.5884,407.1384,z,1,0.5395,,407.1385,407.1385,,0,173,173,166,1,167,dokoş,,,,,5,harmonic,2,,z,nw,,,,,,,
,,,,,,,,,,,456779,,001,2024-02-16_18h31.31.844,VH_new_version2,2023.2.3,Win32,58.13953488,407.1388,408.1384,,,,,,,,,,,,,,,,,,,,,,,,,,408.1385,408.7387,m,1,0.5806,,408.7387,408.7388,,0,174,174,116,1,117,nokta,2085,94.7341,1939,0.212,5,harmonic,1.5,4.976506334,m,w,,,,,,,
,,,,,,,,,,,456779,,001,2024-02-16_18h31.31.844,VH_new_version2,2023.2.3,Win32,58.13953488,408.739,409.7388,,,,,,,,,,,,,,,,,,,,,,,,,,409.7388,410.222,m,1,0.4675,,410.2221,410.2221,,0,175,175,6,1,7,avuç,729,33.1229,659,0.072,4,harmonic,1.85,4.520128353,m,w,,,,,,,
,,,,,,,,,,,456779,,001,2024-02-16_18h31.31.844,VH_new_version2,2023.2.3,Win32,58.13953488,410.2224,411.2221,,,,,,,,,,,,,,,,,,,,,,,,,,411.2221,411.9226,z,1,0.6885,,411.9226,411.9227,,0,176,176,266,1,267,ebvace,,,,,6,notharmonic,2.95,,z,nw,,,,,,,
,,,,,,,,,,,456779,,001,2024-02-16_18h31.31.844,VH_new_version2,2023.2.3,Win32,58.13953488,411.9229,412.9225,,,,,,,,,,,,,,,,,,,,,,,,,,412.9225,414.173,z,1,1.2351,,414.173,414.1731,,0,177,177,275,1,276,teşbuz,,,,,6,notharmonic,2.75,,z,nw,,,,,,,
,,,,,,,,,,,456779,,001,2024-02-16_18h31.31.844,VH_new_version2,2023.2.3,Win32,58.13953488,414.1795,415.173,,,,,,,,,,,,,,,,,,,,,,,,,,415.1731,415.7062,m,1,0.5166,,415.7062,415.7063,,0,178,178,92,1,93,yarın,3440,156.3,3222,0.3522,5,harmonic,1,5.193958978,m,w,,,,,,,
,,,,,,,,,,,456779,,001,2024-02-16_18h31.31.844,VH_new_version2,2023.2.3,Win32,58.13953488,415.7066,416.7066,,,,,,,,,,,,,,,,,,,,,,,,,,416.7066,417.3894,z,1,0.664,,417.3894,417.3896,,0,179,179,255,1,256,resap,,,,,5,notharmonic,1.9,,z,nw,,,,,,,
,,,,,,,,,,,456779,,001,2024-02-16_18h31.31.844,VH_new_version2,2023.2.3,Win32,58.13953488,417.3898,418.3894,,,,,,,,,,,,,,,,,,,,,,,,,,418.3895,418.8727,m,1,0.4752,,418.8728,418.8728,,0,180,180,25,1,26,orman,819,37.2121,705,0.0771,5,harmonic,1.3,4.570684179,m,w,,,,,,,
,,,,,,,,,,,456779,,001,2024-02-16_18h31.31.844,VH_new_version2,2023.2.3,Win32,58.13953488,418.873,419.8736,,,,,,,,,,,,,,,,,,,,,,,,,,419.8736,420.4898,z,1,0.5984,,420.4898,420.4899,,0,181,181,163,1,164,küvü,,,,,4,harmonic,1.7,,z,nw,,,,,,,
,,,,,,,,,,,456779,,001,2024-02-16_18h31.31.844,VH_new_version2,2023.2.3,Win32,58.13953488,420.4902,421.4899,,,,,,,,,,,,,,,,,,,,,,,,,,421.4899,422.0899,z,1,0.5809,,422.0899,422.09,,0,182,182,259,1,260,kiyaf,,,,,5,notharmonic,1.95,,z,nw,,,,,,,
,,,,,,,,,,,456779,,001,2024-02-16_18h31.31.844,VH_new_version2,2023.2.3,Win32,58.13953488,422.0903,423.0908,,,,,,,,,,,,,,,,,,,,,,,,,,423.0908,424.0076,m,1,0.9052,,424.0076,424.0076,,0,183,183,49,1,50,çeyrek,540,24.5355,477,0.0521,6,harmonic,1.9,4.389794913,m,w,,,,,,,
,,,,,,,,,,,456779,,001,2024-02-16_18h31.31.844,VH_new_version2,2023.2.3,Win32,58.13953488,424.008,425.0076,,,,,,,,,,,,,,,,,,,,,,,,,,425.0077,425.6746,z,1,0.6478,,425.6746,425.6747,,0,184,184,202,1,203,cehret,,,,,6,harmonic,1.85,,z,nw,,,,,,,
,,,,,,,,,,,456779,,001,2024-02-16_18h31.31.844,VH_new_version2,2023.2.3,Win32,58.13953488,425.6749,426.6745,,,,,,,,,,,,,,,,,,,,,,,,,,426.6745,427.2746,m,1,0.5852,,427.2747,427.2748,,0,185,185,121,1,122,usta,1823,82.8299,1478,0.1616,4,harmonic,1.5,4.918187137,m,w,,,,,,,
,,,,,,,,,,,456779,,001,2024-02-16_18h31.31.844,VH_new_version2,2023.2.3,Win32,58.13953488,427.2751,428.2743,,,,,,,,,,,,,,,,,,,,,,,,,,428.2743,429.1909,m,1,0.9062,,429.191,429.191,,0,186,186,81,1,82,hava,4975,226.0443,4398,0.4808,4,harmonic,1,5.35419356,m,w,,,,,,,
,,,,,,,,,,,456779,,001,2024-02-16_18h31.31.844,VH_new_version2,2023.2.3,Win32,58.13953488,429.1912,430.1918,,,,,,,,,,,,,,,,,,,,,,,,,,430.1918,431.1087,z,1,0.9058,,431.1088,431.1088,,0,187,187,251,1,252,madit,,,,,5,notharmonic,1.9,,z,nw,,,,,,,
,,,,,,,,,,,456779,,001,2024-02-16_18h31.31.844,VH_new_version2,2023.2.3,Win32,58.13953488,431.1092,432.109,,,,,,,,,,,,,,,,,,,,,,,,,,432.1091,433.0583,m,1,0.9405,,433.0583,433.0583,,0,188,188,87,1,88,sevgi,3950,179.4723,3467,0.379,5,harmonic,1.65,5.253997428,m,w,,,,,,,
,,,,,,,,,,,456779,,001,2024-02-16_18h31.31.844,VH_new_version2,2023.2.3,Win32,58.13953488,433.0585,434.0584,,,,,,,,,,,,,,,,,,,,,,,,,,434.0585,434.626,m,1,0.5482,,434.626,434.6262,,0,189,189,118,1,119,fırsat,1952,88.6911,1863,0.2037,6,harmonic,1.85,4.947880041,m,w,,,,,,,
,,,,,,,,,,,456779,,001,2024-02-16_18h31.31.844,VH_new_version2,2023.2.3,Win32,58.13953488,434.6264,435.6261,,,,,,,,,,,,,,,,,,,,,,,,,,435.6261,436.1095,m,1,0.4669,,436.1096,436.1096,,0,190,190,52,1,53,buğday,746,33.8953,623,0.0681,6,harmonic,1.9,4.530139482,m,w,,,,,,,
,,,,,,,,,,,456779,,001,2024-02-16_18h31.31.844,VH_new_version2,2023.2.3,Win32,58.13953488,436.1099,437.1097,,,,,,,,,,,,,,,,,,,,,,,,,,437.1098,437.8098,z,1,0.6844,,437.8099,437.81,,0,191,191,247,1,248,fiyan,,,,,5,notharmonic,1.6,,z,nw,,,,,,,
,,,,,,,,,,,456779,,001,2024-02-16_18h31.31.844,VH_new_version2,2023.2.3,Win32,58.13953488,437.8102,438.8097,,,,,,,,,,,,,,,,,,,,,,,,,,438.8098,439.3599,m,1,0.5384,,439.3599,439.3601,,0,192,192,112,1,113,kelime,2185,99.2777,1971,0.2155,6,harmonic,1.25,4.996851707,m,w,,,,,,,
,,,,,,,,,,,456779,,001,2024-02-16_18h31.31.844,VH_new_version2,2023.2.3,Win32,58.13953488,439.3604,440.3594,,,,,,,,,,,,,,,,,,,,,,,,,,440.3594,441.3935,m,1,1.0251,,441.3935,441.3936,,0,193,193,33,1,34,sayfa,1655,75.1966,1502,0.1642,5,harmonic,1.45,4.876198204,m,w,,,,,,,
,,,,,,,,,,,456779,,001,2024-02-16_18h31.31.844,VH_new_version2,2023.2.3,Win32,58.13953488,441.3938,442.3939,,,,,,,,,,,,,,,,,,,,,,,,,,442.3939,442.9601,z,1,0.5477,,442.9602,442.9603,,0,194,194,193,1,194,hatrak,,,,,6,harmonic,1.95,,z,nw,,,,,,,
,,,,,,,,,,,456779,,001,2024-02-16_18h31.31.844,VH_new_version2,2023.2.3,Win32,58.13953488,442.9605,443.96,,,,,,,,,,,,,,,,,,,,,,,,,,443.96,445.4943,z,1,1.522,,445.4943,445.4945,,0,195,195,257,1,258,seran,,,,,5,notharmonic,1.35,,z,nw,,,,,,,
,,,,,,,,,,,456779,,001,2024-02-16_18h31.31.844,VH_new_version2,2023.2.3,Win32,58.13953488,445.4948,446.4944,,,,,,,,,,,,,,,,,,,,,,,,,,446.4944,447.478,z,1,0.9651,,447.4781,447.4781,,0,196,196,229,1,230,irar,,,,,4,notharmonic,1.65,,z,nw,,,,,,,
,,,,,,,,,,,456779,,001,2024-02-16_18h31.31.844,VH_new_version2,2023.2.3,Win32,58.13953488,447.4784,448.4782,,,,,,,,,,,,,,,,,,,,,,,,,,448.4783,449.1449,z,1,0.6535,,449.1449,449.145,,0,197,197,152,1,153,ebür,,,,,4,harmonic,1.95,,z,nw,,,,,,,
,,,,,,,,,,,456779,,001,2024-02-16_18h31.31.844,VH_new_version2,2023.2.3,Win32,58.13953488,449.1453,450.145,,,,,,,,,,,,,,,,,,,,,,,,,,450.145,450.7617,m,1,0.5995,,450.7617,450.7618,,0,198,198,5,1,6,üzüm,716,32.5322,588,0.0643,4,harmonic,1.45,4.512313434,m,w,,,,,,,
,,,,,,,,,,,456779,,001,2024-02-16_18h31.31.844,VH_new_version2,2023.2.3,Win32,58.13953488,450.7621,451.7614,,,,,,,,,,,,,,,,,,,,,,,,,,451.7614,452.3954,z,1,0.6204,,452.3954,452.3954,,0,199,199,183,1,184,çapal,,,,,5,harmonic,1.6,,z,nw,,,,,,,
,,,,,,,,,,,456779,,001,2024-02-16_18h31.31.844,VH_new_version2,2023.2.3,Win32,58.13953488,452.3957,453.3957,,,,,,,,,,,,,,,,,,,,,,,,,,453.3957,454.0122,m,1,0.5991,,454.0122,454.0124,,0,200,200,38,1,39,fikir,2552,115.9528,2413,0.2638,5,harmonic,1.9,5.06428124,m,w,,,,,,,
,,,,,,,,,,,456779,,001,2024-02-16_18h31.31.844,VH_new_version2,2023.2.3,Win32,58.13953488,454.0126,455.0121,,,,,,,,,,,,,,,,,,,,,,,,,,455.0122,455.5292,m,1,0.5005,,455.5292,455.5293,,0,201,201,15,1,16,ışık,1814,82.421,1635,0.1787,4,harmonic,1.6,4.916037879,m,w,,,,,,,
,,,,,,,,,,,456779,,001,2024-02-16_18h31.31.844,VH_new_version2,2023.2.3,Win32,58.13953488,455.5296,456.5294,,,,,,,,,,,,,,,,,,,,,,,,,,456.5294,456.9787,m,1,0.4378,,456.9787,456.9788,,0,202,202,93,1,94,olay,3415,155.1641,3179,0.3475,4,harmonic,1.5,5.190791247,m,w,,,,,,,
,,,,,,,,,,,456779,,001,2024-02-16_18h31.31.844,VH_new_version2,2023.2.3,Win32,58.13953488,456.979,457.9793,,,,,,,,,,,,,,,,,,,,,,,,,,457.9793,458.4629,m,1,0.4679,,458.4629,458.463,,0,203,203,103,1,104,resim,2506,113.8627,2188,0.2392,5,harmonic,1.4,5.056381478,m,w,,,,,,,
,,,,,,,,,,,456779,,001,2024-02-16_18h31.31.844,VH_new_version2,2023.2.3,Win32,58.13953488,458.4633,459.463,,,,,,,,,,,,,,,,,,,,,,,,,,459.4631,460.1463,z,1,0.6742,,460.1463,460.1464,,0,204,204,201,1,202,lingin,,,,,6,harmonic,1.6,,z,nw,,,,,,,
,,,,,,,,,,,456779,,001,2024-02-16_18h31.31.844,VH_new_version2,2023.2.3,Win32,58.13953488,460.1467,461.1466,,,,,,,,,,,,,,,,,,,,,,,,,,461.1466,461.6298,m,1,0.4649,,461.6298,461.63,,0,205,205,51,1,52,yaprak,739,33.5772,678,0.0741,6,harmonic,1.7,4.526044478,m,w,,,,,,,
,,,,,,,,,,,456779,,001,2024-02-16_18h31.31.844,VH_new_version2,2023.2.3,Win32,58.13953488,461.6302,462.6296,,,,,,,,,,,,,,,,,,,,,,,,,,462.6297,463.147,m,1,0.5007,,463.147,463.1471,,0,206,206,34,1,35,çorba,1674,76.0599,1513,0.1654,5,harmonic,1.75,4.88115575,m,w,,,,,,,
,,,,,,,,,,,456779,,001,2024-02-16_18h31.31.844,VH_new_version2,2023.2.3,Win32,58.13953488,463.1474,464.1467,,,,,,,,,,,,,,,,,,,,,,,,,,464.1467,464.78,z,1,0.6185,,464.78,464.7801,,0,207,207,230,1,231,asez,,,,,4,notharmonic,1.9,,z,nw,,,,,,,
,,,,,,,,,,,456779,,001,2024-02-16_18h31.31.844,VH_new_version2,2023.2.3,Win32,58.13953488,464.7803,465.7803,,,,,,,,,,,,,,,,,,,,,,,,,,465.7803,466.3302,z,1,0.5327,,466.3302,466.3303,,0,208,208,208,1,209,terbiy,,,,,6,harmonic,1.9,,z,nw,,,,,,,
,,,,,,,,,,,456779,,001,2024-02-16_18h31.31.844,VH_new_version2,2023.2.3,Win32,58.13953488,466.3305,467.3303,,,,,,,,,,,,,,,,,,,,,,,,,,467.3303,467.8645,m,1,0.5153,,467.8646,467.8647,,0,209,209,37,1,38,cümle,1911,86.8283,1765,0.193,5,harmonic,1.85,4.938661298,m,w,,,,,,,
,,,,,,,,,,,456779,,001,2024-02-16_18h31.31.844,VH_new_version2,2023.2.3,Win32,58.13953488,467.8649,468.8644,,,,,,,,,,,,,,,,,,,,,,,,,,468.8644,469.4311,z,1,0.548,,469.4311,469.4311,,0,210,210,278,1,279,avalün,,,,,6,notharmonic,2.2,,z,nw,,,,,,,
,,,,,,,,,,,456779,,001,2024-02-16_18h31.31.844,VH_new_version2,2023.2.3,Win32,58.13953488,469.4314,470.4312,,,,,,,,,,,,,,,,,,,,,,,,,,470.4312,471.4314,m,1,0.9858,,471.4314,471.4315,,0,211,211,2,1,3,iğne,515,23.3996,455,0.0497,4,harmonic,1.65,4.369208434,m,w,,,,,,,
,,,,,,,,,,,456779,,001,2024-02-16_18h31.31.844,VH_new_version2,2023.2.3,Win32,58.13953488,471.4319,472.4317,,,,,,,,,,,,,,,,,,,,,,,,,,472.4317,472.9483,m,1,0.5067,,472.9483,474.1989,space,0,212,212,141,1,142,fındık,865,39.3022,769,0.0841,6,harmonic,1.95,4.594416861,m,w,1.2382,,,,,,
,,,,,,,,,,,456779,,001,2024-02-16_18h31.31.844,VH_new_version2,2023.2.3,Win32,58.13953488,474.2054,475.199,,,,,,,,,,,,,,,,,,,,,,,,,,475.199,475.6649,m,1,0.4499,,475.6649,475.665,,0,213,213,113,1,114,görev,2159,98.0964,1998,0.2184,5,harmonic,1.75,4.99165307,m,w,,,,,,,
,,,,,,,,,,,456779,,001,2024-02-16_18h31.31.844,VH_new_version2,2023.2.3,Win32,58.13953488,475.6653,476.6656,,,,,,,,,,,,,,,,,,,,,,,,,,476.6657,477.1493,m,1,0.4678,,477.1493,477.1494,,0,214,214,54,1,55,elbise,883,40.12,786,0.0859,6,harmonic,1.9,4.603360924,m,w,,,,,,,
,,,,,,,,,,,456779,,001,2024-02-16_18h31.31.844,VH_new_version2,2023.2.3,Win32,58.13953488,477.1496,478.1493,,,,,,,,,,,,,,,,,,,,,,,,,,478.1493,478.9663,m,1,0.8015,,478.9663,478.9665,,0,215,215,104,1,105,hediye,2501,113.6355,2224,0.2431,6,harmonic,1.7,5.055514027,m,w,,,,,,,
,,,,,,,,,,,456779,,001,2024-02-16_18h31.31.844,VH_new_version2,2023.2.3,Win32,58.13953488,478.9666,479.9664,,,,,,,,,,,,,,,,,,,,,,,,,,479.9664,480.6496,z,1,0.6731,,480.6496,480.6497,,0,216,216,161,1,162,mağa,,,,,4,harmonic,1.15,,z,nw,,,,,,,
,,,,,,,,,,,456779,,001,2024-02-16_18h31.31.844,VH_new_version2,2023.2.3,Win32,58.13953488,480.6499,481.6494,,,,,,,,,,,,,,,,,,,,,,,,,,481.6495,482.3326,m,1,0.6728,,482.3326,482.3327,,0,217,217,138,1,139,ödül,1063,48.2985,926,0.1012,4,harmonic,1.7,4.683933643,m,w,,,,,,,
,,,,,,,,,,,456779,,001,2024-02-16_18h31.31.844,VH_new_version2,2023.2.3,Win32,58.13953488,482.333,483.3335,,,,,,,,,,,,,,,,,,,,,,,,,,483.3335,484.1328,z,1,0.7819,,484.1328,484.1329,,0,218,218,185,1,186,birpi,,,,,5,harmonic,1.75,,z,nw,,,,,,,
,,,,,,,,,,,456779,,001,2024-02-16_18h31.31.844,VH_new_version2,2023.2.3,Win32,58.13953488,484.133,485.1338,,,,,,,,,,,,,,,,,,,,,,,,,,485.1338,485.6499,m,1,0.5035,,485.6499,485.65,,0,219,219,29,1,30,şarap,926,42.0738,787,0.086,5,harmonic,1.9,4.624011738,m,w,,,,,,,
,,,,,,,,,,,456779,,001,2024-02-16_18h31.31.844,VH_new_version2,2023.2.3,Win32,58.13953488,485.6503,486.65,,,,,,,,,,,,,,,,,,,,,,,,,,486.6501,487.334,z,1,0.6677,,487.3341,487.3341,,0,220,220,226,1,227,şüda,,,,,4,notharmonic,1.9,,z,nw,,,,,,,
,,,,,,,,,,,456779,,001,2024-02-16_18h31.31.844,VH_new_version2,2023.2.3,Win32,58.13953488,487.3344,488.3344,,,,,,,,,,,,,,,,,,,,,,,,,,488.3344,488.8844,z,1,0.5358,,488.8844,488.8845,,0,221,221,235,1,236,mate,,,,,4,notharmonic,1.65,,z,nw,,,,,,,
,,,,,,,,,,,456779,,001,2024-02-16_18h31.31.844,VH_new_version2,2023.2.3,Win32,58.13953488,488.8848,489.8843,,,,,,,,,,,,,,,,,,,,,,,,,,489.8843,490.551,z,1,0.6498,,490.5511,490.5511,,0,222,222,192,1,193,kumgun,,,,,6,harmonic,1.85,,z,nw,,,,,,,
,,,,,,,,,,,456779,,001,2024-02-16_18h31.31.844,VH_new_version2,2023.2.3,Win32,58.13953488,490.5515,491.5512,,,,,,,,,,,,,,,,,,,,,,,,,,491.5512,492.4507,z,1,0.8823,,492.4507,492.4508,,0,223,223,261,1,262,eksan,,,,,5,notharmonic,1.7,,z,nw,,,,,,,
,,,,,,,,,,,456779,,001,2024-02-16_18h31.31.844,VH_new_version2,2023.2.3,Win32,58.13953488,492.4511,493.4516,,,,,,,,,,,,,,,,,,,,,,,,,,493.4516,493.9679,z,1,0.4972,,493.9679,493.968,,0,224,224,151,1,152,uban,,,,,4,harmonic,1.35,,z,nw,,,,,,,
,,,,,,,,,,,456779,,001,2024-02-16_18h31.31.844,VH_new_version2,2023.2.3,Win32,58.13953488,493.9683,494.9685,,,,,,,,,,,,,,,,,,,,,,,,,,494.9685,495.4687,m,1,0.4838,,495.4688,495.4689,,0,225,225,7,1,8,inci,757,34.3951,686,0.075,4,harmonic,1.05,4.536496576,m,w,,,,,,,
,,,,,,,,,,,456779,,001,2024-02-16_18h31.31.844,VH_new_version2,2023.2.3,Win32,58.13953488,495.4692,496.469,,,,,,,,,,,,,,,,,,,,,,,,,,496.469,497.2189,z,1,0.7389,,497.219,497.219,,0,226,226,241,1,242,akter,,,,,5,notharmonic,1.8,,z,nw,,,,,,,
,,,,,,,,,,,456779,,001,2024-02-16_18h31.31.844,VH_new_version2,2023.2.3,Win32,58.13953488,497.2194,498.2193,,,,,,,,,,,,,,,,,,,,,,,,,,498.2193,498.8525,z,1,0.6134,,498.8525,498.8527,,0,227,227,213,1,214,zale,,,,,4,notharmonic,1.55,,z,nw,,,,,,,
,,,,,,,,,,,456779,,001,2024-02-16_18h31.31.844,VH_new_version2,2023.2.3,Win32,58.13953488,498.8529,499.8528,,,,,,,,,,,,,,,,,,,,,,,,,,499.8529,500.3361,m,1,0.471,,500.3361,500.3362,,0,228,228,61,1,62,yağmur,2491,113.1812,2156,0.2357,6,harmonic,1.9,5.053774294,m,w,,,,,,,
,,,,,,,,,,,456779,,001,2024-02-16_18h31.31.844,VH_new_version2,2023.2.3,Win32,58.13953488,500.3364,501.3364,,,,,,,,,,,,,,,,,,,,,,,,,,501.3364,501.9189,z,1,0.5752,,501.919,501.9191,,0,229,229,153,1,154,uyko,,,,,4,harmonic,1.95,,z,nw,,,,,,,
,,,,,,,,,,,456779,,001,2024-02-16_18h31.31.844,VH_new_version2,2023.2.3,Win32,58.13953488,501.9192,502.9195,,,,,,,,,,,,,,,,,,,,,,,,,,502.9195,503.7695,z,1,0.8352,,503.7695,503.7696,,0,230,230,223,1,224,mame,,,,,4,notharmonic,1.65,,z,nw,,,,,,,
,,,,,,,,,,,456779,,001,2024-02-16_18h31.31.844,VH_new_version2,2023.2.3,Win32,58.13953488,503.7699,504.7701,,,,,,,,,,,,,,,,,,,,,,,,,,504.7701,505.3536,z,1,0.5672,,505.3536,505.3537,,0,231,231,270,1,271,meşkup,,,,,6,notharmonic,1.95,,z,nw,,,,,,,
,,,,,,,,,,,456779,,001,2024-02-16_18h31.31.844,VH_new_version2,2023.2.3,Win32,58.13953488,505.3539,506.3539,,,,,,,,,,,,,,,,,,,,,,,,,,506.3539,507.0199,z,1,0.6536,,507.0199,507.0201,,0,232,232,177,1,178,akapı,,,,,5,harmonic,1.8,,z,nw,,,,,,,
,,,,,,,,,,,456779,,001,2024-02-16_18h31.31.844,VH_new_version2,2023.2.3,Win32,58.13953488,507.0203,508.0201,,,,,,,,,,,,,,,,,,,,,,,,,,508.0201,508.5033,m,1,0.4739,,508.5034,508.5034,,0,233,233,76,1,77,koltuk,559,25.3987,476,0.052,6,harmonic,1.75,4.404811488,m,w,,,,,,,
,,,,,,,,,,,456779,,001,2024-02-16_18h31.31.844,VH_new_version2,2023.2.3,Win32,58.13953488,508.5037,509.5043,,,,,,,,,,,,,,,,,,,,,,,,,,509.5043,510.6208,z,1,1.1022,,510.6209,510.621,,0,234,234,189,1,190,genek,,,,,5,harmonic,1.6,,z,nw,,,,,,,
,,,,,,,,,,,456779,,001,2024-02-16_18h31.31.844,VH_new_version2,2023.2.3,Win32,58.13953488,510.6212,511.6208,,,,,,,,,,,,,,,,,,,,,,,,,,511.6208,512.1211,z,1,0.4873,,512.1211,512.1212,,0,235,235,267,1,268,tapare,,,,,6,notharmonic,1.95,,z,nw,,,,,,,
,,,,,,,,,,,456779,,001,2024-02-16_18h31.31.844,VH_new_version2,2023.2.3,Win32,58.13953488,512.1215,513.1214,,,,,,,,,,,,,,,,,,,,,,,,,,513.1214,513.7548,z,1,0.6247,,513.7548,513.7549,,0,236,236,184,1,185,nekir,,,,,5,harmonic,1.6,,z,nw,,,,,,,
,,,,,,,,,,,456779,,001,2024-02-16_18h31.31.844,VH_new_version2,2023.2.3,Win32,58.13953488,513.7551,514.7551,,,,,,,,,,,,,,,,,,,,,,,,,,514.7551,515.3717,m,1,0.6,,515.3718,515.3718,,0,237,237,129,1,130,peynir,1421,64.5646,1248,0.1364,6,harmonic,1.9,4.809994465,m,w,,,,,,,
,,,,,,,,,,,456779,,001,2024-02-16_18h31.31.844,VH_new_version2,2023.2.3,Win32,58.13953488,515.372,516.372,,,,,,,,,,,,,,,,,,,,,,,,,,516.372,517.5219,z,1,1.1413,,517.522,517.522,,0,238,238,204,1,205,kürfür,,,,,6,harmonic,1.95,,z,nw,,,,,,,
,,,,,,,,,,,456779,,001,2024-02-16_18h31.31.844,VH_new_version2,2023.2.3,Win32,58.13953488,517.5222,518.5221,,,,,,,,,,,,,,,,,,,,,,,,,,518.5221,519.1224,z,1,0.5807,,519.1224,519.1225,,0,239,239,263,1,264,magina,,,,,6,notharmonic,1.9,,z,nw,,,,,,,
,,,,,,,,,,,456779,,001,2024-02-16_18h31.31.844,VH_new_version2,2023.2.3,Win32,58.13953488,519.1228,520.1223,,,,,,,,,,,,,,,,,,,,,,,,,,520.1223,520.7059,z,1,0.5702,,520.7059,520.706,,0,240,240,187,1,188,ahfam,,,,,5,harmonic,1.85,,z,nw,,,,,,,
,,,,,,,,,,,456779,,001,2024-02-16_18h31.31.844,VH_new_version2,2023.2.3,Win32,58.13953488,520.7063,521.7059,,,,,,,,,,,,,,,,,,,,,,,,,,521.7059,522.2897,m,1,0.5705,,522.2897,522.2898,,0,241,241,20,1,21,süre,8679,394.3393,8119,0.8876,4,harmonic,1,5.595870061,m,w,,,,,,,
,,,,,,,,,,,456779,,001,2024-02-16_18h31.31.844,VH_new_version2,2023.2.3,Win32,58.13953488,522.29,523.2892,,,,,,,,,,,,,,,,,,,,,,,,,,523.2893,523.8231,m,1,0.5243,,523.8232,523.8232,,0,242,242,95,1,96,sanat,3121,141.8059,2485,0.2717,5,harmonic,1.4,5.151694301,m,w,,,,,,,
,,,,,,,,,,,456779,,001,2024-02-16_18h31.31.844,VH_new_version2,2023.2.3,Win32,58.13953488,523.8234,524.8231,,,,,,,,,,,,,,,,,,,,,,,,,,524.8231,525.2899,m,1,0.4491,,525.2899,525.2899,,0,243,243,105,1,106,hasta,2431,110.455,2140,0.2339,5,harmonic,1,5.04318538,m,w,,,,,,,
,,,,,,,,,,,456779,,001,2024-02-16_18h31.31.844,VH_new_version2,2023.2.3,Win32,58.13953488,525.2902,526.2895,,,,,,,,,,,,,,,,,,,,,,,,,,526.2895,526.6395,m,0,0.3351,,526.6395,526.6395,,0,244,244,207,1,208,dendek,,,,,6,harmonic,1.8,,z,nw,,,,,,,
,,,,,,,,,,,456779,,001,2024-02-16_18h31.31.844,VH_new_version2,2023.2.3,Win32,58.13953488,526.6398,527.6396,,,,,,,,,,,,,,,,,,,,,,,,,,527.6396,528.2903,m,0,0.6427,,528.2904,528.2904,,0,245,245,181,1,182,masus,,,,,5,harmonic,1.7,,z,nw,,,,,,,
,,,,,,,,,,,456779,,001,2024-02-16_18h31.31.844,VH_new_version2,2023.2.3,Win32,58.13953488,528.2906,529.2906,,,,,,,,,,,,,,,,,,,,,,,,,,529.2906,529.9568,m,1,0.6519,,529.957,529.957,,0,246,246,55,1,56,zeytin,904,41.0742,758,0.0829,6,harmonic,1.85,4.613569113,m,w,,,,,,,
,,,,,,,,,,,456779,,001,2024-02-16_18h31.31.844,VH_new_version2,2023.2.3,Win32,58.13953488,529.9573,530.9567,,,,,,,,,,,,,,,,,,,,,,,,,,530.9567,531.5909,z,1,0.62,,531.5909,531.591,,0,247,247,276,1,277,hiyake,,,,,6,notharmonic,2.25,,z,nw,,,,,,,
,,,,,,,,,,,456779,,001,2024-02-16_18h31.31.844,VH_new_version2,2023.2.3,Win32,58.13953488,531.5912,532.591,,,,,,,,,,,,,,,,,,,,,,,,,,532.591,533.9747,m,1,1.3691,,533.9747,533.9749,,0,248,248,101,1,102,okul,2685,121.9958,2381,0.2603,4,harmonic,1.35,5.086344879,m,w,,,,,,,
,,,,,,,,,,,456779,,001,2024-02-16_18h31.31.844,VH_new_version2,2023.2.3,Win32,58.13953488,533.9751,534.9748,,,,,,,,,,,,,,,,,,,,,,,,,,534.9748,535.775,m,1,0.7894,,535.775,535.775,,0,249,249,10,1,11,eser,958,43.5277,892,0.0975,4,harmonic,1,4.63876572,m,w,,,,,,,
,,,,,,,,,,,456779,,001,2024-02-16_18h31.31.844,VH_new_version2,2023.2.3,Win32,58.13953488,535.7753,536.7752,,,,,,,,,,,,,,,,,,,,,,,,,,536.7752,537.4579,m,1,0.67,,537.4579,537.458,,0,250,250,64,1,65,teknik,3297,149.8026,2798,0.3059,6,harmonic,1.9,5.175519351,m,w,,,,,,,
,,,,,,,,,,,456779,,001,2024-02-16_18h31.31.844,VH_new_version2,2023.2.3,Win32,58.13953488,537.4583,538.4586,,,,,,,,,,,,,,,,,,,,,,,,,,538.4586,538.9256,m,1,0.4478,,538.9256,538.9257,,0,251,251,108,1,109,hayvan,2363,107.3653,1894,0.2071,6,harmonic,1.5,5.030863942,m,w,,,,,,,
,,,,,,,,,,,456779,,001,2024-02-16_18h31.31.844,VH_new_version2,2023.2.3,Win32,58.13953488,538.9259,539.9256,,,,,,,,,,,,,,,,,,,,,,,,,,539.9256,540.6092,z,1,0.6731,,540.6092,540.6092,,0,252,252,221,1,222,mane,,,,,4,notharmonic,1.4,,z,nw,,,,,,,
,,,,,,,,,,,456779,,001,2024-02-16_18h31.31.844,VH_new_version2,2023.2.3,Win32,58.13953488,540.6095,541.6091,,,,,,,,,,,,,,,,,,,,,,,,,,541.6091,542.1252,z,1,0.4965,,542.1252,542.1253,,0,253,253,273,1,274,kalkeş,,,,,6,notharmonic,1.85,,z,nw,,,,,,,
,,,,,,,,,,,456779,,001,2024-02-16_18h31.31.844,VH_new_version2,2023.2.3,Win32,58.13953488,542.1256,543.1263,,,,,,,,,,,,,,,,,,,,,,,,,,543.1263,543.726,z,1,0.5817,,543.726,543.7261,,0,254,254,173,1,174,pirbe,,,,,5,harmonic,1.9,,z,nw,,,,,,,
,,,,,,,,,,,456779,,001,2024-02-16_18h31.31.844,VH_new_version2,2023.2.3,Win32,58.13953488,543.7264,544.7264,,,,,,,,,,,,,,,,,,,,,,,,,,544.7264,545.2932,z,1,0.5557,,545.2933,545.2934,,0,255,255,227,1,228,esta,,,,,4,notharmonic,1.7,,z,nw,,,,,,,
,,,,,,,,,,,456779,,001,2024-02-16_18h31.31.844,VH_new_version2,2023.2.3,Win32,58.13953488,545.2936,546.2932,,,,,,,,,,,,,,,,,,,,,,,,,,546.2932,546.8594,z,1,0.5483,,546.8594,546.8595,,0,256,256,271,1,272,yakele,,,,,6,notharmonic,2,,z,nw,,,,,,,
,,,,,,,,,,,456779,,001,2024-02-16_18h31.31.844,VH_new_version2,2023.2.3,Win32,58.13953488,546.8596,547.8596,,,,,,,,,,,,,,,,,,,,,,,,,,547.8596,548.36,z,1,0.4842,,548.3601,548.3602,,0,257,257,245,1,246,gaset,,,,,5,notharmonic,1.85,,z,nw,,,,,,,
,,,,,,,,,,,456779,,001,2024-02-16_18h31.31.844,VH_new_version2,2023.2.3,Win32,58.13953488,548.3604,549.3598,,,,,,,,,,,,,,,,,,,,,,,,,,549.3599,549.9266,z,1,0.5537,,549.9267,549.9268,,0,258,258,279,1,280,tevaha,,,,,6,notharmonic,2,,z,nw,,,,,,,
,,,,,,,,,,,456779,,001,2024-02-16_18h31.31.844,VH_new_version2,2023.2.3,Win32,58.13953488,549.927,550.9273,,,,,,,,,,,,,,,,,,,,,,,,,,550.9273,551.5275,m,1,0.5895,,551.5275,551.5275,,0,259,259,120,1,121,yedi,1880,85.4197,1729,0.189,4,harmonic,1,4.931558042,m,w,,,,,,,
,,,,,,,,,,,456779,,001,2024-02-16_18h31.31.844,VH_new_version2,2023.2.3,Win32,58.13953488,551.5278,552.5276,,,,,,,,,,,,,,,,,,,,,,,,,,552.5277,553.0108,m,1,0.4665,,553.0108,553.0108,,0,260,260,119,1,120,cuma,1941,88.1913,1774,0.1939,4,harmonic,1.3,4.945425744,m,w,,,,,,,
,,,,,,,,,,,456779,,001,2024-02-16_18h31.31.844,VH_new_version2,2023.2.3,Win32,58.13953488,553.0111,554.0104,,,,,,,,,,,,,,,,,,,,,,,,,,554.0105,554.6606,z,1,0.6423,,554.6607,554.6607,,0,261,261,272,1,273,takime,,,,,6,notharmonic,1.5,,z,nw,,,,,,,
,,,,,,,,,,,456779,,001,2024-02-16_18h31.31.844,VH_new_version2,2023.2.3,Win32,58.13953488,554.6609,555.6612,,,,,,,,,,,,,,,,,,,,,,,,,,555.6612,556.2282,m,1,0.5504,,556.2282,556.2283,,0,262,262,117,1,118,çiçek,2071,94.098,1772,0.1937,5,harmonic,1.95,4.973580393,m,w,,,,,,,
,,,,,,,,,,,456779,,001,2024-02-16_18h31.31.844,VH_new_version2,2023.2.3,Win32,58.13953488,556.2286,557.2283,,,,,,,,,,,,,,,,,,,,,,,,,,557.2283,558.7117,z,1,1.467,,558.7117,558.7118,,0,263,263,182,1,183,tesil,,,,,5,harmonic,1.45,,z,nw,,,,,,,
,,,,,,,,,,,456779,,001,2024-02-16_18h31.31.844,VH_new_version2,2023.2.3,Win32,58.13953488,558.7121,559.712,,,,,,,,,,,,,,,,,,,,,,,,,,559.712,560.2615,z,1,0.5333,,560.2615,560.2615,,0,264,264,195,1,196,çoflak,,,,,6,harmonic,2,,z,nw,,,,,,,
,,,,,,,,,,,456779,,001,2024-02-16_18h31.31.844,VH_new_version2,2023.2.3,Win32,58.13953488,560.2617,561.2622,,,,,,,,,,,,,,,,,,,,,,,,,,561.2622,561.7624,z,1,0.4842,,561.7625,561.7625,,0,265,265,256,1,257,betaş,,,,,5,notharmonic,1.85,,z,nw,,,,,,,
,,,,,,,,,,,456779,,001,2024-02-16_18h31.31.844,VH_new_version2,2023.2.3,Win32,58.13953488,561.7628,562.7624,,,,,,,,,,,,,,,,,,,,,,,,,,562.7624,563.3622,m,1,0.5882,,563.3622,563.3624,,0,266,266,136,1,137,tebrik,1117,50.7521,1102,0.1205,6,harmonic,1.85,4.705454017,m,w,,,,,,,
,,,,,,,,,,,456779,,001,2024-02-16_18h31.31.844,VH_new_version2,2023.2.3,Win32,58.13953488,563.3625,564.3628,,,,,,,,,,,,,,,,,,,,,,,,,,564.3629,564.7797,m,1,0.4053,,564.7797,564.7797,,0,267,267,71,1,72,boya,918,41.7103,799,0.0873,4,harmonic,1,4.620243314,m,w,,,,,,,
,,,,,,,,,,,456779,,001,2024-02-16_18h31.31.844,VH_new_version2,2023.2.3,Win32,58.13953488,564.78,565.7794,,,,,,,,,,,,,,,,,,,,,,,,,,565.7794,567.5133,z,1,1.7172,,567.5133,567.5134,,0,268,268,159,1,160,daro,,,,,4,harmonic,1.7,,z,nw,,,,,,,
,,,,,,,,,,,456779,,001,2024-02-16_18h31.31.844,VH_new_version2,2023.2.3,Win32,58.13953488,567.5137,568.5134,,,,,,,,,,,,,,,,,,,,,,,,,,568.5134,569.4295,m,1,0.8975,,569.4295,569.4296,,0,269,269,88,1,89,yorum,3801,172.7024,3473,0.3797,5,harmonic,1.1,5.237298373,m,w,,,,,,,
,,,,,,,,,,,456779,,001,2024-02-16_18h31.31.844,VH_new_version2,2023.2.3,Win32,58.13953488,569.4299,570.4298,,,,,,,,,,,,,,,,,,,,,,,,,,570.4298,571.0798,m,1,0.6314,,571.0799,571.0799,,0,270,270,19,1,20,baba,3645,165.6143,3131,0.3423,4,harmonic,1,5.219097833,m,w,,,,,,,
,,,,,,,,,,,456779,,001,2024-02-16_18h31.31.844,VH_new_version2,2023.2.3,Win32,58.13953488,571.0802,572.0805,,,,,,,,,,,,,,,,,,,,,,,,,,572.0805,572.7301,z,1,0.6387,,572.7301,572.7302,,0,271,271,250,1,251,hapef,,,,,5,notharmonic,1.95,,z,nw,,,,,,,
,,,,,,,,,,,456779,,001,2024-02-16_18h31.31.844,VH_new_version2,2023.2.3,Win32,58.13953488,572.7304,573.7301,,,,,,,,,,,,,,,,,,,,,,,,,,573.7301,574.2643,m,1,0.5239,,574.2644,574.2644,,0,272,272,0,1,1,ödev,191,8.6783,175,0.0191,4,harmonic,1.6,3.938434659,m,w,,,,,,,
,,,,,,,,,,,456779,,001,2024-02-16_18h31.31.844,VH_new_version2,2023.2.3,Win32,58.13953488,574.2647,575.2645,,,,,,,,,,,,,,,,,,,,,,,,,,575.2645,575.8646,z,1,0.5825,,575.8647,575.8647,,0,273,273,147,1,148,üyöm,,,,,4,harmonic,1.95,,z,nw,,,,,,,
,,,,,,,,,,,456779,,001,2024-02-16_18h31.31.844,VH_new_version2,2023.2.3,Win32,58.13953488,575.865,576.8647,,,,,,,,,,,,,,,,,,,,,,,,,,576.8647,577.6314,m,1,0.751,,577.6314,577.6315,,0,274,274,21,1,22,kötü,9344,424.5543,8257,0.9027,4,harmonic,1.65,5.627933244,m,w,,,,,,,
,,,,,,,,,,,456779,,001,2024-02-16_18h31.31.844,VH_new_version2,2023.2.3,Win32,58.13953488,577.6318,578.6315,,,,,,,,,,,,,,,,,,,,,,,,,,578.6315,579.2651,z,1,0.6226,,579.2651,579.2652,,0,275,275,231,1,232,babi,,,,,4,notharmonic,1.4,,z,nw,,,,,,,
,,,,,,,,,,,456779,,001,2024-02-16_18h31.31.844,VH_new_version2,2023.2.3,Win32,58.13953488,579.2654,580.2654,,,,,,,,,,,,,,,,,,,,,,,,,,580.2654,580.9318,m,1,0.6486,,580.9318,580.932,,0,276,276,75,1,76,dergi,657,29.8515,592,0.0647,5,harmonic,1.3,4.474966159,m,w,,,,,,,
,,,,,,,,,,,456779,,001,2024-02-16_18h31.31.844,VH_new_version2,2023.2.3,Win32,58.13953488,580.9322,581.9319,,,,,,,,,,,,,,,,,,,,,,,,,,581.9319,582.5991,m,1,0.6528,,582.5992,582.5992,,0,277,277,128,1,129,merkez,1445,65.6551,1255,0.1372,6,harmonic,1.8,4.817268467,m,w,,,,,,,
,,,,,,,,,,,456779,,001,2024-02-16_18h31.31.844,VH_new_version2,2023.2.3,Win32,58.13953488,582.5994,583.5991,,,,,,,,,,,,,,,,,,,,,,,,,,583.5991,584.1656,m,1,0.5506,,584.1656,584.1658,,0,278,278,99,1,100,altı,2782,126.403,2571,0.2811,4,harmonic,1,5.101757381,m,w,,,,,,,
,,,,,,,,,,,456779,,001,2024-02-16_18h31.31.844,VH_new_version2,2023.2.3,Win32,58.13953488,584.166,585.166,,,,,,,,,,,,,,,,,,,,,,,,,,585.166,585.7826,z,1,0.5976,,585.7826,585.7826,,0,279,279,171,1,172,faraç,,,,,5,harmonic,1.75,,z,nw,,,,,,,
,,,,,,,,,,,456779,,001,2024-02-16_18h31.31.844,VH_new_version2,2023.2.3,Win32,58.13953488,585.7829,586.7829,,,,,,,,,,,,,,,,,,,,,,,,,,586.7829,587.3831,z,1,0.59,,587.3831,587.3832,,0,280,280,248,1,249,talif,,,,,5,notharmonic,1.5,,z,nw,,,,,,,
,,,,,,,,,,,456779,,001,2024-02-16_18h31.31.844,VH_new_version2,2023.2.3,Win32,58.13953488,587.3834,588.3832,,,,,,,,,,,,,,,,,,,,,,,,,,588.3832,589.2658,m,1,0.8664,,589.2658,589.2659,,0,281,281,70,1,71,gerçek,8983,408.1519,8058,0.8809,6,harmonic,1.7,5.610821823,m,w,,,,,,,
,,,,,,,,,,,456779,,001,2024-02-16_18h31.31.844,VH_new_version2,2023.2.3,Win32,58.13953488,589.2661,590.2659,,,,,,,,,,,,,,,,,,,,,,,,,,590.2659,591.0002,z,1,0.7158,,591.0002,591.0003,,0,282,282,205,1,206,hücmet,,,,,6,harmonic,1.85,,z,nw,,,,,,,
,,,,,,,,,,,456779,,001,2024-02-16_18h31.31.844,VH_new_version2,2023.2.3,Win32,58.13953488,591.0005,592.0002,,,,,,,,,,,,,,,,,,,,,,,,,,592.0002,592.5498,z,1,0.5311,,592.5498,594.4335,space,0,283,283,170,1,171,telen,,,,,5,harmonic,1.15,,z,nw,1.8721,,,,,,
,,,,,,,,,,,456779,,001,2024-02-16_18h31.31.844,VH_new_version2,2023.2.3,Win32,58.13953488,,,,,,,,,,,,,,,,,,,,,,,,,,,,,,,,,,,,,,,,,,,,,,,,,,,,,,,,594.4404,595.5174,space,1.0667,