welcome.started,welcome.stopped,key_resp_welc.keys,key_resp_welc.rt,key_resp_welc.duration,trials_2.thisRepN,trials_2.thisTrialN,trials_2.thisN,trials_2.thisIndex,trials_2.ran,Introduction,participant,Email Adresiniz,session,date,expName,psychopyVersion,OS,frameRate,fix.started,fix.stopped,Studypractice.started,Studypractice.stopped,key_resp_p.keys,key_resp_p.corr,key_resp_p.rt,key_resp_p.duration,rt,corr,FB.started,FB.stopped,trials.thisRepN,trials.thisTrialN,trials.thisN,trials.thisIndex,trials.ran,item_nr_p,target_p,isHarmonic_p,target_cond_p,CorrAns_p,inst2.started,inst2.stopped,key_resp_xx.keys,key_resp_xx.rt,key_resp_xx.duration,TestTrial.started,TestTrial.stopped,key_respTest.keys,key_respTest.corr,key_respTest.rt,key_respTest.duration,Pause.started,Pause.stopped,key_resp_pause.keys,trials_3.thisRepN,trials_3.thisTrialN,trials_3.thisN,trials_3.thisIndex,trials_3.ran,item_nr,target,BlogFreq,BlogFreqPm,BlogCD,BlogCDPc,WordLength,isHarmonic,old20,Zipf,CorrAns,word_cond,key_resp_pause.rt,key_resp_pause.duration,Bye.started,Bye.stopped,key_resp_bye.keys,key_resp_bye.rt,key_resp_bye.duration
0.0177,1.0461,space,1.0174,,0,0,0,0,1,"Deneye hoş geldiniz,

Devam etmek için BOŞLUK tuşuna basınız.",683976,,001,2024-02-15_22h04.47.462,VH_new_version2,2023.2.3,Win32,59.88023952,,,,,,,,,,,,,,,,,,,,,,,,,,,,,,,,,,,,,,,,,,,,,,,,,,,,,,,,,,,,
1.0464,2.8139,space,1.7209,,0,1,1,1,1,"Bu çalışma Valencia Üniversitesi kapsamında yürütülmektedir. Deneydeki göreviniz, ekrana çıkacak Türkçe sözcüklerin kelime olup olmadığını belirlemenizdir. Eğer sözcük gerçek bir kelime ise ""m"" tuşuna, değil ise ""z"" tuşuna basınız.   

Devam etmek için BOŞLUK tuşuna basınız.",683976,,001,2024-02-15_22h04.47.462,VH_new_version2,2023.2.3,Win32,59.88023952,,,,,,,,,,,,,,,,,,,,,,,,,,,,,,,,,,,,,,,,,,,,,,,,,,,,,,,,,,,,
2.8143,3.4306,space,0.5896,,0,2,2,2,1,"Her sözcük için en fazla iki saniyede cevap vermeniz beklenmektedir. Aksi takdirde deney bir sonraki sözcük ile devam eder. 
Bu çalışmada oldukça hızlı ve doğru cevaplama yapmanız beklenmektedir.

Devam etmek için BOŞLUK tuşuna basınız.",683976,,001,2024-02-15_22h04.47.462,VH_new_version2,2023.2.3,Win32,59.88023952,,,,,,,,,,,,,,,,,,,,,,,,,,,,,,,,,,,,,,,,,,,,,,,,,,,,,,,,,,,,
3.4308,4.4536,space,0.9999,,0,3,3,3,1,"Çalışmaya başlamadan önce ufak bir pratik yer almaktadır.
Kelimedir: ""m""
Kelime değildir: ""z""

Pratik teste başlamak için BOŞLUK tuşuna basınız. ",683976,,001,2024-02-15_22h04.47.462,VH_new_version2,2023.2.3,Win32,59.88023952,,,,,,,,,,,,,,,,,,,,,,,,,,,,,,,,,,,,,,,,,,,,,,,,,,,,,,,,,,,,
,,,,,,,,,,,683976,,001,2024-02-15_22h04.47.462,VH_new_version2,2023.2.3,Win32,59.88023952,4.4585,5.4472,5.4472,6.2363,m,1,0.7661,,0.7661,1,6.2364,7.2369,0,0,0,5,1,6,gizli,harmonic,word,m,,,,,,,,,,,,,,,,,,,,,,,,,,,,,,,,,,,,,,
,,,,,,,,,,,683976,,001,2024-02-15_22h04.47.462,VH_new_version2,2023.2.3,Win32,59.88023952,7.2373,8.2311,8.2311,8.8816,m,1,0.6179,,0.6179,1,8.8817,9.887,0,1,1,8,1,9,bilim,harmonic,word,m,,,,,,,,,,,,,,,,,,,,,,,,,,,,,,,,,,,,,,
,,,,,,,,,,,683976,,001,2024-02-15_22h04.47.462,VH_new_version2,2023.2.3,Win32,59.88023952,9.8872,10.8867,10.8867,11.6818,z,1,0.7747,,0.7747,1,11.6818,12.6813,0,2,2,12,1,13,tahip,notharmonic,nw,z,,,,,,,,,,,,,,,,,,,,,,,,,,,,,,,,,,,,,,
,,,,,,,,,,,683976,,001,2024-02-15_22h04.47.462,VH_new_version2,2023.2.3,Win32,59.88023952,12.6815,13.6821,13.6821,14.2822,m,1,0.5681,,0.5681,1,14.2823,15.2877,0,3,3,10,1,11,nefret,harmonic,word,m,,,,,,,,,,,,,,,,,,,,,,,,,,,,,,,,,,,,,,
,,,,,,,,,,,683976,,001,2024-02-15_22h04.47.462,VH_new_version2,2023.2.3,Win32,59.88023952,15.2879,16.2817,16.2817,16.8318,m,1,0.5241,,0.5241,1,16.8318,17.8327,0,4,4,6,1,7,sebep,harmonic,word,m,,,,,,,,,,,,,,,,,,,,,,,,,,,,,,,,,,,,,,
,,,,,,,,,,,683976,,001,2024-02-15_22h04.47.462,VH_new_version2,2023.2.3,Win32,59.88023952,17.833,18.833,18.833,19.5719,m,1,0.7169,,0.7169,1,19.5719,20.5722,0,5,5,11,1,12,teslim,harmonic,word,m,,,,,,,,,,,,,,,,,,,,,,,,,,,,,,,,,,,,,,
,,,,,,,,,,,683976,,001,2024-02-15_22h04.47.462,VH_new_version2,2023.2.3,Win32,59.88023952,20.5725,21.5723,21.5724,22.2993,z,1,0.7009,,0.7009,1,22.2993,23.3002,0,6,6,15,1,16,geki,harmonic,nw,z,,,,,,,,,,,,,,,,,,,,,,,,,,,,,,,,,,,,,,
,,,,,,,,,,,683976,,001,2024-02-15_22h04.47.462,VH_new_version2,2023.2.3,Win32,59.88023952,23.3004,24.3002,24.3002,25.8898,m,0,1.5672,,1.5672,0,25.8898,26.8842,0,7,7,14,1,15,mahne,notharmonic,nw,z,,,,,,,,,,,,,,,,,,,,,,,,,,,,,,,,,,,,,,
,,,,,,,,,,,683976,,001,2024-02-15_22h04.47.462,VH_new_version2,2023.2.3,Win32,59.88023952,26.8844,27.8836,27.8836,28.517,m,1,0.6012,,0.6012,1,28.517,29.5171,0,8,8,0,1,1,hazır,harmonic,word,m,,,,,,,,,,,,,,,,,,,,,,,,,,,,,,,,,,,,,,
,,,,,,,,,,,683976,,001,2024-02-15_22h04.47.462,VH_new_version2,2023.2.3,Win32,59.88023952,29.5175,30.5174,30.5175,31.6908,z,1,1.15,,1.15,1,31.6908,32.6843,0,9,9,21,1,22,güçli,harmonic,nw,z,,,,,,,,,,,,,,,,,,,,,,,,,,,,,,,,,,,,,,
,,,,,,,,,,,683976,,001,2024-02-15_22h04.47.462,VH_new_version2,2023.2.3,Win32,59.88023952,32.6846,33.6848,33.6848,34.3744,z,1,0.6667,,0.6667,1,34.3744,35.3688,0,10,10,19,1,20,mımal,harmonic,nw,z,,,,,,,,,,,,,,,,,,,,,,,,,,,,,,,,,,,,,,
,,,,,,,,,,,683976,,001,2024-02-15_22h04.47.462,VH_new_version2,2023.2.3,Win32,59.88023952,35.369,36.3686,36.3687,37.0688,z,1,0.672,,0.672,1,37.0688,38.075,0,11,11,22,1,23,gizım,notharmonic,nw,z,,,,,,,,,,,,,,,,,,,,,,,,,,,,,,,,,,,,,,
,,,,,,,,,,,683976,,001,2024-02-15_22h04.47.462,VH_new_version2,2023.2.3,Win32,59.88023952,38.0752,39.0687,39.0688,39.7059,m,1,0.6144,,0.6144,1,39.7059,40.7031,0,12,12,4,1,5,soğuk,harmonic,word,m,,,,,,,,,,,,,,,,,,,,,,,,,,,,,,,,,,,,,,
,,,,,,,,,,,683976,,001,2024-02-15_22h04.47.462,VH_new_version2,2023.2.3,Win32,59.88023952,40.7033,41.7032,41.7032,42.7365,z,1,1.0001,,1.0001,1,42.7365,43.7365,0,13,13,18,1,19,pimer,harmonic,nw,z,,,,,,,,,,,,,,,,,,,,,,,,,,,,,,,,,,,,,,
,,,,,,,,,,,683976,,001,2024-02-15_22h04.47.462,VH_new_version2,2023.2.3,Win32,59.88023952,43.7367,44.7366,44.7367,45.5538,z,1,0.7837,,0.7837,1,45.5538,46.5538,0,14,14,13,1,14,orat,harmonic,nw,z,,,,,,,,,,,,,,,,,,,,,,,,,,,,,,,,,,,,,,
,,,,,,,,,,,683976,,001,2024-02-15_22h04.47.462,VH_new_version2,2023.2.3,Win32,59.88023952,46.5541,47.5532,47.5533,48.4201,m,1,0.8349,,0.8349,1,48.4201,49.421,0,15,15,1,1,2,veri,harmonic,word,m,,,,,,,,,,,,,,,,,,,,,,,,,,,,,,,,,,,,,,
,,,,,,,,,,,683976,,001,2024-02-15_22h04.47.462,VH_new_version2,2023.2.3,Win32,59.88023952,49.4212,50.4262,50.4262,51.6208,m,1,1.1734,,1.1734,1,51.6209,52.6273,0,16,16,7,1,8,oran,harmonic,word,m,,,,,,,,,,,,,,,,,,,,,,,,,,,,,,,,,,,,,,
,,,,,,,,,,,683976,,001,2024-02-15_22h04.47.462,VH_new_version2,2023.2.3,Win32,59.88023952,52.6276,53.6215,53.6215,54.671,m,1,1.0268,,1.0268,1,54.671,55.6717,0,17,17,2,1,3,yardım,harmonic,word,m,,,,,,,,,,,,,,,,,,,,,,,,,,,,,,,,,,,,,,
,,,,,,,,,,,683976,,001,2024-02-15_22h04.47.462,VH_new_version2,2023.2.3,Win32,59.88023952,55.6719,56.6785,56.6785,57.4441,m,1,0.7505,,0.7505,1,57.4442,58.4439,0,18,18,3,1,4,sevgi,harmonic,word,m,,,,,,,,,,,,,,,,,,,,,,,,,,,,,,,,,,,,,,
,,,,,,,,,,,683976,,001,2024-02-15_22h04.47.462,VH_new_version2,2023.2.3,Win32,59.88023952,58.4442,59.4389,59.4389,60.1557,m,1,0.6895,,0.6895,1,60.1557,61.1554,0,19,19,9,1,10,zarar,harmonic,word,m,,,,,,,,,,,,,,,,,,,,,,,,,,,,,,,,,,,,,,
,,,,,,,,,,,683976,,001,2024-02-15_22h04.47.462,VH_new_version2,2023.2.3,Win32,59.88023952,61.1557,62.1561,62.1561,64.0787,z,1,1.8997,,1.8997,1,64.0788,65.0726,0,20,20,16,1,17,ihlot,notharmonic,nw,z,,,,,,,,,,,,,,,,,,,,,,,,,,,,,,,,,,,,,,
,,,,,,,,,,,683976,,001,2024-02-15_22h04.47.462,VH_new_version2,2023.2.3,Win32,59.88023952,65.0728,66.0734,66.0734,67.4404,m,0,1.3391,,1.3391,0,67.4404,68.4402,0,21,21,20,1,21,yoğuk,harmonic,nw,z,,,,,,,,,,,,,,,,,,,,,,,,,,,,,,,,,,,,,,
,,,,,,,,,,,683976,,001,2024-02-15_22h04.47.462,VH_new_version2,2023.2.3,Win32,59.88023952,68.4404,69.4465,69.4465,70.2458,z,1,0.7831,,0.7831,1,70.2458,71.2407,0,22,22,17,1,18,pilar,notharmonic,nw,z,,,,,,,,,,,,,,,,,,,,,,,,,,,,,,,,,,,,,,
,,,,,,,,,,,683976,,001,2024-02-15_22h04.47.462,VH_new_version2,2023.2.3,Win32,59.88023952,71.241,72.2303,72.2303,72.8906,z,1,0.6386,,0.6386,1,72.8906,73.8909,0,23,23,23,1,24,zarim,notharmonic,nw,z,,,,,,,,,,,,,,,,,,,,,,,,,,,,,,,,,,,,,,
,,,,,,,,,,,683976,,001,2024-02-15_22h04.47.462,VH_new_version2,2023.2.3,Win32,59.88023952,,,,,,,,,,,,,,,,,,,,,,,73.8911,75.0919,space,1.1709,,,,,,,,,,,,,,,,,,,,,,,,,,,,,,,,,,
,,,,,,,,,,,683976,,001,2024-02-15_22h04.47.462,VH_new_version2,2023.2.3,Win32,59.88023952,75.12,76.1085,,,,,,,,,,,,,,,,,,,,,,,,,,76.1086,76.8086,m,1,0.68,,76.8087,76.8097,,0,0,0,96,1,97,şehir,2981,135.4448,2608,0.2851,5,harmonic,1.75,5.131762336,m,w,,,,,,,
,,,,,,,,,,,683976,,001,2024-02-15_22h04.47.462,VH_new_version2,2023.2.3,Win32,59.88023952,76.8099,77.8089,,,,,,,,,,,,,,,,,,,,,,,,,,77.8089,78.5752,z,1,0.7527,,78.5752,78.5753,,0,1,1,153,1,154,uyko,,,,,4,harmonic,1.95,,z,nw,,,,,,,
,,,,,,,,,,,683976,,001,2024-02-15_22h04.47.462,VH_new_version2,2023.2.3,Win32,59.88023952,78.5756,79.5756,,,,,,,,,,,,,,,,,,,,,,,,,,79.5757,80.275,m,1,0.6855,,80.2751,80.2752,,0,2,2,72,1,73,uğur,787,35.7582,666,0.0728,4,harmonic,1.6,4.553375649,m,w,,,,,,,
,,,,,,,,,,,683976,,001,2024-02-15_22h04.47.462,VH_new_version2,2023.2.3,Win32,59.88023952,80.2754,81.2758,,,,,,,,,,,,,,,,,,,,,,,,,,81.2758,82.2926,z,1,0.9971,,82.2926,82.2927,,0,3,3,155,1,156,megi,,,,,4,harmonic,1.8,,z,nw,,,,,,,
,,,,,,,,,,,683976,,001,2024-02-15_22h04.47.462,VH_new_version2,2023.2.3,Win32,59.88023952,82.293,83.2922,,,,,,,,,,,,,,,,,,,,,,,,,,83.2922,84.209,m,1,0.8986,,84.2091,84.2092,,0,4,4,41,1,42,hayal,4498,204.3713,4079,0.4459,5,harmonic,1.45,5.310419907,m,w,,,,,,,
,,,,,,,,,,,683976,,001,2024-02-15_22h04.47.462,VH_new_version2,2023.2.3,Win32,59.88023952,84.2095,85.2093,,,,,,,,,,,,,,,,,,,,,,,,,,85.2093,85.9091,z,1,0.6924,,85.9091,85.9092,,0,5,5,200,1,201,tuzrak,,,,,6,harmonic,1.95,,z,nw,,,,,,,
,,,,,,,,,,,683976,,001,2024-02-15_22h04.47.462,VH_new_version2,2023.2.3,Win32,59.88023952,85.9094,86.9098,,,,,,,,,,,,,,,,,,,,,,,,,,86.9098,87.7267,z,1,0.806,,87.7268,87.7269,,0,6,6,207,1,208,dendek,,,,,6,harmonic,1.8,,z,nw,,,,,,,
,,,,,,,,,,,683976,,001,2024-02-15_22h04.47.462,VH_new_version2,2023.2.3,Win32,59.88023952,87.7271,88.7269,,,,,,,,,,,,,,,,,,,,,,,,,,88.7269,89.5106,z,1,0.7659,,89.5107,89.5108,,0,7,7,189,1,190,genek,,,,,5,harmonic,1.6,,z,nw,,,,,,,
,,,,,,,,,,,683976,,001,2024-02-15_22h04.47.462,VH_new_version2,2023.2.3,Win32,59.88023952,89.5111,90.5107,,,,,,,,,,,,,,,,,,,,,,,,,,90.5107,91.3107,m,1,0.7874,,91.3107,91.3109,,0,8,8,29,1,30,şarap,926,42.0738,787,0.086,5,harmonic,1.9,4.624011738,m,w,,,,,,,
,,,,,,,,,,,683976,,001,2024-02-15_22h04.47.462,VH_new_version2,2023.2.3,Win32,59.88023952,91.3111,92.3103,,,,,,,,,,,,,,,,,,,,,,,,,,92.3103,93.1277,z,1,0.807,,93.1277,93.1278,,0,9,9,238,1,239,labin,,,,,5,notharmonic,1.65,,z,nw,,,,,,,
,,,,,,,,,,,683976,,001,2024-02-15_22h04.47.462,VH_new_version2,2023.2.3,Win32,59.88023952,93.1281,94.1272,,,,,,,,,,,,,,,,,,,,,,,,,,94.1272,95.3282,m,1,1.1898,,95.3283,95.3283,,0,10,10,18,1,19,ülke,3121,141.8059,2801,0.3062,4,harmonic,1.65,5.151694301,m,w,,,,,,,
,,,,,,,,,,,683976,,001,2024-02-15_22h04.47.462,VH_new_version2,2023.2.3,Win32,59.88023952,95.3286,96.3284,,,,,,,,,,,,,,,,,,,,,,,,,,96.3285,97.2115,m,1,0.8629,,97.2115,97.2116,,0,11,11,74,1,75,çatı,469,21.3095,379,0.0414,4,harmonic,1,4.32857326,m,w,,,,,,,
,,,,,,,,,,,683976,,001,2024-02-15_22h04.47.462,VH_new_version2,2023.2.3,Win32,59.88023952,97.2119,98.2114,,,,,,,,,,,,,,,,,,,,,,,,,,98.2114,99.4285,m,1,1.2085,,99.4286,99.4287,,0,12,12,14,1,15,ocak,1685,76.5597,1548,0.1692,4,harmonic,1.9,4.884000223,m,w,,,,,,,
,,,,,,,,,,,683976,,001,2024-02-15_22h04.47.462,VH_new_version2,2023.2.3,Win32,59.88023952,99.4289,100.429,,,,,,,,,,,,,,,,,,,,,,,,,,100.429,101.3289,z,1,0.886,,101.3289,101.3291,,0,13,13,244,1,245,kimık,,,,,5,notharmonic,2,,z,nw,,,,,,,
,,,,,,,,,,,683976,,001,2024-02-15_22h04.47.462,VH_new_version2,2023.2.3,Win32,59.88023952,101.3294,102.3292,,,,,,,,,,,,,,,,,,,,,,,,,,102.3292,102.9785,z,1,0.6402,,102.9786,102.9787,,0,14,14,157,1,158,öşek,,,,,4,harmonic,1.7,,z,nw,,,,,,,
,,,,,,,,,,,683976,,001,2024-02-15_22h04.47.462,VH_new_version2,2023.2.3,Win32,59.88023952,102.9789,103.9795,,,,,,,,,,,,,,,,,,,,,,,,,,103.9795,104.5629,z,1,0.5639,,104.5631,104.5632,,0,15,15,224,1,225,faer,,,,,4,notharmonic,1.9,,z,nw,,,,,,,
,,,,,,,,,,,683976,,001,2024-02-15_22h04.47.462,VH_new_version2,2023.2.3,Win32,59.88023952,104.5635,105.5629,,,,,,,,,,,,,,,,,,,,,,,,,,105.5629,106.1298,m,1,0.5518,,106.1299,106.13,,0,16,16,57,1,58,bayram,1948,88.5094,1648,0.1802,6,harmonic,1.85,4.946989397,m,w,,,,,,,
,,,,,,,,,,,683976,,001,2024-02-15_22h04.47.462,VH_new_version2,2023.2.3,Win32,59.88023952,106.1303,107.13,,,,,,,,,,,,,,,,,,,,,,,,,,107.13,107.7798,m,1,0.6382,,107.7799,107.78,,0,17,17,42,1,43,şeker,4708,213.9128,4170,0.4559,5,harmonic,1.6,5.330236772,m,w,,,,,,,
,,,,,,,,,,,683976,,001,2024-02-15_22h04.47.462,VH_new_version2,2023.2.3,Win32,59.88023952,107.7802,108.7796,,,,,,,,,,,,,,,,,,,,,,,,,,108.7796,109.4465,m,1,0.6516,,109.4466,109.4466,,0,18,18,98,1,99,bilim,2828,128.4931,2382,0.2604,5,harmonic,1,5.108879807,m,w,,,,,,,
,,,,,,,,,,,683976,,001,2024-02-15_22h04.47.462,VH_new_version2,2023.2.3,Win32,59.88023952,109.447,110.4471,,,,,,,,,,,,,,,,,,,,,,,,,,110.4471,110.8799,m,1,0.4205,,110.88,110.8801,,0,19,19,141,1,142,fındık,865,39.3022,769,0.0841,6,harmonic,1.95,4.594416861,m,w,,,,,,,
,,,,,,,,,,,683976,,001,2024-02-15_22h04.47.462,VH_new_version2,2023.2.3,Win32,59.88023952,110.8804,111.8802,,,,,,,,,,,,,,,,,,,,,,,,,,111.8803,112.464,m,1,0.5646,,112.464,112.4641,,0,20,20,102,1,103,toplum,2562,116.4071,2249,0.2459,6,harmonic,1.65,5.06597947,m,w,,,,,,,
,,,,,,,,,,,683976,,001,2024-02-15_22h04.47.462,VH_new_version2,2023.2.3,Win32,59.88023952,112.4644,113.4644,,,,,,,,,,,,,,,,,,,,,,,,,,113.4645,113.8474,m,1,0.365,,113.8474,113.8475,,0,21,21,36,1,37,gönül,1786,81.1488,1676,0.1832,5,harmonic,1.8,4.909282102,m,w,,,,,,,
,,,,,,,,,,,683976,,001,2024-02-15_22h04.47.462,VH_new_version2,2023.2.3,Win32,59.88023952,113.8478,114.8472,,,,,,,,,,,,,,,,,,,,,,,,,,114.8472,115.2812,m,1,0.4211,,115.2812,115.2813,,0,22,22,125,1,126,bardak,1728,78.5135,1569,0.1715,6,harmonic,1.6,4.894944338,m,w,,,,,,,
,,,,,,,,,,,683976,,001,2024-02-15_22h04.47.462,VH_new_version2,2023.2.3,Win32,59.88023952,115.2816,116.2813,,,,,,,,,,,,,,,,,,,,,,,,,,116.2813,116.6815,m,1,0.3835,,116.6815,116.6816,,0,23,23,52,1,53,buğday,746,33.8953,623,0.0681,6,harmonic,1.9,4.530139482,m,w,,,,,,,
,,,,,,,,,,,683976,,001,2024-02-15_22h04.47.462,VH_new_version2,2023.2.3,Win32,59.88023952,116.682,117.681,,,,,,,,,,,,,,,,,,,,,,,,,,117.681,118.6484,z,1,0.9501,,118.6485,118.6486,,0,24,24,202,1,203,cehret,,,,,6,harmonic,1.85,,z,nw,,,,,,,
,,,,,,,,,,,683976,,001,2024-02-15_22h04.47.462,VH_new_version2,2023.2.3,Win32,59.88023952,118.649,119.6486,,,,,,,,,,,,,,,,,,,,,,,,,,119.6487,120.2977,z,1,0.642,,120.2977,120.2978,,0,25,25,253,1,254,mafke,,,,,5,notharmonic,1.9,,z,nw,,,,,,,
,,,,,,,,,,,683976,,001,2024-02-15_22h04.47.462,VH_new_version2,2023.2.3,Win32,59.88023952,120.298,121.2986,,,,,,,,,,,,,,,,,,,,,,,,,,121.2987,122.2154,m,1,0.9064,,122.2155,122.2156,,0,26,26,2,1,3,iğne,515,23.3996,455,0.0497,4,harmonic,1.65,4.369208434,m,w,,,,,,,
,,,,,,,,,,,683976,,001,2024-02-15_22h04.47.462,VH_new_version2,2023.2.3,Win32,59.88023952,122.2159,123.2156,,,,,,,,,,,,,,,,,,,,,,,,,,123.2156,124.7487,z,0,1.5145,,124.7487,124.7489,,0,27,27,79,1,80,erik,376,17.0839,335,0.0366,4,harmonic,1,4.232587021,m,w,,,,,,,
,,,,,,,,,,,683976,,001,2024-02-15_22h04.47.462,VH_new_version2,2023.2.3,Win32,59.88023952,124.7553,125.7496,,,,,,,,,,,,,,,,,,,,,,,,,,125.7496,126.4992,m,1,0.7402,,126.4992,126.4993,,0,28,28,25,1,26,orman,819,37.2121,705,0.0771,5,harmonic,1.3,4.570684179,m,w,,,,,,,
,,,,,,,,,,,683976,,001,2024-02-15_22h04.47.462,VH_new_version2,2023.2.3,Win32,59.88023952,126.4994,127.4996,,,,,,,,,,,,,,,,,,,,,,,,,,127.4997,128.3833,z,1,0.8679,,128.3833,128.3834,,0,29,29,252,1,253,canit,,,,,5,notharmonic,1.8,,z,nw,,,,,,,
,,,,,,,,,,,683976,,001,2024-02-15_22h04.47.462,VH_new_version2,2023.2.3,Win32,59.88023952,128.3837,129.3834,,,,,,,,,,,,,,,,,,,,,,,,,,129.3834,130.1161,z,1,0.7245,,130.1162,130.1162,,0,30,30,160,1,161,ünte,,,,,4,harmonic,1.65,,z,nw,,,,,,,
,,,,,,,,,,,683976,,001,2024-02-15_22h04.47.462,VH_new_version2,2023.2.3,Win32,59.88023952,130.1164,131.1168,,,,,,,,,,,,,,,,,,,,,,,,,,131.1168,131.9168,m,1,0.7817,,131.9168,131.917,,0,31,31,89,1,90,sonuç,3768,171.203,3626,0.3964,5,harmonic,1.8,5.233511371,m,w,,,,,,,
,,,,,,,,,,,683976,,001,2024-02-15_22h04.47.462,VH_new_version2,2023.2.3,Win32,59.88023952,131.9173,132.9171,,,,,,,,,,,,,,,,,,,,,,,,,,132.9171,133.4672,m,1,0.5402,,133.4672,133.4673,,0,32,32,109,1,110,ürün,2268,103.0489,1954,0.2136,4,harmonic,1.1,5.01304336,m,w,,,,,,,
,,,,,,,,,,,683976,,001,2024-02-15_22h04.47.462,VH_new_version2,2023.2.3,Win32,59.88023952,133.4676,134.4672,,,,,,,,,,,,,,,,,,,,,,,,,,134.4673,135.1343,z,1,0.6576,,135.1343,135.1344,,0,33,33,251,1,252,madit,,,,,5,notharmonic,1.9,,z,nw,,,,,,,
,,,,,,,,,,,683976,,001,2024-02-15_22h04.47.462,VH_new_version2,2023.2.3,Win32,59.88023952,135.1346,136.1343,,,,,,,,,,,,,,,,,,,,,,,,,,136.1343,136.9506,m,1,0.8066,,136.9508,136.9508,,0,34,34,3,1,4,otuz,583,26.4892,556,0.0608,4,harmonic,1.45,4.423068842,m,w,,,,,,,
,,,,,,,,,,,683976,,001,2024-02-15_22h04.47.462,VH_new_version2,2023.2.3,Win32,59.88023952,136.9512,137.9514,,,,,,,,,,,,,,,,,,,,,,,,,,137.9514,138.4179,m,1,0.4513,,138.4179,138.4181,,0,35,35,54,1,55,elbise,883,40.12,786,0.0859,6,harmonic,1.9,4.603360924,m,w,,,,,,,
,,,,,,,,,,,683976,,001,2024-02-15_22h04.47.462,VH_new_version2,2023.2.3,Win32,59.88023952,138.4183,139.418,,,,,,,,,,,,,,,,,,,,,,,,,,139.418,140.0682,m,1,0.6354,,140.0682,140.0683,,0,36,36,69,1,70,yüksek,7909,359.3536,7119,0.7783,6,harmonic,1.7,5.555522,m,w,,,,,,,
,,,,,,,,,,,683976,,001,2024-02-15_22h04.47.462,VH_new_version2,2023.2.3,Win32,59.88023952,140.0686,141.0684,,,,,,,,,,,,,,,,,,,,,,,,,,141.0685,142.2023,z,1,1.1148,,142.2024,142.2025,,0,37,37,171,1,172,faraç,,,,,5,harmonic,1.75,,z,nw,,,,,,,
,,,,,,,,,,,683976,,001,2024-02-15_22h04.47.462,VH_new_version2,2023.2.3,Win32,59.88023952,142.2027,143.2021,,,,,,,,,,,,,,,,,,,,,,,,,,143.2021,143.8516,z,1,0.6381,,143.8516,143.8518,,0,38,38,258,1,259,ihati,,,,,5,notharmonic,1.95,,z,nw,,,,,,,
,,,,,,,,,,,683976,,001,2024-02-15_22h04.47.462,VH_new_version2,2023.2.3,Win32,59.88023952,143.8521,144.8518,,,,,,,,,,,,,,,,,,,,,,,,,,144.8518,145.702,m,0,0.8319,,145.702,145.7021,,0,39,39,237,1,238,masem,,,,,5,notharmonic,1.7,,z,nw,,,,,,,
,,,,,,,,,,,683976,,001,2024-02-15_22h04.47.462,VH_new_version2,2023.2.3,Win32,59.88023952,145.7024,146.7028,,,,,,,,,,,,,,,,,,,,,,,,,,146.7028,147.5021,z,1,0.7914,,147.5021,147.5022,,0,40,40,143,1,144,uçek,,,,,4,harmonic,1.85,,z,nw,,,,,,,
,,,,,,,,,,,683976,,001,2024-02-15_22h04.47.462,VH_new_version2,2023.2.3,Win32,59.88023952,147.5024,148.503,,,,,,,,,,,,,,,,,,,,,,,,,,148.5031,148.9857,m,1,0.4708,,148.9857,148.9859,,0,41,41,116,1,117,nokta,2085,94.7341,1939,0.212,5,harmonic,1.5,4.976506334,m,w,,,,,,,
,,,,,,,,,,,683976,,001,2024-02-15_22h04.47.462,VH_new_version2,2023.2.3,Win32,59.88023952,148.9863,149.9859,,,,,,,,,,,,,,,,,,,,,,,,,,149.9859,150.6863,z,1,0.6823,,150.6864,150.6865,,0,42,42,268,1,269,mucepi,,,,,6,notharmonic,2.85,,z,nw,,,,,,,
,,,,,,,,,,,683976,,001,2024-02-15_22h04.47.462,VH_new_version2,2023.2.3,Win32,59.88023952,150.6868,151.6862,,,,,,,,,,,,,,,,,,,,,,,,,,151.6862,152.2867,z,1,0.5817,,152.2868,152.2869,,0,43,43,159,1,160,daro,,,,,4,harmonic,1.7,,z,nw,,,,,,,
,,,,,,,,,,,683976,,001,2024-02-15_22h04.47.462,VH_new_version2,2023.2.3,Win32,59.88023952,152.2872,153.287,,,,,,,,,,,,,,,,,,,,,,,,,,153.287,153.8697,m,1,0.5742,,153.8697,153.8697,,0,44,44,115,1,116,doğu,2105,95.6429,1823,0.1993,4,harmonic,1.05,4.980652736,m,w,,,,,,,
,,,,,,,,,,,683976,,001,2024-02-15_22h04.47.462,VH_new_version2,2023.2.3,Win32,59.88023952,153.8699,154.8709,,,,,,,,,,,,,,,,,,,,,,,,,,154.8709,155.5545,m,1,0.6664,,155.5545,155.5546,,0,45,45,87,1,88,sevgi,3950,179.4723,3467,0.379,5,harmonic,1.65,5.253997428,m,w,,,,,,,
,,,,,,,,,,,683976,,001,2024-02-15_22h04.47.462,VH_new_version2,2023.2.3,Win32,59.88023952,155.5548,156.5544,,,,,,,,,,,,,,,,,,,,,,,,,,156.5544,157.2377,z,1,0.6655,,157.2377,157.2378,,0,46,46,212,1,213,yeryek,,,,,6,harmonic,1.9,,z,nw,,,,,,,
,,,,,,,,,,,683976,,001,2024-02-15_22h04.47.462,VH_new_version2,2023.2.3,Win32,59.88023952,157.2381,158.2377,,,,,,,,,,,,,,,,,,,,,,,,,,158.2378,158.7539,m,1,0.4989,,158.7539,158.754,,0,47,47,23,1,24,evet,12599,572.4486,11447,1.2514,4,harmonic,1.65,5.757736498,m,w,,,,,,,
,,,,,,,,,,,683976,,001,2024-02-15_22h04.47.462,VH_new_version2,2023.2.3,Win32,59.88023952,158.7543,159.754,,,,,,,,,,,,,,,,,,,,,,,,,,159.754,160.4377,z,1,0.6695,,160.4378,160.4379,,0,48,48,142,1,143,öbeh,,,,,4,harmonic,1.95,,z,nw,,,,,,,
,,,,,,,,,,,683976,,001,2024-02-15_22h04.47.462,VH_new_version2,2023.2.3,Win32,59.88023952,160.4381,161.4382,,,,,,,,,,,,,,,,,,,,,,,,,,161.4382,162.0885,m,1,0.6382,,162.0886,162.0887,,0,49,49,100,1,101,ekmek,2734,124.2221,2318,0.2534,5,harmonic,1.3,5.094198867,m,w,,,,,,,
,,,,,,,,,,,683976,,001,2024-02-15_22h04.47.462,VH_new_version2,2023.2.3,Win32,59.88023952,162.089,163.0887,,,,,,,,,,,,,,,,,,,,,,,,,,163.0887,163.9051,z,1,0.7968,,163.9052,163.9052,,0,50,50,199,1,200,bartam,,,,,6,harmonic,1.85,,z,nw,,,,,,,
,,,,,,,,,,,683976,,001,2024-02-15_22h04.47.462,VH_new_version2,2023.2.3,Win32,59.88023952,163.9055,164.9052,,,,,,,,,,,,,,,,,,,,,,,,,,164.9053,165.8889,z,1,0.9746,,165.8889,165.889,,0,51,51,246,1,247,masil,,,,,5,notharmonic,1.7,,z,nw,,,,,,,
,,,,,,,,,,,683976,,001,2024-02-15_22h04.47.462,VH_new_version2,2023.2.3,Win32,59.88023952,165.8893,166.8887,,,,,,,,,,,,,,,,,,,,,,,,,,166.8887,167.8553,z,1,0.9509,,167.8553,167.8555,,0,52,52,191,1,192,pedrek,,,,,6,harmonic,2,,z,nw,,,,,,,
,,,,,,,,,,,683976,,001,2024-02-15_22h04.47.462,VH_new_version2,2023.2.3,Win32,59.88023952,167.8557,168.8561,,,,,,,,,,,,,,,,,,,,,,,,,,168.8562,169.6897,z,1,0.818,,169.6897,169.6899,,0,53,53,161,1,162,mağa,,,,,4,harmonic,1.15,,z,nw,,,,,,,
,,,,,,,,,,,683976,,001,2024-02-15_22h04.47.462,VH_new_version2,2023.2.3,Win32,59.88023952,169.6901,170.6891,,,,,,,,,,,,,,,,,,,,,,,,,,170.6891,171.2892,z,1,0.583,,171.2892,171.2892,,0,54,54,278,1,279,avalün,,,,,6,notharmonic,2.2,,z,nw,,,,,,,
,,,,,,,,,,,683976,,001,2024-02-15_22h04.47.462,VH_new_version2,2023.2.3,Win32,59.88023952,171.2895,172.2901,,,,,,,,,,,,,,,,,,,,,,,,,,172.2901,173.0731,m,1,0.7737,,173.0731,173.0733,,0,55,55,97,1,98,nefes,2871,130.4469,2553,0.2791,5,harmonic,1.8,5.115433763,m,w,,,,,,,
,,,,,,,,,,,683976,,001,2024-02-15_22h04.47.462,VH_new_version2,2023.2.3,Win32,59.88023952,173.0736,174.0736,,,,,,,,,,,,,,,,,,,,,,,,,,174.0736,176.0734,,0,,,176.0734,176.0734,,0,56,56,184,1,185,nekir,,,,,5,harmonic,1.6,,z,nw,,,,,,,
,,,,,,,,,,,683976,,001,2024-02-15_22h04.47.462,VH_new_version2,2023.2.3,Win32,59.88023952,176.0736,177.0738,,,,,,,,,,,,,,,,,,,,,,,,,,177.0738,177.7567,m,1,0.6678,,177.7568,177.7568,,0,57,57,60,1,61,nefret,2429,110.3641,2115,0.2312,6,harmonic,1.8,5.042827826,m,w,,,,,,,
,,,,,,,,,,,683976,,001,2024-02-15_22h04.47.462,VH_new_version2,2023.2.3,Win32,59.88023952,177.7571,178.7575,,,,,,,,,,,,,,,,,,,,,,,,,,178.7575,179.5577,z,1,0.789,,179.5577,179.5578,,0,58,58,203,1,204,yağcır,,,,,6,harmonic,1.9,,z,nw,,,,,,,
,,,,,,,,,,,683976,,001,2024-02-15_22h04.47.462,VH_new_version2,2023.2.3,Win32,59.88023952,179.5581,180.5579,,,,,,,,,,,,,,,,,,,,,,,,,,180.558,181.074,m,1,0.4973,,181.0741,181.0741,,0,59,59,24,1,25,dokuz,802,36.4397,646,0.0706,5,harmonic,1.55,4.561574793,m,w,,,,,,,
,,,,,,,,,,,683976,,001,2024-02-15_22h04.47.462,VH_new_version2,2023.2.3,Win32,59.88023952,181.0744,182.0749,,,,,,,,,,,,,,,,,,,,,,,,,,182.0749,182.9244,z,1,0.8367,,182.9244,182.9245,,0,60,60,261,1,262,eksan,,,,,5,notharmonic,1.7,,z,nw,,,,,,,
,,,,,,,,,,,683976,,001,2024-02-15_22h04.47.462,VH_new_version2,2023.2.3,Win32,59.88023952,182.9247,183.9244,,,,,,,,,,,,,,,,,,,,,,,,,,183.9244,185.2254,z,1,1.2898,,185.2254,185.2255,,0,61,61,188,1,189,yahat,,,,,5,harmonic,1.8,,z,nw,,,,,,,
,,,,,,,,,,,683976,,001,2024-02-15_22h04.47.462,VH_new_version2,2023.2.3,Win32,59.88023952,185.2258,186.2254,,,,,,,,,,,,,,,,,,,,,,,,,,186.2254,186.7755,m,1,0.5306,,186.7755,186.7756,,0,62,62,85,1,86,güneş,4371,198.6009,3610,0.3946,5,harmonic,1.7,5.297981212,m,w,,,,,,,
,,,,,,,,,,,683976,,001,2024-02-15_22h04.47.462,VH_new_version2,2023.2.3,Win32,59.88023952,186.776,187.7756,,,,,,,,,,,,,,,,,,,,,,,,,,187.7757,188.2425,m,1,0.4557,,188.2426,188.2428,,0,63,63,93,1,94,olay,3415,155.1641,3179,0.3475,4,harmonic,1.5,5.190791247,m,w,,,,,,,
,,,,,,,,,,,683976,,001,2024-02-15_22h04.47.462,VH_new_version2,2023.2.3,Win32,59.88023952,188.243,189.2427,,,,,,,,,,,,,,,,,,,,,,,,,,189.2428,189.8595,m,1,0.5979,,189.8596,189.8596,,0,64,64,92,1,93,yarın,3440,156.3,3222,0.3522,5,harmonic,1,5.193958978,m,w,,,,,,,
,,,,,,,,,,,683976,,001,2024-02-15_22h04.47.462,VH_new_version2,2023.2.3,Win32,59.88023952,189.86,190.8588,,,,,,,,,,,,,,,,,,,,,,,,,,190.8589,191.6431,z,1,0.7654,,191.6431,191.6431,,0,65,65,254,1,255,hadir,,,,,5,notharmonic,1.4,,z,nw,,,,,,,
,,,,,,,,,,,683976,,001,2024-02-15_22h04.47.462,VH_new_version2,2023.2.3,Win32,59.88023952,191.6434,192.6432,,,,,,,,,,,,,,,,,,,,,,,,,,192.6432,193.526,z,1,0.8642,,193.526,193.5261,,0,66,66,226,1,227,şüda,,,,,4,notharmonic,1.9,,z,nw,,,,,,,
,,,,,,,,,,,683976,,001,2024-02-15_22h04.47.462,VH_new_version2,2023.2.3,Win32,59.88023952,193.5265,194.5266,,,,,,,,,,,,,,,,,,,,,,,,,,194.5267,195.2932,z,1,0.7491,,195.2932,195.2933,,0,67,67,231,1,232,babi,,,,,4,notharmonic,1.4,,z,nw,,,,,,,
,,,,,,,,,,,683976,,001,2024-02-15_22h04.47.462,VH_new_version2,2023.2.3,Win32,59.88023952,195.2936,196.2939,,,,,,,,,,,,,,,,,,,,,,,,,,196.294,196.9266,m,1,0.6235,,196.9266,196.9266,,0,68,68,66,1,67,tercih,4577,207.9607,4282,0.4681,6,harmonic,1.7,5.317981271,m,w,,,,,,,
,,,,,,,,,,,683976,,001,2024-02-15_22h04.47.462,VH_new_version2,2023.2.3,Win32,59.88023952,196.927,197.9273,,,,,,,,,,,,,,,,,,,,,,,,,,197.9273,198.5434,m,1,0.6009,,198.5434,198.5434,,0,69,69,136,1,137,tebrik,1117,50.7521,1102,0.1205,6,harmonic,1.85,4.705454017,m,w,,,,,,,
,,,,,,,,,,,683976,,001,2024-02-15_22h04.47.462,VH_new_version2,2023.2.3,Win32,59.88023952,198.5437,199.5443,,,,,,,,,,,,,,,,,,,,,,,,,,199.5443,200.161,z,1,0.597,,200.161,201.1944,space,0,70,70,163,1,164,küvü,,,,,4,harmonic,1.7,,z,nw,1.0152,,,,,,
,,,,,,,,,,,683976,,001,2024-02-15_22h04.47.462,VH_new_version2,2023.2.3,Win32,59.88023952,201.1947,202.1947,,,,,,,,,,,,,,,,,,,,,,,,,,202.1947,202.8115,m,1,0.6028,,202.8115,202.8116,,0,71,71,49,1,50,çeyrek,540,24.5355,477,0.0521,6,harmonic,1.9,4.389794913,m,w,,,,,,,
,,,,,,,,,,,683976,,001,2024-02-15_22h04.47.462,VH_new_version2,2023.2.3,Win32,59.88023952,202.8119,203.8117,,,,,,,,,,,,,,,,,,,,,,,,,,203.8118,204.2617,m,1,0.438,,204.2617,204.2618,,0,72,72,90,1,91,insan,3684,167.3864,3486,0.3811,5,harmonic,1.55,5.223720169,m,w,,,,,,,
,,,,,,,,,,,683976,,001,2024-02-15_22h04.47.462,VH_new_version2,2023.2.3,Win32,59.88023952,204.2621,205.2612,,,,,,,,,,,,,,,,,,,,,,,,,,205.2612,205.662,m,0,0.3841,,205.662,205.6621,,0,73,73,182,1,183,tesil,,,,,5,harmonic,1.45,,z,nw,,,,,,,
,,,,,,,,,,,683976,,001,2024-02-15_22h04.47.462,VH_new_version2,2023.2.3,Win32,59.88023952,205.6625,206.6619,,,,,,,,,,,,,,,,,,,,,,,,,,206.662,207.3453,z,1,0.6669,,207.3454,207.3454,,0,74,74,219,1,220,anel,,,,,4,notharmonic,1.7,,z,nw,,,,,,,
,,,,,,,,,,,683976,,001,2024-02-15_22h04.47.462,VH_new_version2,2023.2.3,Win32,59.88023952,207.3457,208.3454,,,,,,,,,,,,,,,,,,,,,,,,,,208.3454,209.0291,m,1,0.6648,,209.0292,209.0293,,0,75,75,5,1,6,üzüm,716,32.5322,588,0.0643,4,harmonic,1.45,4.512313434,m,w,,,,,,,
,,,,,,,,,,,683976,,001,2024-02-15_22h04.47.462,VH_new_version2,2023.2.3,Win32,59.88023952,209.0296,210.0292,,,,,,,,,,,,,,,,,,,,,,,,,,210.0293,210.5294,m,1,0.4827,,210.5294,210.5295,,0,76,76,99,1,100,altı,2782,126.403,2571,0.2811,4,harmonic,1,5.101757381,m,w,,,,,,,
,,,,,,,,,,,683976,,001,2024-02-15_22h04.47.462,VH_new_version2,2023.2.3,Win32,59.88023952,210.5298,211.5292,,,,,,,,,,,,,,,,,,,,,,,,,,211.5293,211.9454,m,0,0.4052,,211.9455,211.9455,,0,77,77,162,1,163,möre,,,,,4,harmonic,1.65,,z,nw,,,,,,,
,,,,,,,,,,,683976,,001,2024-02-15_22h04.47.462,VH_new_version2,2023.2.3,Win32,59.88023952,211.9459,212.9456,,,,,,,,,,,,,,,,,,,,,,,,,,212.9456,213.6295,z,1,0.6724,,213.6296,213.6296,,0,78,78,158,1,159,uzot,,,,,4,harmonic,1.9,,z,nw,,,,,,,
,,,,,,,,,,,683976,,001,2024-02-15_22h04.47.462,VH_new_version2,2023.2.3,Win32,59.88023952,213.63,214.6301,,,,,,,,,,,,,,,,,,,,,,,,,,214.6301,215.1633,z,1,0.5153,,215.1634,215.1634,,0,79,79,276,1,277,hiyake,,,,,6,notharmonic,2.25,,z,nw,,,,,,,
,,,,,,,,,,,683976,,001,2024-02-15_22h04.47.462,VH_new_version2,2023.2.3,Win32,59.88023952,215.1637,216.1633,,,,,,,,,,,,,,,,,,,,,,,,,,216.1633,216.8967,m,1,0.7149,,216.8968,216.8969,,0,80,80,75,1,76,dergi,657,29.8515,592,0.0647,5,harmonic,1.3,4.474966159,m,w,,,,,,,
,,,,,,,,,,,683976,,001,2024-02-15_22h04.47.462,VH_new_version2,2023.2.3,Win32,59.88023952,216.8972,217.897,,,,,,,,,,,,,,,,,,,,,,,,,,217.8971,218.4803,m,1,0.5713,,218.4804,218.4805,,0,81,81,62,1,63,kültür,2566,116.5889,2206,0.2412,6,harmonic,1.55,5.066657205,m,w,,,,,,,
,,,,,,,,,,,683976,,001,2024-02-15_22h04.47.462,VH_new_version2,2023.2.3,Win32,59.88023952,218.4808,219.4805,,,,,,,,,,,,,,,,,,,,,,,,,,219.4806,220.0141,m,1,0.5228,,220.0141,220.0143,,0,82,82,27,1,28,sekiz,872,39.6202,803,0.0878,5,harmonic,1.45,4.597916663,m,w,,,,,,,
,,,,,,,,,,,683976,,001,2024-02-15_22h04.47.462,VH_new_version2,2023.2.3,Win32,59.88023952,220.0146,221.0143,,,,,,,,,,,,,,,,,,,,,,,,,,221.0143,221.6644,z,1,0.6354,,221.6644,221.6645,,0,83,83,250,1,251,hapef,,,,,5,notharmonic,1.95,,z,nw,,,,,,,
,,,,,,,,,,,683976,,001,2024-02-15_22h04.47.462,VH_new_version2,2023.2.3,Win32,59.88023952,221.6648,222.6646,,,,,,,,,,,,,,,,,,,,,,,,,,222.6646,223.298,z,1,0.6235,,223.298,223.298,,0,84,84,267,1,268,tapare,,,,,6,notharmonic,1.95,,z,nw,,,,,,,
,,,,,,,,,,,683976,,001,2024-02-15_22h04.47.462,VH_new_version2,2023.2.3,Win32,59.88023952,223.2984,224.2979,,,,,,,,,,,,,,,,,,,,,,,,,,224.2979,224.9482,m,1,0.6317,,224.9482,224.9483,,0,85,85,45,1,46,akşam,7480,339.8615,6833,0.747,5,harmonic,1.6,5.53130197,m,w,,,,,,,
,,,,,,,,,,,683976,,001,2024-02-15_22h04.47.462,VH_new_version2,2023.2.3,Win32,59.88023952,224.9486,225.9483,,,,,,,,,,,,,,,,,,,,,,,,,,225.9484,226.5486,m,1,0.5894,,226.5486,226.5487,,0,86,86,81,1,82,hava,4975,226.0443,4398,0.4808,4,harmonic,1,5.35419356,m,w,,,,,,,
,,,,,,,,,,,683976,,001,2024-02-15_22h04.47.462,VH_new_version2,2023.2.3,Win32,59.88023952,226.549,227.5487,,,,,,,,,,,,,,,,,,,,,,,,,,227.5488,228.2651,z,1,0.6983,,228.2651,228.2652,,0,87,87,149,1,150,irgi,,,,,4,harmonic,1.8,,z,nw,,,,,,,
,,,,,,,,,,,683976,,001,2024-02-15_22h04.47.462,VH_new_version2,2023.2.3,Win32,59.88023952,228.2654,229.2652,,,,,,,,,,,,,,,,,,,,,,,,,,229.2652,229.9482,z,1,0.6689,,229.9482,229.9483,,0,88,88,147,1,148,üyöm,,,,,4,harmonic,1.95,,z,nw,,,,,,,
,,,,,,,,,,,683976,,001,2024-02-15_22h04.47.462,VH_new_version2,2023.2.3,Win32,59.88023952,229.9488,230.9492,,,,,,,,,,,,,,,,,,,,,,,,,,230.9492,231.6152,m,1,0.6556,,231.6152,231.6153,,0,89,89,68,1,69,devlet,5766,261.9842,4854,0.5306,6,harmonic,1.65,5.4182751,m,w,,,,,,,
,,,,,,,,,,,683976,,001,2024-02-15_22h04.47.462,VH_new_version2,2023.2.3,Win32,59.88023952,231.6156,232.6158,,,,,,,,,,,,,,,,,,,,,,,,,,232.6159,233.1996,m,1,0.5666,,233.1996,233.1997,,0,90,90,34,1,35,çorba,1674,76.0599,1513,0.1654,5,harmonic,1.75,4.88115575,m,w,,,,,,,
,,,,,,,,,,,683976,,001,2024-02-15_22h04.47.462,VH_new_version2,2023.2.3,Win32,59.88023952,233.1999,234.1995,,,,,,,,,,,,,,,,,,,,,,,,,,234.1996,235.0325,m,1,0.8138,,235.0325,235.0326,,0,91,91,82,1,83,oyun,4926,223.8179,3995,0.4367,4,harmonic,1,5.349894817,m,w,,,,,,,
,,,,,,,,,,,683976,,001,2024-02-15_22h04.47.462,VH_new_version2,2023.2.3,Win32,59.88023952,235.0327,236.0331,,,,,,,,,,,,,,,,,,,,,,,,,,236.0332,236.8833,z,1,0.841,,236.8833,236.8835,,0,92,92,205,1,206,hücmet,,,,,6,harmonic,1.85,,z,nw,,,,,,,
,,,,,,,,,,,683976,,001,2024-02-15_22h04.47.462,VH_new_version2,2023.2.3,Win32,59.88023952,236.8837,237.8836,,,,,,,,,,,,,,,,,,,,,,,,,,237.8836,238.5995,m,1,0.6996,,238.5996,238.5996,,0,93,93,130,1,131,başarı,1398,63.5196,1300,0.1421,6,harmonic,1.2,4.802907755,m,w,,,,,,,
,,,,,,,,,,,683976,,001,2024-02-15_22h04.47.462,VH_new_version2,2023.2.3,Win32,59.88023952,238.5999,239.5998,,,,,,,,,,,,,,,,,,,,,,,,,,239.5998,240.4668,z,1,0.8557,,240.4669,240.467,,0,94,94,148,1,149,aşıç,,,,,4,harmonic,1.65,,z,nw,,,,,,,
,,,,,,,,,,,683976,,001,2024-02-15_22h04.47.462,VH_new_version2,2023.2.3,Win32,59.88023952,240.4673,241.4674,,,,,,,,,,,,,,,,,,,,,,,,,,241.4674,242.2174,m,1,0.7348,,242.2174,242.2175,,0,95,95,70,1,71,gerçek,8983,408.1519,8058,0.8809,6,harmonic,1.7,5.610821823,m,w,,,,,,,
,,,,,,,,,,,683976,,001,2024-02-15_22h04.47.462,VH_new_version2,2023.2.3,Win32,59.88023952,242.2178,243.2177,,,,,,,,,,,,,,,,,,,,,,,,,,243.2177,244.2179,z,1,0.9823,,244.218,244.2181,,0,96,96,221,1,222,mane,,,,,4,notharmonic,1.4,,z,nw,,,,,,,
,,,,,,,,,,,683976,,001,2024-02-15_22h04.47.462,VH_new_version2,2023.2.3,Win32,59.88023952,244.2184,245.2179,,,,,,,,,,,,,,,,,,,,,,,,,,245.218,245.9016,m,1,0.6661,,245.9016,245.9017,,0,97,97,121,1,122,usta,1823,82.8299,1478,0.1616,4,harmonic,1.5,4.918187137,m,w,,,,,,,
,,,,,,,,,,,683976,,001,2024-02-15_22h04.47.462,VH_new_version2,2023.2.3,Win32,59.88023952,245.902,246.9015,,,,,,,,,,,,,,,,,,,,,,,,,,246.9016,247.6511,z,1,0.7324,,247.6512,247.6513,,0,98,98,232,1,233,leda,,,,,4,notharmonic,1.6,,z,nw,,,,,,,
,,,,,,,,,,,683976,,001,2024-02-15_22h04.47.462,VH_new_version2,2023.2.3,Win32,59.88023952,247.6515,248.652,,,,,,,,,,,,,,,,,,,,,,,,,,248.652,249.3686,m,1,0.6971,,249.3687,249.3687,,0,99,99,110,1,111,akıl,2208,100.3228,2004,0.2191,4,harmonic,1,5.001399645,m,w,,,,,,,
,,,,,,,,,,,683976,,001,2024-02-15_22h04.47.462,VH_new_version2,2023.2.3,Win32,59.88023952,249.369,250.3686,,,,,,,,,,,,,,,,,,,,,,,,,,250.3686,251.1189,z,1,0.7361,,251.1189,251.1191,,0,100,100,195,1,196,çoflak,,,,,6,harmonic,2,,z,nw,,,,,,,
,,,,,,,,,,,683976,,001,2024-02-15_22h04.47.462,VH_new_version2,2023.2.3,Win32,59.88023952,251.1193,252.1191,,,,,,,,,,,,,,,,,,,,,,,,,,252.1191,252.8525,z,1,0.7157,,252.8525,252.8525,,0,101,101,220,1,221,nica,,,,,4,notharmonic,1.75,,z,nw,,,,,,,
,,,,,,,,,,,683976,,001,2024-02-15_22h04.47.462,VH_new_version2,2023.2.3,Win32,59.88023952,252.8528,253.8521,,,,,,,,,,,,,,,,,,,,,,,,,,253.8521,254.5192,z,1,0.6522,,254.5192,254.5192,,0,102,102,210,1,211,bellet,,,,,6,harmonic,1.65,,z,nw,,,,,,,
,,,,,,,,,,,683976,,001,2024-02-15_22h04.47.462,VH_new_version2,2023.2.3,Win32,59.88023952,254.5196,255.5197,,,,,,,,,,,,,,,,,,,,,,,,,,255.5197,256.2531,z,1,0.716,,256.2531,256.2532,,0,103,103,185,1,186,birpi,,,,,5,harmonic,1.75,,z,nw,,,,,,,
,,,,,,,,,,,683976,,001,2024-02-15_22h04.47.462,VH_new_version2,2023.2.3,Win32,59.88023952,256.2536,257.253,,,,,,,,,,,,,,,,,,,,,,,,,,257.253,257.8364,z,1,0.5647,,257.8365,257.8365,,0,104,104,197,1,198,zemkin,,,,,6,harmonic,1.85,,z,nw,,,,,,,
,,,,,,,,,,,683976,,001,2024-02-15_22h04.47.462,VH_new_version2,2023.2.3,Win32,59.88023952,257.8368,258.8366,,,,,,,,,,,,,,,,,,,,,,,,,,258.8366,259.4867,z,1,0.6377,,259.4867,259.4868,,0,105,105,172,1,173,çatuk,,,,,5,harmonic,1.8,,z,nw,,,,,,,
,,,,,,,,,,,683976,,001,2024-02-15_22h04.47.462,VH_new_version2,2023.2.3,Win32,59.88023952,259.4871,260.4869,,,,,,,,,,,,,,,,,,,,,,,,,,260.4869,261.5207,m,1,1.0186,,261.5207,261.5209,,0,106,106,1,1,2,ufuk,437,19.8555,403,0.0441,4,harmonic,1.85,4.297880828,m,w,,,,,,,
,,,,,,,,,,,683976,,001,2024-02-15_22h04.47.462,VH_new_version2,2023.2.3,Win32,59.88023952,261.5211,262.5207,,,,,,,,,,,,,,,,,,,,,,,,,,262.5208,263.254,z,1,0.7233,,263.254,263.2541,,0,107,107,175,1,176,sakça,,,,,5,harmonic,1.55,,z,nw,,,,,,,
,,,,,,,,,,,683976,,001,2024-02-15_22h04.47.462,VH_new_version2,2023.2.3,Win32,59.88023952,263.2543,264.2536,,,,,,,,,,,,,,,,,,,,,,,,,,264.2537,264.9377,m,1,0.6693,,264.9377,264.9378,,0,108,108,73,1,74,gemi,629,28.5793,544,0.0595,4,harmonic,1.1,4.456051587,m,w,,,,,,,
,,,,,,,,,,,683976,,001,2024-02-15_22h04.47.462,VH_new_version2,2023.2.3,Win32,59.88023952,264.9381,265.9375,,,,,,,,,,,,,,,,,,,,,,,,,,265.9375,266.6713,z,1,0.7148,,266.6713,266.6714,,0,109,109,168,1,169,bovon,,,,,5,harmonic,2,,z,nw,,,,,,,
,,,,,,,,,,,683976,,001,2024-02-15_22h04.47.462,VH_new_version2,2023.2.3,Win32,59.88023952,266.6717,267.6716,,,,,,,,,,,,,,,,,,,,,,,,,,267.6716,268.3881,z,1,0.7039,,268.3882,268.3883,,0,110,110,180,1,181,finer,,,,,5,harmonic,1.65,,z,nw,,,,,,,
,,,,,,,,,,,683976,,001,2024-02-15_22h04.47.462,VH_new_version2,2023.2.3,Win32,59.88023952,268.3887,269.3884,,,,,,,,,,,,,,,,,,,,,,,,,,269.3885,270.3213,m,1,0.9233,,270.3214,270.3215,,0,111,111,33,1,34,sayfa,1655,75.1966,1502,0.1642,5,harmonic,1.45,4.876198204,m,w,,,,,,,
,,,,,,,,,,,683976,,001,2024-02-15_22h04.47.462,VH_new_version2,2023.2.3,Win32,59.88023952,270.3218,271.322,,,,,,,,,,,,,,,,,,,,,,,,,,271.322,271.9718,z,1,0.6312,,271.9718,271.9719,,0,112,112,280,1,281,icarar,,,,,6,notharmonic,2,,z,nw,,,,,,,
,,,,,,,,,,,683976,,001,2024-02-15_22h04.47.462,VH_new_version2,2023.2.3,Win32,59.88023952,271.9722,272.9717,,,,,,,,,,,,,,,,,,,,,,,,,,272.9717,273.6389,z,0,0.6535,,273.6389,273.6389,,0,113,113,19,1,20,baba,3645,165.6143,3131,0.3423,4,harmonic,1,5.219097833,m,w,,,,,,,
,,,,,,,,,,,683976,,001,2024-02-15_22h04.47.462,VH_new_version2,2023.2.3,Win32,59.88023952,273.6393,274.6393,,,,,,,,,,,,,,,,,,,,,,,,,,274.6394,275.272,m,1,0.6199,,275.272,275.2721,,0,114,114,83,1,84,şafak,616,27.9886,521,0.057,5,harmonic,1.8,4.446981175,m,w,,,,,,,
,,,,,,,,,,,683976,,001,2024-02-15_22h04.47.462,VH_new_version2,2023.2.3,Win32,59.88023952,275.2723,276.2724,,,,,,,,,,,,,,,,,,,,,,,,,,276.2724,276.7395,m,1,0.4474,,276.7396,276.7397,,0,115,115,101,1,102,okul,2685,121.9958,2381,0.2603,4,harmonic,1.35,5.086344879,m,w,,,,,,,
,,,,,,,,,,,683976,,001,2024-02-15_22h04.47.462,VH_new_version2,2023.2.3,Win32,59.88023952,276.74,277.7397,,,,,,,,,,,,,,,,,,,,,,,,,,277.7398,278.2732,m,1,0.5215,,278.2733,278.2734,,0,116,116,67,1,68,sosyal,5290,240.3566,4372,0.4779,6,harmonic,1.85,5.380856052,m,w,,,,,,,
,,,,,,,,,,,683976,,001,2024-02-15_22h04.47.462,VH_new_version2,2023.2.3,Win32,59.88023952,278.2736,279.2732,,,,,,,,,,,,,,,,,,,,,,,,,,279.2732,279.99,z,1,0.7013,,279.9901,279.9902,,0,117,117,208,1,209,terbiy,,,,,6,harmonic,1.9,,z,nw,,,,,,,
,,,,,,,,,,,683976,,001,2024-02-15_22h04.47.462,VH_new_version2,2023.2.3,Win32,59.88023952,279.9904,280.9902,,,,,,,,,,,,,,,,,,,,,,,,,,280.9902,281.7238,m,1,0.714,,281.7238,281.724,,0,118,118,103,1,104,resim,2506,113.8627,2188,0.2392,5,harmonic,1.4,5.056381478,m,w,,,,,,,
,,,,,,,,,,,683976,,001,2024-02-15_22h04.47.462,VH_new_version2,2023.2.3,Win32,59.88023952,281.7243,282.724,,,,,,,,,,,,,,,,,,,,,,,,,,282.7241,283.4243,m,1,0.6817,,283.4243,283.4244,,0,119,119,135,1,136,gündüz,1167,53.0239,1088,0.1189,6,harmonic,1.6,4.724471668,m,w,,,,,,,
,,,,,,,,,,,683976,,001,2024-02-15_22h04.47.462,VH_new_version2,2023.2.3,Win32,59.88023952,283.4246,284.4241,,,,,,,,,,,,,,,,,,,,,,,,,,284.4241,285.4408,m,1,1.0035,,285.4408,285.441,,0,120,120,13,1,14,kedi,1646,74.7877,1394,0.1524,4,harmonic,1.1,4.873830177,m,w,,,,,,,
,,,,,,,,,,,683976,,001,2024-02-15_22h04.47.462,VH_new_version2,2023.2.3,Win32,59.88023952,285.4412,286.4409,,,,,,,,,,,,,,,,,,,,,,,,,,286.4409,287.0405,m,1,0.5849,,287.0405,287.0405,,0,121,121,107,1,108,isim,2366,107.5017,2163,0.2365,4,harmonic,1,5.031415332,m,w,,,,,,,
,,,,,,,,,,,683976,,001,2024-02-15_22h04.47.462,VH_new_version2,2023.2.3,Win32,59.88023952,287.0408,288.0411,,,,,,,,,,,,,,,,,,,,,,,,,,288.0412,289.008,m,1,0.9561,,289.008,289.0082,,0,122,122,31,1,32,pembe,1549,70.3804,1327,0.1451,5,harmonic,2,4.847451731,m,w,,,,,,,
,,,,,,,,,,,683976,,001,2024-02-15_22h04.47.462,VH_new_version2,2023.2.3,Win32,59.88023952,289.0083,290.0084,,,,,,,,,,,,,,,,,,,,,,,,,,290.0084,290.9075,m,1,0.891,,290.9075,290.9076,,0,123,123,127,1,128,kaynak,1577,71.6526,1481,0.1619,6,harmonic,1.4,4.855231954,m,w,,,,,,,
,,,,,,,,,,,683976,,001,2024-02-15_22h04.47.462,VH_new_version2,2023.2.3,Win32,59.88023952,290.9078,291.9087,,,,,,,,,,,,,,,,,,,,,,,,,,291.9087,292.6919,z,1,0.7708,,292.6919,292.6921,,0,124,124,164,1,165,üdel,,,,,4,harmonic,1.95,,z,nw,,,,,,,
,,,,,,,,,,,683976,,001,2024-02-15_22h04.47.462,VH_new_version2,2023.2.3,Win32,59.88023952,292.6923,293.6923,,,,,,,,,,,,,,,,,,,,,,,,,,293.6923,294.2587,m,0,0.5566,,294.2588,294.2589,,0,125,125,204,1,205,kürfür,,,,,6,harmonic,1.95,,z,nw,,,,,,,
,,,,,,,,,,,683976,,001,2024-02-15_22h04.47.462,VH_new_version2,2023.2.3,Win32,59.88023952,294.2592,295.2593,,,,,,,,,,,,,,,,,,,,,,,,,,295.2593,295.7924,m,1,0.5246,,295.7924,295.7924,,0,126,126,108,1,109,hayvan,2363,107.3653,1894,0.2071,6,harmonic,1.5,5.030863942,m,w,,,,,,,
,,,,,,,,,,,683976,,001,2024-02-15_22h04.47.462,VH_new_version2,2023.2.3,Win32,59.88023952,295.7928,296.7927,,,,,,,,,,,,,,,,,,,,,,,,,,296.7927,297.4093,z,1,0.5976,,297.4093,297.4094,,0,127,127,240,1,241,makek,,,,,5,notharmonic,1.9,,z,nw,,,,,,,
,,,,,,,,,,,683976,,001,2024-02-15_22h04.47.462,VH_new_version2,2023.2.3,Win32,59.88023952,297.4098,298.4097,,,,,,,,,,,,,,,,,,,,,,,,,,298.4097,299.2598,z,1,0.8338,,299.2598,299.2599,,0,128,128,206,1,207,teşcik,,,,,6,harmonic,1.9,,z,nw,,,,,,,
,,,,,,,,,,,683976,,001,2024-02-15_22h04.47.462,VH_new_version2,2023.2.3,Win32,59.88023952,299.2602,300.2599,,,,,,,,,,,,,,,,,,,,,,,,,,300.2599,300.8098,m,1,0.5305,,300.8098,300.8099,,0,129,129,112,1,113,kelime,2185,99.2777,1971,0.2155,6,harmonic,1.25,4.996851707,m,w,,,,,,,
,,,,,,,,,,,683976,,001,2024-02-15_22h04.47.462,VH_new_version2,2023.2.3,Win32,59.88023952,300.8102,301.8095,,,,,,,,,,,,,,,,,,,,,,,,,,301.8095,302.4934,z,1,0.6749,,302.4934,302.4935,,0,130,130,281,1,282,tashin,,,,,6,notharmonic,1.85,,z,nw,,,,,,,
,,,,,,,,,,,683976,,001,2024-02-15_22h04.47.462,VH_new_version2,2023.2.3,Win32,59.88023952,302.4939,303.4932,,,,,,,,,,,,,,,,,,,,,,,,,,303.4932,304.277,z,1,0.767,,304.277,304.2771,,0,131,131,259,1,260,kiyaf,,,,,5,notharmonic,1.95,,z,nw,,,,,,,
,,,,,,,,,,,683976,,001,2024-02-15_22h04.47.462,VH_new_version2,2023.2.3,Win32,59.88023952,304.2774,305.2771,,,,,,,,,,,,,,,,,,,,,,,,,,305.2772,305.8108,z,1,0.5181,,305.8108,305.8109,,0,132,132,279,1,280,tevaha,,,,,6,notharmonic,2,,z,nw,,,,,,,
,,,,,,,,,,,683976,,001,2024-02-15_22h04.47.462,VH_new_version2,2023.2.3,Win32,59.88023952,305.8112,306.8102,,,,,,,,,,,,,,,,,,,,,,,,,,306.8103,307.4776,m,1,0.6573,,307.4776,307.4778,,0,133,133,12,1,13,ağaç,1245,56.5679,1082,0.1183,4,harmonic,1.6,4.752570056,m,w,,,,,,,
,,,,,,,,,,,683976,,001,2024-02-15_22h04.47.462,VH_new_version2,2023.2.3,Win32,59.88023952,307.4781,308.4777,,,,,,,,,,,,,,,,,,,,,,,,,,308.4777,309.1604,z,1,0.6755,,309.1604,309.1604,,0,134,134,186,1,187,erbik,,,,,5,harmonic,1.75,,z,nw,,,,,,,
,,,,,,,,,,,683976,,001,2024-02-15_22h04.47.462,VH_new_version2,2023.2.3,Win32,59.88023952,309.1606,310.1612,,,,,,,,,,,,,,,,,,,,,,,,,,310.1613,310.8783,m,1,0.6977,,310.8783,310.8784,,0,135,135,131,1,132,doğa,1381,62.7472,1180,0.129,4,harmonic,1,4.797594351,m,w,,,,,,,
,,,,,,,,,,,683976,,001,2024-02-15_22h04.47.462,VH_new_version2,2023.2.3,Win32,59.88023952,310.8787,311.8783,,,,,,,,,,,,,,,,,,,,,,,,,,311.8783,312.7282,z,1,0.8411,,312.7283,312.7283,,0,136,136,236,1,237,alte,,,,,4,notharmonic,1.7,,z,nw,,,,,,,
,,,,,,,,,,,683976,,001,2024-02-15_22h04.47.462,VH_new_version2,2023.2.3,Win32,59.88023952,312.7287,313.7279,,,,,,,,,,,,,,,,,,,,,,,,,,313.728,314.412,m,1,0.6724,,314.4121,314.4123,,0,137,137,22,1,23,özel,9726,441.9109,8559,0.9357,4,harmonic,1.35,5.645334714,m,w,,,,,,,
,,,,,,,,,,,683976,,001,2024-02-15_22h04.47.462,VH_new_version2,2023.2.3,Win32,59.88023952,314.4126,315.4122,,,,,,,,,,,,,,,,,,,,,,,,,,315.4122,316.1452,z,1,0.7182,,316.1452,316.1453,,0,138,138,169,1,170,senez,,,,,5,harmonic,1.65,,z,nw,,,,,,,
,,,,,,,,,,,683976,,001,2024-02-15_22h04.47.462,VH_new_version2,2023.2.3,Win32,59.88023952,316.1456,317.1452,,,,,,,,,,,,,,,,,,,,,,,,,,317.1453,317.7954,z,1,0.641,,317.7955,317.7956,,0,139,139,273,1,274,kalkeş,,,,,6,notharmonic,1.85,,z,nw,,,,,,,
,,,,,,,,,,,683976,,001,2024-02-15_22h04.47.462,VH_new_version2,2023.2.3,Win32,59.88023952,317.7958,318.7953,,,,,,,,,,,,,,,,,,,,,,,,,,318.7954,319.4626,m,1,0.6514,,319.4626,319.4628,,0,140,140,133,1,134,parmak,1268,57.6129,1165,0.1274,6,harmonic,1.75,4.760519736,m,w,,,,,,,
,,,,,,,,,,,683976,,001,2024-02-15_22h04.47.462,VH_new_version2,2023.2.3,Win32,59.88023952,319.4631,320.4631,,,,,,,,,,,,,,,,,,,,,,,,,,320.4632,321.0959,m,1,0.6231,,321.0959,322.0792,space,0,141,141,77,1,78,çanta,639,29.0336,551,0.0602,5,harmonic,1.6,4.462900889,m,w,0.9773,,,,,,
,,,,,,,,,,,683976,,001,2024-02-15_22h04.47.462,VH_new_version2,2023.2.3,Win32,59.88023952,322.0794,323.0796,,,,,,,,,,,,,,,,,,,,,,,,,,323.0796,323.8128,z,1,0.7158,,323.8128,323.8129,,0,142,142,177,1,178,akapı,,,,,5,harmonic,1.8,,z,nw,,,,,,,
,,,,,,,,,,,683976,,001,2024-02-15_22h04.47.462,VH_new_version2,2023.2.3,Win32,59.88023952,323.8131,324.8136,,,,,,,,,,,,,,,,,,,,,,,,,,324.8136,325.4469,m,1,0.6226,,325.447,325.447,,0,143,143,64,1,65,teknik,3297,149.8026,2798,0.3059,6,harmonic,1.9,5.175519351,m,w,,,,,,,
,,,,,,,,,,,683976,,001,2024-02-15_22h04.47.462,VH_new_version2,2023.2.3,Win32,59.88023952,325.4474,326.4472,,,,,,,,,,,,,,,,,,,,,,,,,,326.4472,326.8132,m,1,0.3475,,326.8132,326.8135,,0,144,144,32,1,33,güney,1639,74.4697,1439,0.1573,5,harmonic,1.65,4.871979604,m,w,,,,,,,
,,,,,,,,,,,683976,,001,2024-02-15_22h04.47.462,VH_new_version2,2023.2.3,Win32,59.88023952,326.8138,327.8134,,,,,,,,,,,,,,,,,,,,,,,,,,327.8134,328.2804,m,1,0.4505,,328.2804,328.2806,,0,145,145,38,1,39,fikir,2552,115.9528,2413,0.2638,5,harmonic,1.9,5.06428124,m,w,,,,,,,
,,,,,,,,,,,683976,,001,2024-02-15_22h04.47.462,VH_new_version2,2023.2.3,Win32,59.88023952,328.2808,329.2811,,,,,,,,,,,,,,,,,,,,,,,,,,329.2811,329.7812,m,1,0.4809,,329.7813,329.7814,,0,146,146,56,1,57,meslek,1082,49.1618,976,0.1067,6,harmonic,1.9,4.691627776,m,w,,,,,,,
,,,,,,,,,,,683976,,001,2024-02-15_22h04.47.462,VH_new_version2,2023.2.3,Win32,59.88023952,329.7817,330.7813,,,,,,,,,,,,,,,,,,,,,,,,,,330.7814,331.2475,m,1,0.4494,,331.2476,331.2477,,0,147,147,71,1,72,boya,918,41.7103,799,0.0873,4,harmonic,1,4.620243314,m,w,,,,,,,
,,,,,,,,,,,683976,,001,2024-02-15_22h04.47.462,VH_new_version2,2023.2.3,Win32,59.88023952,331.2479,332.2473,,,,,,,,,,,,,,,,,,,,,,,,,,332.2473,332.6151,m,0,0.3486,,332.6151,332.6152,,0,148,148,173,1,174,pirbe,,,,,5,harmonic,1.9,,z,nw,,,,,,,
,,,,,,,,,,,683976,,001,2024-02-15_22h04.47.462,VH_new_version2,2023.2.3,Win32,59.88023952,332.6154,333.6143,,,,,,,,,,,,,,,,,,,,,,,,,,333.6144,334.1312,m,1,0.4978,,334.1312,334.1313,,0,149,149,58,1,59,toprak,1989,90.3723,1762,0.1926,6,harmonic,1.9,4.956035335,m,w,,,,,,,
,,,,,,,,,,,683976,,001,2024-02-15_22h04.47.462,VH_new_version2,2023.2.3,Win32,59.88023952,334.1316,335.1314,,,,,,,,,,,,,,,,,,,,,,,,,,335.1315,335.6655,m,1,0.5146,,335.6655,335.6656,,0,150,150,37,1,38,cümle,1911,86.8283,1765,0.193,5,harmonic,1.85,4.938661298,m,w,,,,,,,
,,,,,,,,,,,683976,,001,2024-02-15_22h04.47.462,VH_new_version2,2023.2.3,Win32,59.88023952,335.666,336.6655,,,,,,,,,,,,,,,,,,,,,,,,,,336.6655,337.1487,m,1,0.4741,,337.1488,337.1489,,0,151,151,88,1,89,yorum,3801,172.7024,3473,0.3797,5,harmonic,1.1,5.237298373,m,w,,,,,,,
,,,,,,,,,,,683976,,001,2024-02-15_22h04.47.462,VH_new_version2,2023.2.3,Win32,59.88023952,337.1491,338.1491,,,,,,,,,,,,,,,,,,,,,,,,,,338.1492,338.5325,m,1,0.371,,338.5325,338.5326,,0,152,152,8,1,9,ağız,824,37.4393,758,0.0829,4,harmonic,1.2,4.57332772,m,w,,,,,,,
,,,,,,,,,,,683976,,001,2024-02-15_22h04.47.462,VH_new_version2,2023.2.3,Win32,59.88023952,338.5331,339.5328,,,,,,,,,,,,,,,,,,,,,,,,,,339.5329,339.932,m,1,0.3905,,339.9321,339.9321,,0,153,153,47,1,48,yemek,9626,437.3673,8311,0.9086,5,harmonic,1.35,5.64084631,m,w,,,,,,,
,,,,,,,,,,,683976,,001,2024-02-15_22h04.47.462,VH_new_version2,2023.2.3,Win32,59.88023952,339.9323,340.933,,,,,,,,,,,,,,,,,,,,,,,,,,340.933,341.2995,m,0,0.3541,,341.2996,341.2996,,0,154,154,214,1,215,dera,,,,,4,notharmonic,1.2,,z,nw,,,,,,,
,,,,,,,,,,,683976,,001,2024-02-15_22h04.47.462,VH_new_version2,2023.2.3,Win32,59.88023952,341.2999,342.2998,,,,,,,,,,,,,,,,,,,,,,,,,,342.2999,342.7998,z,1,0.4815,,342.7999,342.8001,,0,155,155,174,1,175,güzeh,,,,,5,harmonic,1.85,,z,nw,,,,,,,
,,,,,,,,,,,683976,,001,2024-02-15_22h04.47.462,VH_new_version2,2023.2.3,Win32,59.88023952,342.8004,343.7992,,,,,,,,,,,,,,,,,,,,,,,,,,343.7992,344.4002,z,1,0.5877,,344.4003,344.4003,,0,156,156,215,1,216,zali,,,,,4,notharmonic,1.25,,z,nw,,,,,,,
,,,,,,,,,,,683976,,001,2024-02-15_22h04.47.462,VH_new_version2,2023.2.3,Win32,59.88023952,344.4006,345.3999,,,,,,,,,,,,,,,,,,,,,,,,,,345.3999,345.8668,z,0,0.4506,,345.8668,345.8669,,0,157,157,118,1,119,fırsat,1952,88.6911,1863,0.2037,6,harmonic,1.85,4.947880041,m,w,,,,,,,
,,,,,,,,,,,683976,,001,2024-02-15_22h04.47.462,VH_new_version2,2023.2.3,Win32,59.88023952,345.8672,346.8664,,,,,,,,,,,,,,,,,,,,,,,,,,346.8664,347.5337,z,1,0.6522,,347.5337,347.5338,,0,158,158,170,1,171,telen,,,,,5,harmonic,1.15,,z,nw,,,,,,,
,,,,,,,,,,,683976,,001,2024-02-15_22h04.47.462,VH_new_version2,2023.2.3,Win32,59.88023952,347.5341,348.534,,,,,,,,,,,,,,,,,,,,,,,,,,348.534,349.1008,m,1,0.5501,,349.1008,349.101,,0,159,159,129,1,130,peynir,1421,64.5646,1248,0.1364,6,harmonic,1.9,4.809994465,m,w,,,,,,,
,,,,,,,,,,,683976,,001,2024-02-15_22h04.47.462,VH_new_version2,2023.2.3,Win32,59.88023952,349.1011,350.1003,,,,,,,,,,,,,,,,,,,,,,,,,,350.1003,350.6343,m,1,0.522,,350.6343,350.6344,,0,160,160,95,1,96,sanat,3121,141.8059,2485,0.2717,5,harmonic,1.4,5.151694301,m,w,,,,,,,
,,,,,,,,,,,683976,,001,2024-02-15_22h04.47.462,VH_new_version2,2023.2.3,Win32,59.88023952,350.6347,351.6342,,,,,,,,,,,,,,,,,,,,,,,,,,351.6342,352.0673,m,1,0.4174,,352.0673,352.0674,,0,161,161,48,1,49,çocuk,10612,482.1672,8979,0.9816,5,harmonic,1.75,5.683197664,m,w,,,,,,,
,,,,,,,,,,,683976,,001,2024-02-15_22h04.47.462,VH_new_version2,2023.2.3,Win32,59.88023952,352.0676,353.0682,,,,,,,,,,,,,,,,,,,,,,,,,,353.0682,353.7009,z,1,0.6233,,353.7009,353.7009,,0,162,162,146,1,147,öğne,,,,,4,harmonic,1.7,,z,nw,,,,,,,
,,,,,,,,,,,683976,,001,2024-02-15_22h04.47.462,VH_new_version2,2023.2.3,Win32,59.88023952,353.7011,354.701,,,,,,,,,,,,,,,,,,,,,,,,,,354.701,355.3015,m,1,0.5883,,355.3015,355.3015,,0,163,163,80,1,81,ahlak,641,29.1245,543,0.0594,5,harmonic,1.35,4.464258478,m,w,,,,,,,
,,,,,,,,,,,683976,,001,2024-02-15_22h04.47.462,VH_new_version2,2023.2.3,Win32,59.88023952,355.3019,356.3012,,,,,,,,,,,,,,,,,,,,,,,,,,356.3012,357.0355,z,1,0.7151,,357.0356,357.0356,,0,164,164,271,1,272,yakele,,,,,6,notharmonic,2,,z,nw,,,,,,,
,,,,,,,,,,,683976,,001,2024-02-15_22h04.47.462,VH_new_version2,2023.2.3,Win32,59.88023952,357.036,358.035,,,,,,,,,,,,,,,,,,,,,,,,,,358.0351,358.5854,z,0,0.5366,,358.5854,358.5856,,0,165,165,17,1,18,sarı,2072,94.1435,1838,0.2009,4,harmonic,1,4.97379034,m,w,,,,,,,
,,,,,,,,,,,683976,,001,2024-02-15_22h04.47.462,VH_new_version2,2023.2.3,Win32,59.88023952,358.5858,359.585,,,,,,,,,,,,,,,,,,,,,,,,,,359.585,360.352,z,1,0.7579,,360.352,360.3521,,0,166,166,187,1,188,ahfam,,,,,5,harmonic,1.85,,z,nw,,,,,,,
,,,,,,,,,,,683976,,001,2024-02-15_22h04.47.462,VH_new_version2,2023.2.3,Win32,59.88023952,360.3525,361.3518,,,,,,,,,,,,,,,,,,,,,,,,,,361.3518,362.1356,z,1,0.7646,,362.1357,362.1357,,0,167,167,235,1,236,mate,,,,,4,notharmonic,1.65,,z,nw,,,,,,,
,,,,,,,,,,,683976,,001,2024-02-15_22h04.47.462,VH_new_version2,2023.2.3,Win32,59.88023952,362.136,363.1356,,,,,,,,,,,,,,,,,,,,,,,,,,363.1356,363.8061,z,1,0.6498,,363.8061,363.8062,,0,168,168,262,1,263,barali,,,,,6,notharmonic,1.95,,z,nw,,,,,,,
,,,,,,,,,,,683976,,001,2024-02-15_22h04.47.462,VH_new_version2,2023.2.3,Win32,59.88023952,363.8063,364.8024,,,,,,,,,,,,,,,,,,,,,,,,,,364.8025,365.4194,z,1,0.5965,,365.4194,365.4196,,0,169,169,282,1,283,daketi,,,,,6,notharmonic,1.8,,z,nw,,,,,,,
,,,,,,,,,,,683976,,001,2024-02-15_22h04.47.462,VH_new_version2,2023.2.3,Win32,59.88023952,365.4198,366.4193,,,,,,,,,,,,,,,,,,,,,,,,,,366.4194,367.2861,m,1,0.856,,367.2861,367.2863,,0,170,170,44,1,45,erkek,6188,281.1582,5195,0.5679,5,harmonic,1.55,5.448950754,m,w,,,,,,,
,,,,,,,,,,,683976,,001,2024-02-15_22h04.47.462,VH_new_version2,2023.2.3,Win32,59.88023952,367.2866,368.2863,,,,,,,,,,,,,,,,,,,,,,,,,,368.2863,369.0533,m,1,0.7477,,369.0534,369.0535,,0,171,171,40,1,41,temel,4231,192.2399,3851,0.421,5,harmonic,1.55,5.283843532,m,w,,,,,,,
,,,,,,,,,,,683976,,001,2024-02-15_22h04.47.462,VH_new_version2,2023.2.3,Win32,59.88023952,369.0538,370.0536,,,,,,,,,,,,,,,,,,,,,,,,,,370.0536,370.8534,m,1,0.7794,,370.8535,370.8535,,0,172,172,132,1,133,abla,1287,58.4762,1156,0.1264,4,harmonic,1,4.766979143,m,w,,,,,,,
,,,,,,,,,,,683976,,001,2024-02-15_22h04.47.462,VH_new_version2,2023.2.3,Win32,59.88023952,370.8538,371.8543,,,,,,,,,,,,,,,,,,,,,,,,,,371.8544,372.5876,m,1,0.7167,,372.5877,372.5878,,0,173,173,124,1,125,sultan,1756,79.7857,1368,0.1496,6,harmonic,1.55,4.90192506,m,w,,,,,,,
,,,,,,,,,,,683976,,001,2024-02-15_22h04.47.462,VH_new_version2,2023.2.3,Win32,59.88023952,372.5881,373.588,,,,,,,,,,,,,,,,,,,,,,,,,,373.588,374.4213,z,1,0.8148,,374.4214,374.4215,,0,174,174,255,1,256,resap,,,,,5,notharmonic,1.9,,z,nw,,,,,,,
,,,,,,,,,,,683976,,001,2024-02-15_22h04.47.462,VH_new_version2,2023.2.3,Win32,59.88023952,374.4218,375.4216,,,,,,,,,,,,,,,,,,,,,,,,,,375.4216,376.5211,m,1,1.0812,,376.5212,376.5212,,0,175,175,119,1,120,cuma,1941,88.1913,1774,0.1939,4,harmonic,1.3,4.945425744,m,w,,,,,,,
,,,,,,,,,,,683976,,001,2024-02-15_22h04.47.462,VH_new_version2,2023.2.3,Win32,59.88023952,376.5216,377.5218,,,,,,,,,,,,,,,,,,,,,,,,,,377.5219,378.2887,m,1,0.7498,,378.2887,378.2888,,0,176,176,10,1,11,eser,958,43.5277,892,0.0975,4,harmonic,1,4.63876572,m,w,,,,,,,
,,,,,,,,,,,683976,,001,2024-02-15_22h04.47.462,VH_new_version2,2023.2.3,Win32,59.88023952,378.2892,379.288,,,,,,,,,,,,,,,,,,,,,,,,,,379.288,379.7547,m,1,0.4495,,379.7547,379.7548,,0,177,177,122,1,123,kapı,1792,81.4214,1566,0.1712,4,harmonic,1,4.910738566,m,w,,,,,,,
,,,,,,,,,,,683976,,001,2024-02-15_22h04.47.462,VH_new_version2,2023.2.3,Win32,59.88023952,379.755,380.7549,,,,,,,,,,,,,,,,,,,,,,,,,,380.7549,381.255,m,1,0.4906,,381.255,381.255,,0,178,178,65,1,66,destek,3328,151.2111,3065,0.3351,6,harmonic,1.85,5.179583673,m,w,,,,,,,
,,,,,,,,,,,683976,,001,2024-02-15_22h04.47.462,VH_new_version2,2023.2.3,Win32,59.88023952,381.2553,382.2551,,,,,,,,,,,,,,,,,,,,,,,,,,382.2551,382.7056,m,1,0.4331,,382.7056,382.7057,,0,179,179,20,1,21,süre,8679,394.3393,8119,0.8876,4,harmonic,1,5.595870061,m,w,,,,,,,
,,,,,,,,,,,683976,,001,2024-02-15_22h04.47.462,VH_new_version2,2023.2.3,Win32,59.88023952,382.7059,383.7053,,,,,,,,,,,,,,,,,,,,,,,,,,383.7053,384.1555,m,1,0.4308,,384.1556,384.1557,,0,180,180,84,1,85,eğitim,4784,217.366,3846,0.4204,6,harmonic,1.5,5.337191613,m,w,,,,,,,
,,,,,,,,,,,683976,,001,2024-02-15_22h04.47.462,VH_new_version2,2023.2.3,Win32,59.88023952,384.1559,385.1557,,,,,,,,,,,,,,,,,,,,,,,,,,385.1557,385.389,m,0,0.2181,,385.389,385.389,,0,181,181,256,1,257,betaş,,,,,5,notharmonic,1.85,,z,nw,,,,,,,
,,,,,,,,,,,683976,,001,2024-02-15_22h04.47.462,VH_new_version2,2023.2.3,Win32,59.88023952,385.3893,386.3893,,,,,,,,,,,,,,,,,,,,,,,,,,386.3893,387.1893,z,1,0.7915,,387.1893,387.1894,,0,182,182,225,1,226,elda,,,,,4,notharmonic,1.6,,z,nw,,,,,,,
,,,,,,,,,,,683976,,001,2024-02-15_22h04.47.462,VH_new_version2,2023.2.3,Win32,59.88023952,387.1895,388.1902,,,,,,,,,,,,,,,,,,,,,,,,,,388.1902,388.8229,m,1,0.6226,,388.8229,388.823,,0,183,183,43,1,44,bilgi,5981,271.7529,5353,0.5852,5,harmonic,1.5,5.434174187,m,w,,,,,,,
,,,,,,,,,,,683976,,001,2024-02-15_22h04.47.462,VH_new_version2,2023.2.3,Win32,59.88023952,388.8233,389.8229,,,,,,,,,,,,,,,,,,,,,,,,,,389.8229,390.5231,z,1,0.6826,,390.5231,390.5233,,0,184,184,194,1,195,bufsay,,,,,6,harmonic,2.6,,z,nw,,,,,,,
,,,,,,,,,,,683976,,001,2024-02-15_22h04.47.462,VH_new_version2,2023.2.3,Win32,59.88023952,390.5235,391.5232,,,,,,,,,,,,,,,,,,,,,,,,,,391.5232,392.2733,z,1,0.7329,,392.2733,392.2734,,0,185,185,201,1,202,lingin,,,,,6,harmonic,1.6,,z,nw,,,,,,,
,,,,,,,,,,,683976,,001,2024-02-15_22h04.47.462,VH_new_version2,2023.2.3,Win32,59.88023952,392.2737,393.2735,,,,,,,,,,,,,,,,,,,,,,,,,,393.2735,393.9069,m,1,0.6269,,393.9069,393.9069,,0,186,186,16,1,17,umut,1988,90.3268,1818,0.1987,4,harmonic,1.55,4.955816625,m,w,,,,,,,
,,,,,,,,,,,683976,,001,2024-02-15_22h04.47.462,VH_new_version2,2023.2.3,Win32,59.88023952,393.9072,394.907,,,,,,,,,,,,,,,,,,,,,,,,,,394.9071,395.5905,m,1,0.6666,,395.5905,395.5905,,0,187,187,113,1,114,görev,2159,98.0964,1998,0.2184,5,harmonic,1.75,4.99165307,m,w,,,,,,,
,,,,,,,,,,,683976,,001,2024-02-15_22h04.47.462,VH_new_version2,2023.2.3,Win32,59.88023952,395.5908,396.5907,,,,,,,,,,,,,,,,,,,,,,,,,,396.5908,397.1075,m,1,0.5052,,397.1075,397.1075,,0,188,188,61,1,62,yağmur,2491,113.1812,2156,0.2357,6,harmonic,1.9,5.053774294,m,w,,,,,,,
,,,,,,,,,,,683976,,001,2024-02-15_22h04.47.462,VH_new_version2,2023.2.3,Win32,59.88023952,397.1078,398.1075,,,,,,,,,,,,,,,,,,,,,,,,,,398.1076,398.6911,m,1,0.5647,,398.6912,398.6912,,0,189,189,138,1,139,ödül,1063,48.2985,926,0.1012,4,harmonic,1.7,4.683933643,m,w,,,,,,,
,,,,,,,,,,,683976,,001,2024-02-15_22h04.47.462,VH_new_version2,2023.2.3,Win32,59.88023952,398.6914,399.6912,,,,,,,,,,,,,,,,,,,,,,,,,,399.6912,400.2745,m,1,0.5652,,400.2745,400.2746,,0,190,190,30,1,31,pamuk,937,42.5736,826,0.0903,5,harmonic,1.9,4.629140375,m,w,,,,,,,
,,,,,,,,,,,683976,,001,2024-02-15_22h04.47.462,VH_new_version2,2023.2.3,Win32,59.88023952,400.2749,401.2755,,,,,,,,,,,,,,,,,,,,,,,,,,401.2755,402.0082,z,1,0.7145,,402.0082,402.0084,,0,191,191,213,1,214,zale,,,,,4,notharmonic,1.55,,z,nw,,,,,,,
,,,,,,,,,,,683976,,001,2024-02-15_22h04.47.462,VH_new_version2,2023.2.3,Win32,59.88023952,402.0086,403.0083,,,,,,,,,,,,,,,,,,,,,,,,,,403.0083,403.8752,z,1,0.8478,,403.8753,403.8754,,0,192,192,209,1,210,soğkal,,,,,6,harmonic,2.1,,z,nw,,,,,,,
,,,,,,,,,,,683976,,001,2024-02-15_22h04.47.462,VH_new_version2,2023.2.3,Win32,59.88023952,403.8756,404.8754,,,,,,,,,,,,,,,,,,,,,,,,,,404.8754,405.6421,m,1,0.7548,,405.6421,405.6422,,0,193,193,86,1,87,takım,4370,198.5555,3726,0.4073,5,harmonic,1,5.297881922,m,w,,,,,,,
,,,,,,,,,,,683976,,001,2024-02-15_22h04.47.462,VH_new_version2,2023.2.3,Win32,59.88023952,405.6424,406.6422,,,,,,,,,,,,,,,,,,,,,,,,,,406.6422,407.5924,z,1,0.9395,,407.5924,407.5924,,0,194,194,257,1,258,seran,,,,,5,notharmonic,1.35,,z,nw,,,,,,,
,,,,,,,,,,,683976,,001,2024-02-15_22h04.47.462,VH_new_version2,2023.2.3,Win32,59.88023952,407.5926,408.5931,,,,,,,,,,,,,,,,,,,,,,,,,,408.5931,409.226,z,1,0.6239,,409.2261,409.2262,,0,195,195,249,1,250,sisaj,,,,,5,notharmonic,2,,z,nw,,,,,,,
,,,,,,,,,,,683976,,001,2024-02-15_22h04.47.462,VH_new_version2,2023.2.3,Win32,59.88023952,409.2265,410.2261,,,,,,,,,,,,,,,,,,,,,,,,,,410.2261,411.0096,z,1,0.7647,,411.0096,411.0098,,0,196,196,198,1,199,tenlek,,,,,6,harmonic,1.85,,z,nw,,,,,,,
,,,,,,,,,,,683976,,001,2024-02-15_22h04.47.462,VH_new_version2,2023.2.3,Win32,59.88023952,411.01,412.0098,,,,,,,,,,,,,,,,,,,,,,,,,,412.0098,412.6931,z,1,0.6708,,412.6932,412.6932,,0,197,197,229,1,230,irar,,,,,4,notharmonic,1.65,,z,nw,,,,,,,
,,,,,,,,,,,683976,,001,2024-02-15_22h04.47.462,VH_new_version2,2023.2.3,Win32,59.88023952,412.6934,413.6933,,,,,,,,,,,,,,,,,,,,,,,,,,413.6933,414.5435,m,1,0.8407,,414.5435,414.5436,,0,198,198,120,1,121,yedi,1880,85.4197,1729,0.189,4,harmonic,1,4.931558042,m,w,,,,,,,
,,,,,,,,,,,683976,,001,2024-02-15_22h04.47.462,VH_new_version2,2023.2.3,Win32,59.88023952,414.5439,415.5438,,,,,,,,,,,,,,,,,,,,,,,,,,415.5438,416.9939,z,1,1.4402,,416.9939,416.9941,,0,199,199,260,1,261,dülda,,,,,5,notharmonic,1.95,,z,nw,,,,,,,
,,,,,,,,,,,683976,,001,2024-02-15_22h04.47.462,VH_new_version2,2023.2.3,Win32,59.88023952,416.9943,417.9941,,,,,,,,,,,,,,,,,,,,,,,,,,417.9941,418.7775,z,1,0.7659,,418.7775,418.7776,,0,200,200,218,1,219,ecmu,,,,,4,notharmonic,2,,z,nw,,,,,,,
,,,,,,,,,,,683976,,001,2024-02-15_22h04.47.462,VH_new_version2,2023.2.3,Win32,59.88023952,418.7779,419.7783,,,,,,,,,,,,,,,,,,,,,,,,,,419.7783,420.3952,z,1,0.6068,,420.3953,420.3954,,0,201,201,245,1,246,gaset,,,,,5,notharmonic,1.85,,z,nw,,,,,,,
,,,,,,,,,,,683976,,001,2024-02-15_22h04.47.462,VH_new_version2,2023.2.3,Win32,59.88023952,420.3957,421.3955,,,,,,,,,,,,,,,,,,,,,,,,,,421.3955,421.9614,z,1,0.5497,,421.9614,421.9616,,0,202,202,269,1,270,sakate,,,,,6,notharmonic,1.8,,z,nw,,,,,,,
,,,,,,,,,,,683976,,001,2024-02-15_22h04.47.462,VH_new_version2,2023.2.3,Win32,59.88023952,421.9618,422.962,,,,,,,,,,,,,,,,,,,,,,,,,,422.962,423.8789,m,1,0.8996,,423.8789,423.879,,0,203,203,35,1,36,araba,1704,77.423,1485,0.1623,5,harmonic,1,4.888869995,m,w,,,,,,,
,,,,,,,,,,,683976,,001,2024-02-15_22h04.47.462,VH_new_version2,2023.2.3,Win32,59.88023952,423.8793,424.8789,,,,,,,,,,,,,,,,,,,,,,,,,,424.879,425.562,z,1,0.6747,,425.562,425.562,,0,204,204,190,1,191,gopuk,,,,,5,harmonic,1.85,,z,nw,,,,,,,
,,,,,,,,,,,683976,,001,2024-02-15_22h04.47.462,VH_new_version2,2023.2.3,Win32,59.88023952,425.5622,426.563,,,,,,,,,,,,,,,,,,,,,,,,,,426.563,427.1125,z,1,0.538,,427.1126,427.1127,,0,205,205,266,1,267,ebvace,,,,,6,notharmonic,2.95,,z,nw,,,,,,,
,,,,,,,,,,,683976,,001,2024-02-15_22h04.47.462,VH_new_version2,2023.2.3,Win32,59.88023952,427.113,428.113,,,,,,,,,,,,,,,,,,,,,,,,,,428.1131,429.4299,m,1,1.298,,429.4299,429.43,,0,206,206,28,1,29,melek,878,39.8928,773,0.0845,5,harmonic,1.1,4.60089452,m,w,,,,,,,
,,,,,,,,,,,683976,,001,2024-02-15_22h04.47.462,VH_new_version2,2023.2.3,Win32,59.88023952,429.4304,430.43,,,,,,,,,,,,,,,,,,,,,,,,,,430.43,431.1635,m,1,0.7142,,431.1635,431.1636,,0,207,207,9,1,10,uçak,894,40.6198,752,0.0822,4,harmonic,1.4,4.608737781,m,w,,,,,,,
,,,,,,,,,,,683976,,001,2024-02-15_22h04.47.462,VH_new_version2,2023.2.3,Win32,59.88023952,431.1639,432.1636,,,,,,,,,,,,,,,,,,,,,,,,,,432.1636,433.2471,m,1,1.072,,433.2471,433.2473,,0,208,208,7,1,8,inci,757,34.3951,686,0.075,4,harmonic,1.05,4.536496576,m,w,,,,,,,
,,,,,,,,,,,683976,,001,2024-02-15_22h04.47.462,VH_new_version2,2023.2.3,Win32,59.88023952,433.2475,434.2472,,,,,,,,,,,,,,,,,,,,,,,,,,434.2472,434.9974,z,1,0.7311,,434.9975,434.9975,,0,209,209,211,1,212,yıksık,,,,,6,harmonic,1.8,,z,nw,,,,,,,
,,,,,,,,,,,683976,,001,2024-02-15_22h04.47.462,VH_new_version2,2023.2.3,Win32,59.88023952,434.9978,435.9975,,,,,,,,,,,,,,,,,,,,,,,,,,435.9975,436.7143,z,1,0.6988,,436.7143,436.7144,,0,210,210,196,1,197,etçime,,,,,6,harmonic,1.9,,z,nw,,,,,,,
,,,,,,,,,,,683976,,001,2024-02-15_22h04.47.462,VH_new_version2,2023.2.3,Win32,59.88023952,436.7146,437.7145,,,,,,,,,,,,,,,,,,,,,,,,,,437.7145,438.3307,z,1,0.5976,,438.3308,438.3308,,0,211,211,228,1,229,idna,,,,,4,notharmonic,1.8,,z,nw,,,,,,,
,,,,,,,,,,,683976,,001,2024-02-15_22h04.47.462,VH_new_version2,2023.2.3,Win32,59.88023952,438.3311,439.3315,,,,,,,,,,,,,,,,,,,,,,,,,,439.3316,440.1482,z,1,0.8025,,440.1483,441.1652,space,0,212,212,165,1,166,eyel,,,,,4,harmonic,1.65,,z,nw,1.0009,,,,,,
,,,,,,,,,,,683976,,001,2024-02-15_22h04.47.462,VH_new_version2,2023.2.3,Win32,59.88023952,441.1715,442.1646,,,,,,,,,,,,,,,,,,,,,,,,,,442.1646,442.9811,z,1,0.8082,,442.9812,442.9812,,0,213,213,275,1,276,teşbuz,,,,,6,notharmonic,2.75,,z,nw,,,,,,,
,,,,,,,,,,,683976,,001,2024-02-15_22h04.47.462,VH_new_version2,2023.2.3,Win32,59.88023952,442.9814,443.982,,,,,,,,,,,,,,,,,,,,,,,,,,443.982,444.5154,z,1,0.5155,,444.5154,444.5155,,0,214,214,242,1,243,sayke,,,,,5,notharmonic,1.9,,z,nw,,,,,,,
,,,,,,,,,,,683976,,001,2024-02-15_22h04.47.462,VH_new_version2,2023.2.3,Win32,59.88023952,444.5158,445.515,,,,,,,,,,,,,,,,,,,,,,,,,,445.5151,446.2652,m,1,0.7394,,446.2653,446.2654,,0,215,215,139,1,140,teklif,913,41.4831,848,0.0927,6,harmonic,1.7,4.617871203,m,w,,,,,,,
,,,,,,,,,,,683976,,001,2024-02-15_22h04.47.462,VH_new_version2,2023.2.3,Win32,59.88023952,446.2656,447.2658,,,,,,,,,,,,,,,,,,,,,,,,,,447.2659,448.0152,z,1,0.7318,,448.0152,448.0152,,0,216,216,277,1,278,şeylam,,,,,6,notharmonic,2,,z,nw,,,,,,,
,,,,,,,,,,,683976,,001,2024-02-15_22h04.47.462,VH_new_version2,2023.2.3,Win32,59.88023952,448.0156,449.0158,,,,,,,,,,,,,,,,,,,,,,,,,,449.0158,449.7162,m,1,0.681,,449.7162,449.7164,,0,217,217,11,1,12,öykü,958,43.5277,849,0.0928,4,harmonic,1.9,4.63876572,m,w,,,,,,,
,,,,,,,,,,,683976,,001,2024-02-15_22h04.47.462,VH_new_version2,2023.2.3,Win32,59.88023952,449.7167,450.7165,,,,,,,,,,,,,,,,,,,,,,,,,,450.7165,451.2501,m,1,0.5159,,451.2501,451.2503,,0,218,218,106,1,107,altın,2385,108.3649,2017,0.2205,5,harmonic,1,5.034888635,m,w,,,,,,,
,,,,,,,,,,,683976,,001,2024-02-15_22h04.47.462,VH_new_version2,2023.2.3,Win32,59.88023952,451.2505,452.2501,,,,,,,,,,,,,,,,,,,,,,,,,,452.2501,452.8835,z,1,0.6172,,452.8835,452.8836,,0,219,219,152,1,153,ebür,,,,,4,harmonic,1.95,,z,nw,,,,,,,
,,,,,,,,,,,683976,,001,2024-02-15_22h04.47.462,VH_new_version2,2023.2.3,Win32,59.88023952,452.8839,453.8831,,,,,,,,,,,,,,,,,,,,,,,,,,453.8831,454.4506,z,1,0.5493,,454.4506,454.4507,,0,220,220,230,1,231,asez,,,,,4,notharmonic,1.9,,z,nw,,,,,,,
,,,,,,,,,,,683976,,001,2024-02-15_22h04.47.462,VH_new_version2,2023.2.3,Win32,59.88023952,454.451,455.4507,,,,,,,,,,,,,,,,,,,,,,,,,,455.4508,456.1835,m,1,0.7176,,456.1835,456.1837,,0,221,221,78,1,79,şişe,478,21.7184,440,0.0481,4,harmonic,1.05,4.336827828,m,w,,,,,,,
,,,,,,,,,,,683976,,001,2024-02-15_22h04.47.462,VH_new_version2,2023.2.3,Win32,59.88023952,456.1841,457.1834,,,,,,,,,,,,,,,,,,,,,,,,,,457.1835,457.6674,m,1,0.473,,457.6675,457.6675,,0,222,222,111,1,112,balık,2189,99.4595,1817,0.1986,5,harmonic,1,4.997646272,m,w,,,,,,,
,,,,,,,,,,,683976,,001,2024-02-15_22h04.47.462,VH_new_version2,2023.2.3,Win32,59.88023952,457.668,458.6677,,,,,,,,,,,,,,,,,,,,,,,,,,458.6677,459.1677,m,1,0.4886,,459.1678,459.1679,,0,223,223,51,1,52,yaprak,739,33.5772,678,0.0741,6,harmonic,1.7,4.526044478,m,w,,,,,,,
,,,,,,,,,,,683976,,001,2024-02-15_22h04.47.462,VH_new_version2,2023.2.3,Win32,59.88023952,459.1681,460.168,,,,,,,,,,,,,,,,,,,,,,,,,,460.168,460.5341,m,0,0.3499,,460.5341,460.5343,,0,224,224,167,1,168,ontan,,,,,5,harmonic,1.6,,z,nw,,,,,,,
,,,,,,,,,,,683976,,001,2024-02-15_22h04.47.462,VH_new_version2,2023.2.3,Win32,59.88023952,460.5344,461.535,,,,,,,,,,,,,,,,,,,,,,,,,,461.535,462.2851,z,1,0.7327,,462.2852,462.2853,,0,225,225,193,1,194,hatrak,,,,,6,harmonic,1.95,,z,nw,,,,,,,
,,,,,,,,,,,683976,,001,2024-02-15_22h04.47.462,VH_new_version2,2023.2.3,Win32,59.88023952,462.2856,463.285,,,,,,,,,,,,,,,,,,,,,,,,,,463.2851,463.918,z,1,0.6194,,463.918,463.9181,,0,226,226,216,1,217,same,,,,,4,notharmonic,1.6,,z,nw,,,,,,,
,,,,,,,,,,,683976,,001,2024-02-15_22h04.47.462,VH_new_version2,2023.2.3,Win32,59.88023952,463.9184,464.9188,,,,,,,,,,,,,,,,,,,,,,,,,,464.9189,465.8356,m,1,0.9069,,465.8356,465.8356,,0,227,227,104,1,105,hediye,2501,113.6355,2224,0.2431,6,harmonic,1.7,5.055514027,m,w,,,,,,,
,,,,,,,,,,,683976,,001,2024-02-15_22h04.47.462,VH_new_version2,2023.2.3,Win32,59.88023952,465.836,466.8349,,,,,,,,,,,,,,,,,,,,,,,,,,466.835,467.4852,z,1,0.6344,,467.4852,467.4853,,0,228,228,150,1,151,acuz,,,,,4,harmonic,1.65,,z,nw,,,,,,,
,,,,,,,,,,,683976,,001,2024-02-15_22h04.47.462,VH_new_version2,2023.2.3,Win32,59.88023952,467.4856,468.4855,,,,,,,,,,,,,,,,,,,,,,,,,,468.4855,469.2028,z,1,0.6985,,469.2029,469.203,,0,229,229,247,1,248,fiyan,,,,,5,notharmonic,1.6,,z,nw,,,,,,,
,,,,,,,,,,,683976,,001,2024-02-15_22h04.47.462,VH_new_version2,2023.2.3,Win32,59.88023952,469.2032,470.203,,,,,,,,,,,,,,,,,,,,,,,,,,470.203,470.9196,m,1,0.6978,,470.9196,470.9198,,0,230,230,134,1,135,araç,1182,53.7054,1050,0.1148,4,harmonic,1.25,4.730017956,m,w,,,,,,,
,,,,,,,,,,,683976,,001,2024-02-15_22h04.47.462,VH_new_version2,2023.2.3,Win32,59.88023952,470.9201,471.92,,,,,,,,,,,,,,,,,,,,,,,,,,471.92,472.6865,z,1,0.7554,,472.6866,472.6867,,0,231,231,241,1,242,akter,,,,,5,notharmonic,1.8,,z,nw,,,,,,,
,,,,,,,,,,,683976,,001,2024-02-15_22h04.47.462,VH_new_version2,2023.2.3,Win32,59.88023952,472.687,473.6867,,,,,,,,,,,,,,,,,,,,,,,,,,473.6867,474.4034,m,1,0.6998,,474.4035,474.4036,,0,232,232,55,1,56,zeytin,904,41.0742,758,0.0829,6,harmonic,1.85,4.613569113,m,w,,,,,,,
,,,,,,,,,,,683976,,001,2024-02-15_22h04.47.462,VH_new_version2,2023.2.3,Win32,59.88023952,474.4039,475.4037,,,,,,,,,,,,,,,,,,,,,,,,,,475.4037,476.0868,z,1,0.6708,,476.0869,476.087,,0,233,233,283,1,284,dimdat,,,,,6,notharmonic,2.05,,z,nw,,,,,,,
,,,,,,,,,,,683976,,001,2024-02-15_22h04.47.462,VH_new_version2,2023.2.3,Win32,59.88023952,476.0873,477.087,,,,,,,,,,,,,,,,,,,,,,,,,,477.087,478.4379,z,1,1.3348,,478.438,478.4381,,0,234,234,270,1,271,meşkup,,,,,6,notharmonic,1.95,,z,nw,,,,,,,
,,,,,,,,,,,683976,,001,2024-02-15_22h04.47.462,VH_new_version2,2023.2.3,Win32,59.88023952,478.4443,479.4377,,,,,,,,,,,,,,,,,,,,,,,,,,479.4378,480.3043,m,1,0.8576,,480.3043,480.3044,,0,235,235,39,1,40,mayıs,2630,119.4968,2294,0.2508,5,harmonic,1.75,5.077356275,m,w,,,,,,,
,,,,,,,,,,,683976,,001,2024-02-15_22h04.47.462,VH_new_version2,2023.2.3,Win32,59.88023952,480.3047,481.3048,,,,,,,,,,,,,,,,,,,,,,,,,,481.3048,483.1549,m,0,1.8323,,483.155,483.1551,,0,236,236,154,1,155,afap,,,,,4,harmonic,1.7,,z,nw,,,,,,,
,,,,,,,,,,,683976,,001,2024-02-15_22h04.47.462,VH_new_version2,2023.2.3,Win32,59.88023952,483.1611,484.1549,,,,,,,,,,,,,,,,,,,,,,,,,,484.155,484.9878,z,1,0.8167,,484.9879,484.9879,,0,237,237,248,1,249,talif,,,,,5,notharmonic,1.5,,z,nw,,,,,,,
,,,,,,,,,,,683976,,001,2024-02-15_22h04.47.462,VH_new_version2,2023.2.3,Win32,59.88023952,484.9881,485.9883,,,,,,,,,,,,,,,,,,,,,,,,,,485.9884,486.772,m,1,0.7746,,486.7721,486.7722,,0,238,238,140,1,141,kimlik,867,39.393,726,0.0794,6,harmonic,1.7,4.595419056,m,w,,,,,,,
,,,,,,,,,,,683976,,001,2024-02-15_22h04.47.462,VH_new_version2,2023.2.3,Win32,59.88023952,486.7725,487.7721,,,,,,,,,,,,,,,,,,,,,,,,,,487.7721,488.9051,m,1,1.1176,,488.9052,488.9053,,0,239,239,91,1,92,yeşil,3445,156.5271,2946,0.3221,5,harmonic,1.8,5.194589539,m,w,,,,,,,
,,,,,,,,,,,683976,,001,2024-02-15_22h04.47.462,VH_new_version2,2023.2.3,Win32,59.88023952,488.9055,489.9052,,,,,,,,,,,,,,,,,,,,,,,,,,489.9052,490.7721,z,1,0.851,,490.7722,490.7724,,0,240,240,179,1,180,şünle,,,,,5,harmonic,1.75,,z,nw,,,,,,,
,,,,,,,,,,,683976,,001,2024-02-15_22h04.47.462,VH_new_version2,2023.2.3,Win32,59.88023952,490.7728,491.7729,,,,,,,,,,,,,,,,,,,,,,,,,,491.773,492.6395,m,1,0.8553,,492.6395,492.6395,,0,241,241,126,1,127,millet,1658,75.3329,1508,0.1649,6,harmonic,1.7,4.876984686,m,w,,,,,,,
,,,,,,,,,,,683976,,001,2024-02-15_22h04.47.462,VH_new_version2,2023.2.3,Win32,59.88023952,492.6399,493.6399,,,,,,,,,,,,,,,,,,,,,,,,,,493.64,494.9065,m,1,1.2482,,494.9065,494.9067,,0,242,242,117,1,118,çiçek,2071,94.098,1772,0.1937,5,harmonic,1.95,4.973580393,m,w,,,,,,,
,,,,,,,,,,,683976,,001,2024-02-15_22h04.47.462,VH_new_version2,2023.2.3,Win32,59.88023952,494.907,495.9067,,,,,,,,,,,,,,,,,,,,,,,,,,495.9068,497.557,z,1,1.6336,,497.557,497.5571,,0,243,243,151,1,152,uban,,,,,4,harmonic,1.35,,z,nw,,,,,,,
,,,,,,,,,,,683976,,001,2024-02-15_22h04.47.462,VH_new_version2,2023.2.3,Win32,59.88023952,497.5574,498.5573,,,,,,,,,,,,,,,,,,,,,,,,,,498.5573,499.2573,m,1,0.6812,,499.2574,499.2576,,0,244,244,137,1,138,mutfak,1110,50.434,1032,0.1128,6,harmonic,1.95,4.702723414,m,w,,,,,,,
,,,,,,,,,,,683976,,001,2024-02-15_22h04.47.462,VH_new_version2,2023.2.3,Win32,59.88023952,499.2578,500.2573,,,,,,,,,,,,,,,,,,,,,,,,,,500.2574,501.0744,z,1,0.8008,,501.0744,501.0745,,0,245,245,222,1,223,laze,,,,,4,notharmonic,1.7,,z,nw,,,,,,,
,,,,,,,,,,,683976,,001,2024-02-15_22h04.47.462,VH_new_version2,2023.2.3,Win32,59.88023952,501.0749,502.0742,,,,,,,,,,,,,,,,,,,,,,,,,,502.0743,503.0746,m,1,0.9872,,503.0746,503.0747,,0,246,246,4,1,5,öfke,606,27.5342,542,0.0593,4,harmonic,1.85,4.439872463,m,w,,,,,,,
,,,,,,,,,,,683976,,001,2024-02-15_22h04.47.462,VH_new_version2,2023.2.3,Win32,59.88023952,503.075,504.0749,,,,,,,,,,,,,,,,,,,,,,,,,,504.0749,504.9751,z,1,0.8862,,504.9751,504.9753,,0,247,247,223,1,224,mame,,,,,4,notharmonic,1.65,,z,nw,,,,,,,
,,,,,,,,,,,683976,,001,2024-02-15_22h04.47.462,VH_new_version2,2023.2.3,Win32,59.88023952,504.9755,505.975,,,,,,,,,,,,,,,,,,,,,,,,,,505.975,507.0584,m,1,1.0669,,507.0585,507.0586,,0,248,248,53,1,54,çıplak,819,37.2121,766,0.0837,6,harmonic,2,4.570684179,m,w,,,,,,,
,,,,,,,,,,,683976,,001,2024-02-15_22h04.47.462,VH_new_version2,2023.2.3,Win32,59.88023952,507.0588,508.0583,,,,,,,,,,,,,,,,,,,,,,,,,,508.0584,508.8589,z,1,0.7843,,508.859,508.8591,,0,249,249,166,1,167,dokoş,,,,,5,harmonic,2,,z,nw,,,,,,,
,,,,,,,,,,,683976,,001,2024-02-15_22h04.47.462,VH_new_version2,2023.2.3,Win32,59.88023952,508.8594,509.8591,,,,,,,,,,,,,,,,,,,,,,,,,,509.8592,511.175,z,1,1.3058,,511.1751,511.1752,,0,250,250,183,1,184,çapal,,,,,5,harmonic,1.6,,z,nw,,,,,,,
,,,,,,,,,,,683976,,001,2024-02-15_22h04.47.462,VH_new_version2,2023.2.3,Win32,59.88023952,511.1755,512.176,,,,,,,,,,,,,,,,,,,,,,,,,,512.176,512.9259,m,1,0.7407,,512.926,512.9261,,0,251,251,15,1,16,ışık,1814,82.421,1635,0.1787,4,harmonic,1.6,4.916037879,m,w,,,,,,,
,,,,,,,,,,,683976,,001,2024-02-15_22h04.47.462,VH_new_version2,2023.2.3,Win32,59.88023952,512.9264,513.9256,,,,,,,,,,,,,,,,,,,,,,,,,,513.9256,514.6096,z,1,0.6757,,514.6097,514.6098,,0,252,252,192,1,193,kumgun,,,,,6,harmonic,1.85,,z,nw,,,,,,,
,,,,,,,,,,,683976,,001,2024-02-15_22h04.47.462,VH_new_version2,2023.2.3,Win32,59.88023952,514.61,515.61,,,,,,,,,,,,,,,,,,,,,,,,,,515.61,516.3102,m,1,0.6811,,516.3103,516.3103,,0,253,253,63,1,64,hizmet,3023,137.3531,2689,0.294,6,harmonic,1.75,5.137838466,m,w,,,,,,,
,,,,,,,,,,,683976,,001,2024-02-15_22h04.47.462,VH_new_version2,2023.2.3,Win32,59.88023952,516.3106,517.3102,,,,,,,,,,,,,,,,,,,,,,,,,,517.3102,518.0104,z,1,0.6813,,518.0104,518.0106,,0,254,254,239,1,240,kanel,,,,,5,notharmonic,1.9,,z,nw,,,,,,,
,,,,,,,,,,,683976,,001,2024-02-15_22h04.47.462,VH_new_version2,2023.2.3,Win32,59.88023952,518.0108,519.0106,,,,,,,,,,,,,,,,,,,,,,,,,,519.0106,519.7271,z,1,0.6975,,519.7271,519.7272,,0,255,255,181,1,182,masus,,,,,5,harmonic,1.7,,z,nw,,,,,,,
,,,,,,,,,,,683976,,001,2024-02-15_22h04.47.462,VH_new_version2,2023.2.3,Win32,59.88023952,519.7275,520.7268,,,,,,,,,,,,,,,,,,,,,,,,,,520.7269,522.0106,z,1,1.2677,,522.0107,522.0108,,0,256,256,217,1,218,heka,,,,,4,notharmonic,1.75,,z,nw,,,,,,,
,,,,,,,,,,,683976,,001,2024-02-15_22h04.47.462,VH_new_version2,2023.2.3,Win32,59.88023952,522.0111,523.0112,,,,,,,,,,,,,,,,,,,,,,,,,,523.0113,523.6947,z,1,0.6657,,523.6948,523.6949,,0,257,257,234,1,235,ated,,,,,4,notharmonic,1.8,,z,nw,,,,,,,
,,,,,,,,,,,683976,,001,2024-02-15_22h04.47.462,VH_new_version2,2023.2.3,Win32,59.88023952,523.6951,524.6944,,,,,,,,,,,,,,,,,,,,,,,,,,524.6945,525.5946,m,1,0.8818,,525.5947,525.5949,,0,258,258,6,1,7,avuç,729,33.1229,659,0.072,4,harmonic,1.85,4.520128353,m,w,,,,,,,
,,,,,,,,,,,683976,,001,2024-02-15_22h04.47.462,VH_new_version2,2023.2.3,Win32,59.88023952,525.5952,526.5948,,,,,,,,,,,,,,,,,,,,,,,,,,526.5948,527.2116,m,1,0.5983,,527.2116,527.2117,,0,259,259,94,1,95,bebek,3301,149.9843,2794,0.3054,5,harmonic,1.6,5.176045801,m,w,,,,,,,
,,,,,,,,,,,683976,,001,2024-02-15_22h04.47.462,VH_new_version2,2023.2.3,Win32,59.88023952,527.2119,528.2115,,,,,,,,,,,,,,,,,,,,,,,,,,528.2115,529.0448,z,1,0.8208,,529.0448,529.0449,,0,260,260,233,1,234,eali,,,,,4,notharmonic,1,,z,nw,,,,,,,
,,,,,,,,,,,683976,,001,2024-02-15_22h04.47.462,VH_new_version2,2023.2.3,Win32,59.88023952,529.0452,530.0452,,,,,,,,,,,,,,,,,,,,,,,,,,530.0452,530.9121,z,1,0.8525,,530.9121,530.9122,,0,261,261,144,1,145,içke,,,,,4,harmonic,1.6,,z,nw,,,,,,,
,,,,,,,,,,,683976,,001,2024-02-15_22h04.47.462,VH_new_version2,2023.2.3,Win32,59.88023952,530.9125,531.9121,,,,,,,,,,,,,,,,,,,,,,,,,,531.9121,532.7452,z,1,0.8182,,532.7452,532.7454,,0,262,262,274,1,275,çanese,,,,,6,notharmonic,2,,z,nw,,,,,,,
,,,,,,,,,,,683976,,001,2024-02-15_22h04.47.462,VH_new_version2,2023.2.3,Win32,59.88023952,532.7456,533.7454,,,,,,,,,,,,,,,,,,,,,,,,,,533.7454,534.6128,z,1,0.8552,,534.6129,534.6131,,0,263,263,265,1,266,terhan,,,,,6,notharmonic,1.95,,z,nw,,,,,,,
,,,,,,,,,,,683976,,001,2024-02-15_22h04.47.462,VH_new_version2,2023.2.3,Win32,59.88023952,534.6133,535.6131,,,,,,,,,,,,,,,,,,,,,,,,,,535.6132,536.3799,m,1,0.7502,,536.38,536.38,,0,264,264,128,1,129,merkez,1445,65.6551,1255,0.1372,6,harmonic,1.8,4.817268467,m,w,,,,,,,
,,,,,,,,,,,683976,,001,2024-02-15_22h04.47.462,VH_new_version2,2023.2.3,Win32,59.88023952,536.3803,537.3799,,,,,,,,,,,,,,,,,,,,,,,,,,537.38,538.5801,z,1,1.1842,,538.5802,538.5803,,0,265,265,178,1,179,güzül,,,,,5,harmonic,1.65,,z,nw,,,,,,,
,,,,,,,,,,,683976,,001,2024-02-15_22h04.47.462,VH_new_version2,2023.2.3,Win32,59.88023952,538.5868,539.5802,,,,,,,,,,,,,,,,,,,,,,,,,,539.5804,540.2798,m,1,0.6919,,540.2798,540.2799,,0,266,266,21,1,22,kötü,9344,424.5543,8257,0.9027,4,harmonic,1.65,5.627933244,m,w,,,,,,,
,,,,,,,,,,,683976,,001,2024-02-15_22h04.47.462,VH_new_version2,2023.2.3,Win32,59.88023952,540.2801,541.2805,,,,,,,,,,,,,,,,,,,,,,,,,,541.2805,542.1307,z,1,0.8317,,542.1307,542.1308,,0,267,267,227,1,228,esta,,,,,4,notharmonic,1.7,,z,nw,,,,,,,
,,,,,,,,,,,683976,,001,2024-02-15_22h04.47.462,VH_new_version2,2023.2.3,Win32,59.88023952,542.131,543.1307,,,,,,,,,,,,,,,,,,,,,,,,,,543.1308,543.8136,m,1,0.6755,,543.8136,543.8137,,0,268,268,0,1,1,ödev,191,8.6783,175,0.0191,4,harmonic,1.6,3.938434659,m,w,,,,,,,
,,,,,,,,,,,683976,,001,2024-02-15_22h04.47.462,VH_new_version2,2023.2.3,Win32,59.88023952,543.8138,544.8143,,,,,,,,,,,,,,,,,,,,,,,,,,544.8143,545.9146,m,1,1.0875,,545.9146,545.9148,,0,269,269,123,1,124,yıldız,1775,80.649,1532,0.1675,6,harmonic,1.6,4.906598987,m,w,,,,,,,
,,,,,,,,,,,683976,,001,2024-02-15_22h04.47.462,VH_new_version2,2023.2.3,Win32,59.88023952,545.915,546.9149,,,,,,,,,,,,,,,,,,,,,,,,,,546.915,547.5816,z,1,0.6465,,547.5816,547.5817,,0,270,270,156,1,157,obık,,,,,4,harmonic,1.95,,z,nw,,,,,,,
,,,,,,,,,,,683976,,001,2024-02-15_22h04.47.462,VH_new_version2,2023.2.3,Win32,59.88023952,547.582,548.5818,,,,,,,,,,,,,,,,,,,,,,,,,,548.5818,549.2648,z,1,0.6694,,549.2648,549.2648,,0,271,271,263,1,264,magina,,,,,6,notharmonic,1.9,,z,nw,,,,,,,
,,,,,,,,,,,683976,,001,2024-02-15_22h04.47.462,VH_new_version2,2023.2.3,Win32,59.88023952,549.2651,550.2647,,,,,,,,,,,,,,,,,,,,,,,,,,550.2647,550.832,z,1,0.5479,,550.832,550.8321,,0,272,272,145,1,146,oyoz,,,,,4,harmonic,1.9,,z,nw,,,,,,,
,,,,,,,,,,,683976,,001,2024-02-15_22h04.47.462,VH_new_version2,2023.2.3,Win32,59.88023952,550.8325,551.8317,,,,,,,,,,,,,,,,,,,,,,,,,,551.8318,552.7489,m,1,0.8997,,552.749,552.7491,,0,273,273,26,1,27,boyun,843,38.3026,777,0.0849,5,harmonic,1.05,4.583228255,m,w,,,,,,,
,,,,,,,,,,,683976,,001,2024-02-15_22h04.47.462,VH_new_version2,2023.2.3,Win32,59.88023952,552.7494,553.7495,,,,,,,,,,,,,,,,,,,,,,,,,,553.7495,554.2491,m,1,0.4819,,554.2491,554.2492,,0,274,274,105,1,106,hasta,2431,110.455,2140,0.2339,5,harmonic,1,5.04318538,m,w,,,,,,,
,,,,,,,,,,,683976,,001,2024-02-15_22h04.47.462,VH_new_version2,2023.2.3,Win32,59.88023952,554.2496,555.2488,,,,,,,,,,,,,,,,,,,,,,,,,,555.2488,555.8495,m,1,0.5819,,555.8495,555.8497,,0,275,275,114,1,115,ayak,2143,97.3694,1931,0.2111,4,harmonic,1,4.988422494,m,w,,,,,,,
,,,,,,,,,,,683976,,001,2024-02-15_22h04.47.462,VH_new_version2,2023.2.3,Win32,59.88023952,555.85,556.8498,,,,,,,,,,,,,,,,,,,,,,,,,,556.8498,557.583,z,1,0.7241,,557.583,557.583,,0,276,276,176,1,177,çırna,,,,,5,harmonic,1.85,,z,nw,,,,,,,
,,,,,,,,,,,683976,,001,2024-02-15_22h04.47.462,VH_new_version2,2023.2.3,Win32,59.88023952,557.5834,558.5834,,,,,,,,,,,,,,,,,,,,,,,,,,558.5834,559.2667,m,1,0.6733,,559.2667,559.267,,0,277,277,59,1,60,zengin,2193,99.6412,2015,0.2203,6,harmonic,1.65,4.998438949,m,w,,,,,,,
,,,,,,,,,,,683976,,001,2024-02-15_22h04.47.462,VH_new_version2,2023.2.3,Win32,59.88023952,559.2672,560.2667,,,,,,,,,,,,,,,,,,,,,,,,,,560.2667,560.733,m,1,0.4526,,560.733,560.7332,,0,278,278,46,1,47,hayat,7922,359.9443,7314,0.7996,5,harmonic,1.35,5.556235301,m,w,,,,,,,
,,,,,,,,,,,683976,,001,2024-02-15_22h04.47.462,VH_new_version2,2023.2.3,Win32,59.88023952,560.7334,561.7337,,,,,,,,,,,,,,,,,,,,,,,,,,561.7337,562.5005,z,1,0.7481,,562.5005,562.5007,,0,279,279,272,1,273,takime,,,,,6,notharmonic,1.5,,z,nw,,,,,,,
,,,,,,,,,,,683976,,001,2024-02-15_22h04.47.462,VH_new_version2,2023.2.3,Win32,59.88023952,562.5009,563.5009,,,,,,,,,,,,,,,,,,,,,,,,,,563.5009,564.0172,m,1,0.4999,,564.0173,564.0174,,0,280,280,50,1,51,kurşun,604,27.4434,551,0.0602,6,harmonic,1.55,4.438437916,m,w,,,,,,,
,,,,,,,,,,,683976,,001,2024-02-15_22h04.47.462,VH_new_version2,2023.2.3,Win32,59.88023952,564.0177,565.0174,,,,,,,,,,,,,,,,,,,,,,,,,,565.0174,565.6678,z,1,0.6345,,565.6678,565.6679,,0,281,281,243,1,244,kuyef,,,,,5,notharmonic,2.3,,z,nw,,,,,,,
,,,,,,,,,,,683976,,001,2024-02-15_22h04.47.462,VH_new_version2,2023.2.3,Win32,59.88023952,565.6682,566.6677,,,,,,,,,,,,,,,,,,,,,,,,,,566.6678,567.318,z,1,0.6317,,567.318,567.3181,,0,282,282,264,1,265,şingan,,,,,6,notharmonic,2.15,,z,nw,,,,,,,
,,,,,,,,,,,683976,,001,2024-02-15_22h04.47.462,VH_new_version2,2023.2.3,Win32,59.88023952,567.3184,568.318,,,,,,,,,,,,,,,,,,,,,,,,,,568.318,568.7684,z,0,0.435,,568.7684,570.4182,space,0,283,283,76,1,77,koltuk,559,25.3987,476,0.052,6,harmonic,1.75,4.404811488,m,w,1.6382,,,,,,
,,,,,,,,,,,683976,,001,2024-02-15_22h04.47.462,VH_new_version2,2023.2.3,Win32,59.88023952,,,,,,,,,,,,,,,,,,,,,,,,,,,,,,,,,,,,,,,,,,,,,,,,,,,,,,,,570.4185,599.9732,space,29.5433,