welcome.started,welcome.stopped,key_resp_welc.keys,key_resp_welc.rt,key_resp_welc.duration,trials_2.thisRepN,trials_2.thisTrialN,trials_2.thisN,trials_2.thisIndex,trials_2.ran,Introduction,participant,Email Adresiniz,session,date,expName,psychopyVersion,OS,frameRate,fix.started,fix.stopped,Studypractice.started,Studypractice.stopped,key_resp_p.keys,key_resp_p.corr,key_resp_p.rt,key_resp_p.duration,rt,corr,FB.started,FB.stopped,trials.thisRepN,trials.thisTrialN,trials.thisN,trials.thisIndex,trials.ran,item_nr_p,target_p,isHarmonic_p,target_cond_p,CorrAns_p,inst2.started,inst2.stopped,key_resp_xx.keys,key_resp_xx.rt,key_resp_xx.duration,TestTrial.started,TestTrial.stopped,key_respTest.keys,key_respTest.corr,key_respTest.rt,key_respTest.duration,Pause.started,Pause.stopped,key_resp_pause.keys,trials_3.thisRepN,trials_3.thisTrialN,trials_3.thisN,trials_3.thisIndex,trials_3.ran,item_nr,target,BlogFreq,BlogFreqPm,BlogCD,BlogCDPc,WordLength,isHarmonic,old20,Zipf,CorrAns,key_resp_pause.rt,key_resp_pause.duration,Bye.started,Bye.stopped,key_resp_bye.keys,key_resp_bye.rt,key_resp_bye.duration
0.0149,2.6026,space,2.5272,,0,0,0,0,1,"Deneye hoş geldiniz,

Devam etmek için BOŞLUK tuşuna basınız.",816277,,001,2024-02-10_12h46.34.146,VH_new_version1,2023.2.3,Win32,59.88023952,,,,,,,,,,,,,,,,,,,,,,,,,,,,,,,,,,,,,,,,,,,,,,,,,,,,,,,,,,,
2.603,11.29,space,8.6631,,0,1,1,1,1,"Bu çalışma Valencia Üniversitesi kapsamında yürütülmektedir. Deneydeki göreviniz, ekrana çıkacak Türkçe sözcüklerin kelime olup olmadığını belirlemenizdir. Eğer sözcük gerçek bir kelime ise ""m"" tuşuna, değil ise ""z"" tuşuna basınız.   

Devam etmek için BOŞLUK tuşuna basınız.",816277,,001,2024-02-10_12h46.34.146,VH_new_version1,2023.2.3,Win32,59.88023952,,,,,,,,,,,,,,,,,,,,,,,,,,,,,,,,,,,,,,,,,,,,,,,,,,,,,,,,,,,
11.2904,19.5925,space,8.2802,,0,2,2,2,1,"Her sözcük için en fazla iki saniyede cevap vermeniz beklenmektedir. Aksi takdirde deney bir sonraki sözcük ile devam eder. 
Bu çalışmada oldukça hızlı ve doğru cevaplama yapmanız beklenmektedir.

Devam etmek için BOŞLUK tuşuna basınız.",816277,,001,2024-02-10_12h46.34.146,VH_new_version1,2023.2.3,Win32,59.88023952,,,,,,,,,,,,,,,,,,,,,,,,,,,,,,,,,,,,,,,,,,,,,,,,,,,,,,,,,,,
19.5929,26.6951,space,7.091,,0,3,3,3,1,"Çalışmaya başlamadan önce ufak bir pratik yer almaktadır.
Kelimedir: ""m""
Kelime değildir: ""z""

Pratik teste başlamak için BOŞLUK tuşuna basınız. ",816277,,001,2024-02-10_12h46.34.146,VH_new_version1,2023.2.3,Win32,59.88023952,,,,,,,,,,,,,,,,,,,,,,,,,,,,,,,,,,,,,,,,,,,,,,,,,,,,,,,,,,,
,,,,,,,,,,,816277,,001,2024-02-10_12h46.34.146,VH_new_version1,2023.2.3,Win32,59.88023952,26.7016,27.6955,27.6956,29.1793,z,1,1.4694,,1.4694,1,29.1796,30.1798,0,0,0,21,1,22,güçli,harmonic,nw,z,,,,,,,,,,,,,,,,,,,,,,,,,,,,,,,,,,,,,
,,,,,,,,,,,816277,,001,2024-02-10_12h46.34.146,VH_new_version1,2023.2.3,Win32,59.88023952,30.1803,31.1799,31.1799,32.0803,z,0,0.8833,,0.8833,0,32.0803,33.0805,0,1,1,4,1,5,soğuk,harmonic,word,m,,,,,,,,,,,,,,,,,,,,,,,,,,,,,,,,,,,,,
,,,,,,,,,,,816277,,001,2024-02-10_12h46.34.146,VH_new_version1,2023.2.3,Win32,59.88023952,33.0809,34.0809,34.081,34.8814,z,1,0.7899,,0.7899,1,34.8814,35.8817,0,2,2,20,1,21,yoğuk,harmonic,nw,z,,,,,,,,,,,,,,,,,,,,,,,,,,,,,,,,,,,,,
,,,,,,,,,,,816277,,001,2024-02-10_12h46.34.146,VH_new_version1,2023.2.3,Win32,59.88023952,35.8822,36.8821,36.8821,37.5158,m,1,0.6199,,0.6199,1,37.5158,38.516,0,3,3,0,1,1,hazır,harmonic,word,m,,,,,,,,,,,,,,,,,,,,,,,,,,,,,,,,,,,,,
,,,,,,,,,,,816277,,001,2024-02-10_12h46.34.146,VH_new_version1,2023.2.3,Win32,59.88023952,38.5164,39.5168,39.5169,40.4333,z,1,0.8997,,0.8997,1,40.4334,41.434,0,4,4,12,1,13,tahip,notharmonic,nw,z,,,,,,,,,,,,,,,,,,,,,,,,,,,,,,,,,,,,,
,,,,,,,,,,,816277,,001,2024-02-10_12h46.34.146,VH_new_version1,2023.2.3,Win32,59.88023952,41.4345,42.4343,42.4343,43.0842,z,1,0.6433,,0.6433,1,43.0842,44.085,0,5,5,22,1,23,gizım,notharmonic,nw,z,,,,,,,,,,,,,,,,,,,,,,,,,,,,,,,,,,,,,
,,,,,,,,,,,816277,,001,2024-02-10_12h46.34.146,VH_new_version1,2023.2.3,Win32,59.88023952,44.0854,45.0853,45.0854,45.6187,z,0,0.5152,,0.5152,0,45.6188,46.6192,0,6,6,6,1,7,sebep,harmonic,word,m,,,,,,,,,,,,,,,,,,,,,,,,,,,,,,,,,,,,,
,,,,,,,,,,,816277,,001,2024-02-10_12h46.34.146,VH_new_version1,2023.2.3,Win32,59.88023952,46.6197,47.6196,47.6196,48.8368,z,1,1.204,,1.204,1,48.8368,49.837,0,7,7,19,1,20,mımal,harmonic,nw,z,,,,,,,,,,,,,,,,,,,,,,,,,,,,,,,,,,,,,
,,,,,,,,,,,816277,,001,2024-02-10_12h46.34.146,VH_new_version1,2023.2.3,Win32,59.88023952,49.8374,50.8373,50.8375,51.6044,m,0,0.7536,,0.7536,0,51.6044,52.6048,0,8,8,23,1,24,zarim,notharmonic,nw,z,,,,,,,,,,,,,,,,,,,,,,,,,,,,,,,,,,,,,
,,,,,,,,,,,816277,,001,2024-02-10_12h46.34.146,VH_new_version1,2023.2.3,Win32,59.88023952,52.6053,53.6052,53.6053,54.1558,z,0,0.5449,,0.5449,0,54.1558,55.1558,0,9,9,10,1,11,nefret,harmonic,word,m,,,,,,,,,,,,,,,,,,,,,,,,,,,,,,,,,,,,,
,,,,,,,,,,,816277,,001,2024-02-10_12h46.34.146,VH_new_version1,2023.2.3,Win32,59.88023952,55.1564,56.1565,56.1566,56.823,m,1,0.6484,,0.6484,1,56.8231,57.8233,0,10,10,8,1,9,bilim,harmonic,word,m,,,,,,,,,,,,,,,,,,,,,,,,,,,,,,,,,,,,,
,,,,,,,,,,,816277,,001,2024-02-10_12h46.34.146,VH_new_version1,2023.2.3,Win32,59.88023952,57.8239,58.8238,58.8238,59.557,m,1,0.7277,,0.7277,1,59.5571,60.5578,0,11,11,9,1,10,zarar,harmonic,word,m,,,,,,,,,,,,,,,,,,,,,,,,,,,,,,,,,,,,,
,,,,,,,,,,,816277,,001,2024-02-10_12h46.34.146,VH_new_version1,2023.2.3,Win32,59.88023952,60.5581,61.5579,61.558,62.1918,m,1,0.6154,,0.6154,1,62.1919,63.192,0,12,12,3,1,4,sevgi,harmonic,word,m,,,,,,,,,,,,,,,,,,,,,,,,,,,,,,,,,,,,,
,,,,,,,,,,,816277,,001,2024-02-10_12h46.34.146,VH_new_version1,2023.2.3,Win32,59.88023952,63.1922,64.1925,64.1925,65.0925,z,1,0.8931,,0.8931,1,65.0925,66.0931,0,13,13,18,1,19,pimer,harmonic,nw,z,,,,,,,,,,,,,,,,,,,,,,,,,,,,,,,,,,,,,
,,,,,,,,,,,816277,,001,2024-02-10_12h46.34.146,VH_new_version1,2023.2.3,Win32,59.88023952,66.0935,67.0936,67.0937,67.6604,m,1,0.5531,,0.5531,1,67.6606,68.6606,0,14,14,11,1,12,teslim,harmonic,word,m,,,,,,,,,,,,,,,,,,,,,,,,,,,,,,,,,,,,,
,,,,,,,,,,,816277,,001,2024-02-10_12h46.34.146,VH_new_version1,2023.2.3,Win32,59.88023952,68.6609,69.6613,69.6614,70.2784,z,1,0.6103,,0.6103,1,70.2784,71.2785,0,15,15,13,1,14,orat,harmonic,nw,z,,,,,,,,,,,,,,,,,,,,,,,,,,,,,,,,,,,,,
,,,,,,,,,,,816277,,001,2024-02-10_12h46.34.146,VH_new_version1,2023.2.3,Win32,59.88023952,71.2789,72.2791,72.2792,72.7789,m,1,0.4882,,0.4882,1,72.7789,73.78,0,16,16,2,1,3,yardım,harmonic,word,m,,,,,,,,,,,,,,,,,,,,,,,,,,,,,,,,,,,,,
,,,,,,,,,,,816277,,001,2024-02-10_12h46.34.146,VH_new_version1,2023.2.3,Win32,59.88023952,73.7804,74.7804,74.7804,75.4967,z,1,0.7066,,0.7066,1,75.4967,76.4971,0,17,17,15,1,16,geki,harmonic,nw,z,,,,,,,,,,,,,,,,,,,,,,,,,,,,,,,,,,,,,
,,,,,,,,,,,816277,,001,2024-02-10_12h46.34.146,VH_new_version1,2023.2.3,Win32,59.88023952,76.4975,77.4976,77.4976,78.1145,m,1,0.6044,,0.6044,1,78.1145,79.1149,0,18,18,1,1,2,veri,harmonic,word,m,,,,,,,,,,,,,,,,,,,,,,,,,,,,,,,,,,,,,
,,,,,,,,,,,816277,,001,2024-02-10_12h46.34.146,VH_new_version1,2023.2.3,Win32,59.88023952,79.1153,80.1152,80.1152,80.6988,z,1,0.5717,,0.5717,1,80.6989,81.6992,0,19,19,17,1,18,pilar,notharmonic,nw,z,,,,,,,,,,,,,,,,,,,,,,,,,,,,,,,,,,,,,
,,,,,,,,,,,816277,,001,2024-02-10_12h46.34.146,VH_new_version1,2023.2.3,Win32,59.88023952,81.6995,82.6995,82.6995,83.2663,m,1,0.5542,,0.5542,1,83.2664,84.2674,0,20,20,5,1,6,gizli,harmonic,word,m,,,,,,,,,,,,,,,,,,,,,,,,,,,,,,,,,,,,,
,,,,,,,,,,,816277,,001,2024-02-10_12h46.34.146,VH_new_version1,2023.2.3,Win32,59.88023952,84.2677,85.2672,85.2673,85.9175,m,0,0.6337,,0.6337,0,85.9177,86.9181,0,21,21,16,1,17,ihlot,notharmonic,nw,z,,,,,,,,,,,,,,,,,,,,,,,,,,,,,,,,,,,,,
,,,,,,,,,,,816277,,001,2024-02-10_12h46.34.146,VH_new_version1,2023.2.3,Win32,59.88023952,86.9188,87.9182,87.9183,88.7357,z,1,0.7942,,0.7942,1,88.7359,89.7357,0,22,22,14,1,15,mahne,notharmonic,nw,z,,,,,,,,,,,,,,,,,,,,,,,,,,,,,,,,,,,,,
,,,,,,,,,,,816277,,001,2024-02-10_12h46.34.146,VH_new_version1,2023.2.3,Win32,59.88023952,89.7364,90.736,90.736,91.336,m,1,0.5779,,0.5779,1,91.3361,92.3367,0,23,23,7,1,8,oran,harmonic,word,m,,,,,,,,,,,,,,,,,,,,,,,,,,,,,,,,,,,,,
,,,,,,,,,,,816277,,001,2024-02-10_12h46.34.146,VH_new_version1,2023.2.3,Win32,59.88023952,,,,,,,,,,,,,,,,,,,,,,,92.3375,106.393,space,14.0243,,,,,,,,,,,,,,,,,,,,,,,,,,,,,,,,,
,,,,,,,,,,,816277,,001,2024-02-10_12h46.34.146,VH_new_version1,2023.2.3,Win32,59.88023952,106.4239,107.4089,,,,,,,,,,,,,,,,,,,,,,,,,,107.4091,108.0924,z,1,0.667,,108.0925,108.0932,,0,0,0,154,1,155,afap,,,,,4,harmonic,1.7,,z,,,,,,,
,,,,,,,,,,,816277,,001,2024-02-10_12h46.34.146,VH_new_version1,2023.2.3,Win32,59.88023952,108.0935,109.0931,,,,,,,,,,,,,,,,,,,,,,,,,,109.0932,109.6928,z,0,0.5938,,109.6928,109.6928,,0,1,1,75,1,76,zeka,481,21.8547,416,0.0455,4,notharmonic,1.65,4.339544849,m,,,,,,,
,,,,,,,,,,,816277,,001,2024-02-10_12h46.34.146,VH_new_version1,2023.2.3,Win32,59.88023952,109.693,110.6936,,,,,,,,,,,,,,,,,,,,,,,,,,110.6936,111.3772,z,1,0.6719,,111.3773,111.3774,,0,2,2,274,1,275,çanese,,,,,6,notharmonic,2,,z,,,,,,,
,,,,,,,,,,,816277,,001,2024-02-10_12h46.34.146,VH_new_version1,2023.2.3,Win32,59.88023952,111.3778,112.3773,,,,,,,,,,,,,,,,,,,,,,,,,,112.3773,112.9445,m,1,0.5579,,112.9446,112.9447,,0,3,3,111,1,112,madde,3793,172.3389,3389,0.3705,5,notharmonic,1.7,5.236383317,m,,,,,,,
,,,,,,,,,,,816277,,001,2024-02-10_12h46.34.146,VH_new_version1,2023.2.3,Win32,59.88023952,112.945,113.9448,,,,,,,,,,,,,,,,,,,,,,,,,,113.9449,114.612,z,1,0.6619,,114.612,114.6121,,0,4,4,153,1,154,uyko,,,,,4,harmonic,1.95,,z,,,,,,,
,,,,,,,,,,,816277,,001,2024-02-10_12h46.34.146,VH_new_version1,2023.2.3,Win32,59.88023952,114.6124,115.612,,,,,,,,,,,,,,,,,,,,,,,,,,115.6121,116.3791,m,1,0.7485,,116.3793,116.3794,,0,5,5,95,1,96,badem,578,26.262,519,0.0567,5,notharmonic,1.4,4.419327797,m,,,,,,,
,,,,,,,,,,,816277,,001,2024-02-10_12h46.34.146,VH_new_version1,2023.2.3,Win32,59.88023952,116.3796,117.3791,,,,,,,,,,,,,,,,,,,,,,,,,,117.3792,118.0467,z,1,0.6521,,118.0468,118.0469,,0,6,6,201,1,202,lingin,,,,,6,harmonic,1.6,,z,,,,,,,
,,,,,,,,,,,816277,,001,2024-02-10_12h46.34.146,VH_new_version1,2023.2.3,Win32,59.88023952,118.0473,119.0465,,,,,,,,,,,,,,,,,,,,,,,,,,119.0466,119.6136,m,1,0.5524,,119.6137,119.6138,,0,7,7,5,1,6,üzüm,716,32.5322,588,0.0643,4,harmonic,1.45,4.512313434,m,,,,,,,
,,,,,,,,,,,816277,,001,2024-02-10_12h46.34.146,VH_new_version1,2023.2.3,Win32,59.88023952,119.6141,120.6141,,,,,,,,,,,,,,,,,,,,,,,,,,120.6141,121.4812,z,1,0.8563,,121.4813,121.4813,,0,8,8,212,1,213,yeryek,,,,,6,harmonic,1.9,,z,,,,,,,
,,,,,,,,,,,816277,,001,2024-02-10_12h46.34.146,VH_new_version1,2023.2.3,Win32,59.88023952,121.4817,122.4813,,,,,,,,,,,,,,,,,,,,,,,,,,122.4815,123.1815,z,1,0.6856,,123.1816,123.1817,,0,9,9,196,1,197,etçime,,,,,6,harmonic,1.9,,z,,,,,,,
,,,,,,,,,,,816277,,001,2024-02-10_12h46.34.146,VH_new_version1,2023.2.3,Win32,59.88023952,123.1821,124.182,,,,,,,,,,,,,,,,,,,,,,,,,,124.182,124.7821,m,1,0.5934,,124.7822,124.7822,,0,10,10,92,1,93,adet,4367,198.4192,3768,0.4119,4,notharmonic,1.4,5.297583694,m,,,,,,,
,,,,,,,,,,,816277,,001,2024-02-10_12h46.34.146,VH_new_version1,2023.2.3,Win32,59.88023952,124.7826,125.7825,,,,,,,,,,,,,,,,,,,,,,,,,,125.7826,126.4662,z,1,0.6669,,126.4662,126.4664,,0,11,11,254,1,255,hadir,,,,,5,notharmonic,1.4,,z,,,,,,,
,,,,,,,,,,,816277,,001,2024-02-10_12h46.34.146,VH_new_version1,2023.2.3,Win32,59.88023952,126.4669,127.4668,,,,,,,,,,,,,,,,,,,,,,,,,,127.4669,128.1834,m,1,0.6999,,128.1834,128.1836,,0,12,12,115,1,116,merak,5806,263.8016,5524,0.6039,5,notharmonic,1.65,5.421277425,m,,,,,,,
,,,,,,,,,,,816277,,001,2024-02-10_12h46.34.146,VH_new_version1,2023.2.3,Win32,59.88023952,128.184,129.1839,,,,,,,,,,,,,,,,,,,,,,,,,,129.184,129.8009,z,1,0.6076,,129.8009,129.8011,,0,13,13,278,1,279,avalün,,,,,6,notharmonic,2.2,,z,,,,,,,
,,,,,,,,,,,816277,,001,2024-02-10_12h46.34.146,VH_new_version1,2023.2.3,Win32,59.88023952,129.8016,130.8008,,,,,,,,,,,,,,,,,,,,,,,,,,130.8008,131.3847,m,1,0.5669,,131.3848,131.3848,,0,14,14,79,1,80,kale,567,25.7622,499,0.0546,4,notharmonic,1,4.410982947,m,,,,,,,
,,,,,,,,,,,816277,,001,2024-02-10_12h46.34.146,VH_new_version1,2023.2.3,Win32,59.88023952,131.3851,132.3852,,,,,,,,,,,,,,,,,,,,,,,,,,132.3853,133.0684,z,1,0.6777,,133.0684,133.0684,,0,15,15,277,1,278,şeylam,,,,,6,notharmonic,2,,z,,,,,,,
,,,,,,,,,,,816277,,001,2024-02-10_12h46.34.146,VH_new_version1,2023.2.3,Win32,59.88023952,133.0685,134.0693,,,,,,,,,,,,,,,,,,,,,,,,,,134.0693,134.6693,m,1,0.5933,,134.6694,134.6695,,0,16,16,97,1,98,kalem,994,45.1634,881,0.0963,5,notharmonic,1.35,4.654786629,m,,,,,,,
,,,,,,,,,,,816277,,001,2024-02-10_12h46.34.146,VH_new_version1,2023.2.3,Win32,59.88023952,134.6697,135.6699,,,,,,,,,,,,,,,,,,,,,,,,,,135.6699,136.2529,z,1,0.5785,,136.2529,136.253,,0,17,17,168,1,169,bovon,,,,,5,harmonic,2,,z,,,,,,,
,,,,,,,,,,,816277,,001,2024-02-10_12h46.34.146,VH_new_version1,2023.2.3,Win32,59.88023952,136.2531,137.2538,,,,,,,,,,,,,,,,,,,,,,,,,,137.2538,137.9044,z,1,0.6326,,137.9045,137.9046,,0,18,18,172,1,173,çatuk,,,,,5,harmonic,1.8,,z,,,,,,,
,,,,,,,,,,,816277,,001,2024-02-10_12h46.34.146,VH_new_version1,2023.2.3,Win32,59.88023952,137.9052,138.9045,,,,,,,,,,,,,,,,,,,,,,,,,,138.9045,139.5544,z,1,0.6399,,139.5545,139.5545,,0,19,19,200,1,201,tuzrak,,,,,6,harmonic,1.95,,z,,,,,,,
,,,,,,,,,,,816277,,001,2024-02-10_12h46.34.146,VH_new_version1,2023.2.3,Win32,59.88023952,139.5549,140.5549,,,,,,,,,,,,,,,,,,,,,,,,,,140.555,141.2718,m,1,0.7069,,141.2718,141.2719,,0,20,20,138,1,139,işaret,1888,85.7832,1787,0.1954,6,notharmonic,1.7,4.933402243,m,,,,,,,
,,,,,,,,,,,816277,,001,2024-02-10_12h46.34.146,VH_new_version1,2023.2.3,Win32,59.88023952,141.2722,142.2722,,,,,,,,,,,,,,,,,,,,,,,,,,142.2723,142.9391,z,1,0.6485,,142.9391,142.9391,,0,21,21,213,1,214,zale,,,,,4,notharmonic,1.55,,z,,,,,,,
,,,,,,,,,,,816277,,001,2024-02-10_12h46.34.146,VH_new_version1,2023.2.3,Win32,59.88023952,142.9394,143.9394,,,,,,,,,,,,,,,,,,,,,,,,,,143.9395,144.5399,m,1,0.5945,,144.5399,144.54,,0,22,22,18,1,19,ülke,3121,141.8059,2801,0.3062,4,harmonic,1.65,5.151694301,m,,,,,,,
,,,,,,,,,,,816277,,001,2024-02-10_12h46.34.146,VH_new_version1,2023.2.3,Win32,59.88023952,144.5403,145.5403,,,,,,,,,,,,,,,,,,,,,,,,,,145.5404,146.107,m,1,0.5488,,146.107,146.1071,,0,23,23,4,1,5,öfke,606,27.5342,542,0.0593,4,harmonic,1.85,4.439872463,m,,,,,,,
,,,,,,,,,,,816277,,001,2024-02-10_12h46.34.146,VH_new_version1,2023.2.3,Win32,59.88023952,146.1075,147.1074,,,,,,,,,,,,,,,,,,,,,,,,,,147.1075,147.7577,m,1,0.6343,,147.7578,147.7578,,0,24,24,82,1,83,şair,889,40.3926,775,0.0847,4,notharmonic,1.75,4.606301809,m,,,,,,,
,,,,,,,,,,,816277,,001,2024-02-10_12h46.34.146,VH_new_version1,2023.2.3,Win32,59.88023952,147.7581,148.7581,,,,,,,,,,,,,,,,,,,,,,,,,,148.7582,149.325,z,1,0.5523,,149.325,149.3251,,0,25,25,158,1,159,uzot,,,,,4,harmonic,1.9,,z,,,,,,,
,,,,,,,,,,,816277,,001,2024-02-10_12h46.34.146,VH_new_version1,2023.2.3,Win32,59.88023952,149.3253,150.3254,,,,,,,,,,,,,,,,,,,,,,,,,,150.3254,150.9757,m,1,0.6427,,150.9758,150.9759,,0,26,26,21,1,22,kötü,9344,424.5543,8257,0.9027,4,harmonic,1.65,5.627933244,m,,,,,,,
,,,,,,,,,,,816277,,001,2024-02-10_12h46.34.146,VH_new_version1,2023.2.3,Win32,59.88023952,150.9763,151.9759,,,,,,,,,,,,,,,,,,,,,,,,,,151.976,152.6595,z,1,0.6711,,152.6596,152.6598,,0,27,27,211,1,212,yıksık,,,,,6,harmonic,1.8,,z,,,,,,,
,,,,,,,,,,,816277,,001,2024-02-10_12h46.34.146,VH_new_version1,2023.2.3,Win32,59.88023952,152.6603,153.66,,,,,,,,,,,,,,,,,,,,,,,,,,153.66,154.3268,m,1,0.6504,,154.3268,154.3269,,0,28,28,11,1,12,öykü,958,43.5277,849,0.0928,4,harmonic,1.9,4.63876572,m,,,,,,,
,,,,,,,,,,,816277,,001,2024-02-10_12h46.34.146,VH_new_version1,2023.2.3,Win32,59.88023952,154.3271,155.3273,,,,,,,,,,,,,,,,,,,,,,,,,,155.3273,155.9272,m,1,0.5838,,155.9272,155.9272,,0,29,29,19,1,20,baba,3645,165.6143,3131,0.3423,4,harmonic,1,5.219097833,m,,,,,,,
,,,,,,,,,,,816277,,001,2024-02-10_12h46.34.146,VH_new_version1,2023.2.3,Win32,59.88023952,155.9276,156.9278,,,,,,,,,,,,,,,,,,,,,,,,,,156.9278,157.5282,z,1,0.5826,,157.5282,157.5284,,0,30,30,245,1,246,gaset,,,,,5,notharmonic,1.85,,z,,,,,,,
,,,,,,,,,,,816277,,001,2024-02-10_12h46.34.146,VH_new_version1,2023.2.3,Win32,59.88023952,157.5288,158.5287,,,,,,,,,,,,,,,,,,,,,,,,,,158.5287,159.1786,z,1,0.6325,,159.1787,159.1787,,0,31,31,186,1,187,erbik,,,,,5,harmonic,1.75,,z,,,,,,,
,,,,,,,,,,,816277,,001,2024-02-10_12h46.34.146,VH_new_version1,2023.2.3,Win32,59.88023952,159.1792,160.179,,,,,,,,,,,,,,,,,,,,,,,,,,160.1791,160.729,m,1,0.5389,,160.7291,160.7292,,0,32,32,50,1,51,kurşun,604,27.4434,551,0.0602,6,harmonic,1.55,4.438437916,m,,,,,,,
,,,,,,,,,,,816277,,001,2024-02-10_12h46.34.146,VH_new_version1,2023.2.3,Win32,59.88023952,160.7294,161.7296,,,,,,,,,,,,,,,,,,,,,,,,,,161.7296,162.5298,m,1,0.7889,,162.5298,162.5299,,0,33,33,23,1,24,evet,12599,572.4486,11447,1.2514,4,harmonic,1.65,5.757736498,m,,,,,,,
,,,,,,,,,,,816277,,001,2024-02-10_12h46.34.146,VH_new_version1,2023.2.3,Win32,59.88023952,162.5303,163.5303,,,,,,,,,,,,,,,,,,,,,,,,,,163.5304,165.1642,z,1,1.6292,,165.1642,165.1642,,0,34,34,165,1,166,eyel,,,,,4,harmonic,1.65,,z,,,,,,,
,,,,,,,,,,,816277,,001,2024-02-10_12h46.34.146,VH_new_version1,2023.2.3,Win32,59.88023952,165.1644,166.1648,,,,,,,,,,,,,,,,,,,,,,,,,,166.1648,166.7482,m,1,0.5715,,166.7483,166.7483,,0,35,35,137,1,138,tedavi,1865,84.7382,1597,0.1746,6,notharmonic,1.8,4.928079235,m,,,,,,,
,,,,,,,,,,,816277,,001,2024-02-10_12h46.34.146,VH_new_version1,2023.2.3,Win32,59.88023952,166.7488,167.7487,,,,,,,,,,,,,,,,,,,,,,,,,,167.7489,168.4322,z,0,0.6664,,168.4322,168.4323,,0,36,36,72,1,73,bela,373,16.9476,355,0.0388,4,notharmonic,1.4,4.229108205,m,,,,,,,
,,,,,,,,,,,816277,,001,2024-02-10_12h46.34.146,VH_new_version1,2023.2.3,Win32,59.88023952,168.4327,169.4326,,,,,,,,,,,,,,,,,,,,,,,,,,169.4327,169.966,m,1,0.5256,,169.9661,169.9661,,0,37,37,12,1,13,ağaç,1245,56.5679,1082,0.1183,4,harmonic,1.6,4.752570056,m,,,,,,,
,,,,,,,,,,,816277,,001,2024-02-10_12h46.34.146,VH_new_version1,2023.2.3,Win32,59.88023952,169.9662,170.9663,,,,,,,,,,,,,,,,,,,,,,,,,,170.9663,171.6166,z,1,0.6413,,171.6166,171.6167,,0,38,38,217,1,218,heka,,,,,4,notharmonic,1.75,,z,,,,,,,
,,,,,,,,,,,816277,,001,2024-02-10_12h46.34.146,VH_new_version1,2023.2.3,Win32,59.88023952,171.617,172.6173,,,,,,,,,,,,,,,,,,,,,,,,,,172.6174,173.4008,z,1,0.7663,,173.4008,173.401,,0,39,39,255,1,256,resap,,,,,5,notharmonic,1.9,,z,,,,,,,
,,,,,,,,,,,816277,,001,2024-02-10_12h46.34.146,VH_new_version1,2023.2.3,Win32,59.88023952,173.4013,174.4011,,,,,,,,,,,,,,,,,,,,,,,,,,174.4012,174.9514,m,1,0.5332,,174.9514,174.9515,,0,40,40,57,1,58,bayram,1948,88.5094,1648,0.1802,6,harmonic,1.85,4.946989397,m,,,,,,,
,,,,,,,,,,,816277,,001,2024-02-10_12h46.34.146,VH_new_version1,2023.2.3,Win32,59.88023952,174.9519,175.9516,,,,,,,,,,,,,,,,,,,,,,,,,,175.9516,176.5853,z,1,0.6225,,176.5854,176.5854,,0,41,41,266,1,267,ebvace,,,,,6,notharmonic,2.95,,z,,,,,,,
,,,,,,,,,,,816277,,001,2024-02-10_12h46.34.146,VH_new_version1,2023.2.3,Win32,59.88023952,176.5858,177.5857,,,,,,,,,,,,,,,,,,,,,,,,,,177.5857,178.3691,z,1,0.7661,,178.3692,178.3692,,0,42,42,225,1,226,elda,,,,,4,notharmonic,1.6,,z,,,,,,,
,,,,,,,,,,,816277,,001,2024-02-10_12h46.34.146,VH_new_version1,2023.2.3,Win32,59.88023952,178.3696,179.3699,,,,,,,,,,,,,,,,,,,,,,,,,,179.3699,179.9866,m,1,0.5982,,179.9866,179.9867,,0,43,43,31,1,32,pembe,1549,70.3804,1327,0.1451,5,harmonic,2,4.847451731,m,,,,,,,
,,,,,,,,,,,816277,,001,2024-02-10_12h46.34.146,VH_new_version1,2023.2.3,Win32,59.88023952,179.9872,180.9872,,,,,,,,,,,,,,,,,,,,,,,,,,180.9873,181.5207,m,1,0.5242,,181.5207,181.5207,,0,44,44,94,1,95,anne,8179,371.6213,6883,0.7525,4,notharmonic,1.85,5.570100598,m,,,,,,,
,,,,,,,,,,,816277,,001,2024-02-10_12h46.34.146,VH_new_version1,2023.2.3,Win32,59.88023952,181.5211,182.5208,,,,,,,,,,,,,,,,,,,,,,,,,,182.5209,183.1714,z,1,0.6385,,183.1715,183.1716,,0,45,45,199,1,200,bartam,,,,,6,harmonic,1.85,,z,,,,,,,
,,,,,,,,,,,816277,,001,2024-02-10_12h46.34.146,VH_new_version1,2023.2.3,Win32,59.88023952,183.1719,184.1713,,,,,,,,,,,,,,,,,,,,,,,,,,184.1713,184.8214,m,1,0.6359,,184.8214,184.8215,,0,46,46,127,1,128,sanayi,835,37.9391,737,0.0806,6,notharmonic,2,4.579087024,m,,,,,,,
,,,,,,,,,,,816277,,001,2024-02-10_12h46.34.146,VH_new_version1,2023.2.3,Win32,59.88023952,184.8217,185.8221,,,,,,,,,,,,,,,,,,,,,,,,,,185.8222,186.3731,m,1,0.5365,,186.3731,186.3732,,0,47,47,68,1,69,devlet,5766,261.9842,4854,0.5306,6,harmonic,1.65,5.4182751,m,,,,,,,
,,,,,,,,,,,816277,,001,2024-02-10_12h46.34.146,VH_new_version1,2023.2.3,Win32,59.88023952,186.3737,187.373,,,,,,,,,,,,,,,,,,,,,,,,,,187.373,188.1398,z,1,0.7492,,188.1398,188.1398,,0,48,48,257,1,258,seran,,,,,5,notharmonic,1.35,,z,,,,,,,
,,,,,,,,,,,816277,,001,2024-02-10_12h46.34.146,VH_new_version1,2023.2.3,Win32,59.88023952,188.1402,189.14,,,,,,,,,,,,,,,,,,,,,,,,,,189.1401,189.8071,z,1,0.6568,,189.8071,189.8072,,0,49,49,179,1,180,şünle,,,,,5,harmonic,1.75,,z,,,,,,,
,,,,,,,,,,,816277,,001,2024-02-10_12h46.34.146,VH_new_version1,2023.2.3,Win32,59.88023952,189.8077,190.8072,,,,,,,,,,,,,,,,,,,,,,,,,,190.8072,191.324,m,1,0.5043,,191.3241,191.3241,,0,50,50,1,1,2,ufuk,437,19.8555,403,0.0441,4,harmonic,1.85,4.297880828,m,,,,,,,
,,,,,,,,,,,816277,,001,2024-02-10_12h46.34.146,VH_new_version1,2023.2.3,Win32,59.88023952,191.3244,192.3246,,,,,,,,,,,,,,,,,,,,,,,,,,192.3246,192.8916,m,1,0.5529,,192.8916,192.8916,,0,51,51,48,1,49,çocuk,10612,482.1672,8979,0.9816,5,harmonic,1.75,5.683197664,m,,,,,,,
,,,,,,,,,,,816277,,001,2024-02-10_12h46.34.146,VH_new_version1,2023.2.3,Win32,59.88023952,192.8921,193.8923,,,,,,,,,,,,,,,,,,,,,,,,,,193.8925,194.5251,z,1,0.6275,,194.5251,194.5251,,0,52,52,237,1,238,masem,,,,,5,notharmonic,1.7,,z,,,,,,,
,,,,,,,,,,,816277,,001,2024-02-10_12h46.34.146,VH_new_version1,2023.2.3,Win32,59.88023952,194.5252,195.526,,,,,,,,,,,,,,,,,,,,,,,,,,195.526,196.2264,z,1,0.6892,,196.2264,196.2265,,0,53,53,236,1,237,alte,,,,,4,notharmonic,1.7,,z,,,,,,,
,,,,,,,,,,,816277,,001,2024-02-10_12h46.34.146,VH_new_version1,2023.2.3,Win32,59.88023952,196.2268,197.2265,,,,,,,,,,,,,,,,,,,,,,,,,,197.2265,197.9269,z,1,0.6841,,197.9269,197.9269,,0,54,54,192,1,193,kumgun,,,,,6,harmonic,1.85,,z,,,,,,,
,,,,,,,,,,,816277,,001,2024-02-10_12h46.34.146,VH_new_version1,2023.2.3,Win32,59.88023952,197.9274,198.9271,,,,,,,,,,,,,,,,,,,,,,,,,,198.9272,199.6941,m,0,0.7497,,199.6941,199.6941,,0,55,55,181,1,182,masus,,,,,5,harmonic,1.7,,z,,,,,,,
,,,,,,,,,,,816277,,001,2024-02-10_12h46.34.146,VH_new_version1,2023.2.3,Win32,59.88023952,199.6944,200.6944,,,,,,,,,,,,,,,,,,,,,,,,,,200.6944,201.3447,m,1,0.6405,,201.3448,201.3448,,0,56,56,6,1,7,avuç,729,33.1229,659,0.072,4,harmonic,1.85,4.520128353,m,,,,,,,
,,,,,,,,,,,816277,,001,2024-02-10_12h46.34.146,VH_new_version1,2023.2.3,Win32,59.88023952,201.3452,202.3451,,,,,,,,,,,,,,,,,,,,,,,,,,202.3451,202.9785,z,1,0.6147,,202.9786,202.9786,,0,57,57,169,1,170,senez,,,,,5,harmonic,1.65,,z,,,,,,,
,,,,,,,,,,,816277,,001,2024-02-10_12h46.34.146,VH_new_version1,2023.2.3,Win32,59.88023952,202.979,203.9792,,,,,,,,,,,,,,,,,,,,,,,,,,203.9792,204.5795,m,1,0.5837,,204.5795,204.5796,,0,58,58,78,1,79,şifa,534,24.2628,502,0.0549,4,notharmonic,1.75,4.384940918,m,,,,,,,
,,,,,,,,,,,816277,,001,2024-02-10_12h46.34.146,VH_new_version1,2023.2.3,Win32,59.88023952,204.5799,205.5797,,,,,,,,,,,,,,,,,,,,,,,,,,205.5797,206.3133,m,1,0.7234,,206.3134,206.3135,,0,59,59,114,1,115,beyaz,5517,250.6706,4788,0.5234,5,notharmonic,1.85,5.399103401,m,,,,,,,
,,,,,,,,,,,816277,,001,2024-02-10_12h46.34.146,VH_new_version1,2023.2.3,Win32,59.88023952,206.314,207.3141,,,,,,,,,,,,,,,,,,,,,,,,,,207.3142,208.0306,z,1,0.7013,,208.0307,208.0307,,0,60,60,206,1,207,teşcik,,,,,6,harmonic,1.9,,z,,,,,,,
,,,,,,,,,,,816277,,001,2024-02-10_12h46.34.146,VH_new_version1,2023.2.3,Win32,59.88023952,208.0313,209.031,,,,,,,,,,,,,,,,,,,,,,,,,,209.031,209.7981,z,1,0.7599,,209.7982,209.7983,,0,61,61,231,1,232,babi,,,,,4,notharmonic,1.4,,z,,,,,,,
,,,,,,,,,,,816277,,001,2024-02-10_12h46.34.146,VH_new_version1,2023.2.3,Win32,59.88023952,209.7986,210.7983,,,,,,,,,,,,,,,,,,,,,,,,,,210.7983,211.4319,m,1,0.6176,,211.432,211.432,,0,62,62,104,1,105,tatil,2152,97.7783,1865,0.2039,5,notharmonic,1.7,4.990242482,m,,,,,,,
,,,,,,,,,,,816277,,001,2024-02-10_12h46.34.146,VH_new_version1,2023.2.3,Win32,59.88023952,211.4324,212.4323,,,,,,,,,,,,,,,,,,,,,,,,,,212.4324,213.3326,m,1,0.886,,213.3327,213.3327,,0,63,63,122,1,123,fincan,431,19.5829,401,0.0438,6,notharmonic,1.9,4.291877006,m,,,,,,,
,,,,,,,,,,,816277,,001,2024-02-10_12h46.34.146,VH_new_version1,2023.2.3,Win32,59.88023952,213.333,214.3329,,,,,,,,,,,,,,,,,,,,,,,,,,214.333,215.0163,z,1,0.6738,,215.0163,215.0164,,0,64,64,251,1,252,madit,,,,,5,notharmonic,1.9,,z,,,,,,,
,,,,,,,,,,,816277,,001,2024-02-10_12h46.34.146,VH_new_version1,2023.2.3,Win32,59.88023952,215.0165,216.017,,,,,,,,,,,,,,,,,,,,,,,,,,216.0171,216.6004,m,1,0.5743,,216.6005,216.6006,,0,65,65,29,1,30,şarap,926,42.0738,787,0.086,5,harmonic,1.9,4.624011738,m,,,,,,,
,,,,,,,,,,,816277,,001,2024-02-10_12h46.34.146,VH_new_version1,2023.2.3,Win32,59.88023952,216.6008,217.6009,,,,,,,,,,,,,,,,,,,,,,,,,,217.6009,218.2178,z,1,0.6075,,218.2179,218.218,,0,66,66,203,1,204,yağcır,,,,,6,harmonic,1.9,,z,,,,,,,
,,,,,,,,,,,816277,,001,2024-02-10_12h46.34.146,VH_new_version1,2023.2.3,Win32,59.88023952,218.2183,219.2184,,,,,,,,,,,,,,,,,,,,,,,,,,219.2184,219.8518,z,1,0.6149,,219.8518,219.8519,,0,67,67,268,1,269,mucepi,,,,,6,notharmonic,2.85,,z,,,,,,,
,,,,,,,,,,,816277,,001,2024-02-10_12h46.34.146,VH_new_version1,2023.2.3,Win32,59.88023952,219.8523,220.8521,,,,,,,,,,,,,,,,,,,,,,,,,,220.8522,221.4529,m,1,0.5863,,221.4529,221.453,,0,68,68,15,1,16,ışık,1814,82.421,1635,0.1787,4,harmonic,1.6,4.916037879,m,,,,,,,
,,,,,,,,,,,816277,,001,2024-02-10_12h46.34.146,VH_new_version1,2023.2.3,Win32,59.88023952,221.4533,222.4527,,,,,,,,,,,,,,,,,,,,,,,,,,222.4528,223.0529,z,1,0.586,,223.0529,223.0531,,0,69,69,215,1,216,zali,,,,,4,notharmonic,1.25,,z,,,,,,,
,,,,,,,,,,,816277,,001,2024-02-10_12h46.34.146,VH_new_version1,2023.2.3,Win32,59.88023952,223.0532,224.0533,,,,,,,,,,,,,,,,,,,,,,,,,,224.0534,224.6368,m,1,0.5777,,224.6369,274.873,space,0,70,70,33,1,34,sayfa,1655,75.1966,1502,0.1642,5,harmonic,1.45,4.876198204,m,50.2287,,,,,,
,,,,,,,,,,,816277,,001,2024-02-10_12h46.34.146,VH_new_version1,2023.2.3,Win32,59.88023952,274.8797,275.873,,,,,,,,,,,,,,,,,,,,,,,,,,275.873,276.5068,z,1,0.6217,,276.5068,276.5069,,0,71,71,250,1,251,hapef,,,,,5,notharmonic,1.95,,z,,,,,,,
,,,,,,,,,,,816277,,001,2024-02-10_12h46.34.146,VH_new_version1,2023.2.3,Win32,59.88023952,276.5072,277.5071,,,,,,,,,,,,,,,,,,,,,,,,,,277.5071,278.0239,m,1,0.5002,,278.024,278.024,,0,72,72,22,1,23,özel,9726,441.9109,8559,0.9357,4,harmonic,1.35,5.645334714,m,,,,,,,
,,,,,,,,,,,816277,,001,2024-02-10_12h46.34.146,VH_new_version1,2023.2.3,Win32,59.88023952,278.0245,279.0244,,,,,,,,,,,,,,,,,,,,,,,,,,279.0244,279.5745,m,1,0.5326,,279.5746,279.5747,,0,73,73,135,1,136,reklam,1565,71.1074,1244,0.136,6,notharmonic,1.9,4.851914799,m,,,,,,,
,,,,,,,,,,,816277,,001,2024-02-10_12h46.34.146,VH_new_version1,2023.2.3,Win32,59.88023952,279.575,280.5749,,,,,,,,,,,,,,,,,,,,,,,,,,280.5749,281.1585,m,1,0.5677,,281.1586,281.1586,,0,74,74,113,1,114,cevap,5232,237.7213,4822,0.5271,5,notharmonic,1.85,5.376068097,m,,,,,,,
,,,,,,,,,,,816277,,001,2024-02-10_12h46.34.146,VH_new_version1,2023.2.3,Win32,59.88023952,281.1589,282.1589,,,,,,,,,,,,,,,,,,,,,,,,,,282.1589,282.9925,z,1,0.8156,,282.9925,282.9926,,0,75,75,216,1,217,same,,,,,4,notharmonic,1.6,,z,,,,,,,
,,,,,,,,,,,816277,,001,2024-02-10_12h46.34.146,VH_new_version1,2023.2.3,Win32,59.88023952,282.993,283.9928,,,,,,,,,,,,,,,,,,,,,,,,,,283.9929,284.8103,z,1,0.8062,,284.8103,284.8103,,0,76,76,150,1,151,acuz,,,,,4,harmonic,1.65,,z,,,,,,,
,,,,,,,,,,,816277,,001,2024-02-10_12h46.34.146,VH_new_version1,2023.2.3,Win32,59.88023952,284.8106,285.8101,,,,,,,,,,,,,,,,,,,,,,,,,,285.8102,286.4606,z,1,0.6439,,286.4606,286.4606,,0,77,77,197,1,198,zemkin,,,,,6,harmonic,1.85,,z,,,,,,,
,,,,,,,,,,,816277,,001,2024-02-10_12h46.34.146,VH_new_version1,2023.2.3,Win32,59.88023952,286.461,287.4606,,,,,,,,,,,,,,,,,,,,,,,,,,287.4607,288.1112,z,1,0.6428,,288.1113,288.1113,,0,78,78,247,1,248,fiyan,,,,,5,notharmonic,1.6,,z,,,,,,,
,,,,,,,,,,,816277,,001,2024-02-10_12h46.34.146,VH_new_version1,2023.2.3,Win32,59.88023952,288.1117,289.1115,,,,,,,,,,,,,,,,,,,,,,,,,,289.1115,289.6951,m,1,0.5671,,289.6951,289.6951,,0,79,79,37,1,38,cümle,1911,86.8283,1765,0.193,5,harmonic,1.85,4.938661298,m,,,,,,,
,,,,,,,,,,,816277,,001,2024-02-10_12h46.34.146,VH_new_version1,2023.2.3,Win32,59.88023952,289.6956,290.6954,,,,,,,,,,,,,,,,,,,,,,,,,,290.6954,291.3289,m,1,0.6162,,291.3289,291.3291,,0,80,80,132,1,133,gazete,1402,63.7013,1270,0.1388,6,notharmonic,1.8,4.804148295,m,,,,,,,
,,,,,,,,,,,816277,,001,2024-02-10_12h46.34.146,VH_new_version1,2023.2.3,Win32,59.88023952,291.3294,292.3294,,,,,,,,,,,,,,,,,,,,,,,,,,292.3295,292.963,z,1,0.621,,292.963,292.9631,,0,81,81,209,1,210,soğkal,,,,,6,harmonic,2.1,,z,,,,,,,
,,,,,,,,,,,816277,,001,2024-02-10_12h46.34.146,VH_new_version1,2023.2.3,Win32,59.88023952,292.9634,293.9633,,,,,,,,,,,,,,,,,,,,,,,,,,293.9634,294.5471,m,1,0.5714,,294.5472,294.5472,,0,82,82,70,1,71,gerçek,8983,408.1519,8058,0.8809,6,harmonic,1.7,5.610821823,m,,,,,,,
,,,,,,,,,,,816277,,001,2024-02-10_12h46.34.146,VH_new_version1,2023.2.3,Win32,59.88023952,294.5475,295.5473,,,,,,,,,,,,,,,,,,,,,,,,,,295.5473,296.3309,z,1,0.765,,296.331,296.3311,,0,83,83,223,1,224,mame,,,,,4,notharmonic,1.65,,z,,,,,,,
,,,,,,,,,,,816277,,001,2024-02-10_12h46.34.146,VH_new_version1,2023.2.3,Win32,59.88023952,296.3315,297.3313,,,,,,,,,,,,,,,,,,,,,,,,,,297.3314,297.9812,m,1,0.6439,,297.9812,297.9812,,0,84,84,32,1,33,güney,1639,74.4697,1439,0.1573,5,harmonic,1.65,4.871979604,m,,,,,,,
,,,,,,,,,,,816277,,001,2024-02-10_12h46.34.146,VH_new_version1,2023.2.3,Win32,59.88023952,297.9815,298.9821,,,,,,,,,,,,,,,,,,,,,,,,,,298.9821,299.6655,z,1,0.6659,,299.6655,299.6656,,0,85,85,214,1,215,dera,,,,,4,notharmonic,1.2,,z,,,,,,,
,,,,,,,,,,,816277,,001,2024-02-10_12h46.34.146,VH_new_version1,2023.2.3,Win32,59.88023952,299.6659,300.6658,,,,,,,,,,,,,,,,,,,,,,,,,,300.6659,301.2497,m,1,0.5667,,301.2498,301.2499,,0,86,86,100,1,101,sahne,1380,62.7017,1238,0.1353,5,notharmonic,1.65,4.797279316,m,,,,,,,
,,,,,,,,,,,816277,,001,2024-02-10_12h46.34.146,VH_new_version1,2023.2.3,Win32,59.88023952,301.2503,302.2497,,,,,,,,,,,,,,,,,,,,,,,,,,302.2497,302.9,z,1,0.646,,302.9,302.9,,0,87,87,228,1,229,idna,,,,,4,notharmonic,1.8,,z,,,,,,,
,,,,,,,,,,,816277,,001,2024-02-10_12h46.34.146,VH_new_version1,2023.2.3,Win32,59.88023952,302.9003,303.9005,,,,,,,,,,,,,,,,,,,,,,,,,,303.9006,304.484,m,1,0.5708,,304.484,304.4841,,0,88,88,130,1,131,saniye,1088,49.4344,984,0.1076,6,notharmonic,1.35,4.694029267,m,,,,,,,
,,,,,,,,,,,816277,,001,2024-02-10_12h46.34.146,VH_new_version1,2023.2.3,Win32,59.88023952,304.4845,305.4846,,,,,,,,,,,,,,,,,,,,,,,,,,305.4847,306.0676,z,1,0.5782,,306.0676,306.0676,,0,89,89,232,1,233,leda,,,,,4,notharmonic,1.6,,z,,,,,,,
,,,,,,,,,,,816277,,001,2024-02-10_12h46.34.146,VH_new_version1,2023.2.3,Win32,59.88023952,306.0679,307.0683,,,,,,,,,,,,,,,,,,,,,,,,,,307.0684,307.6849,z,1,0.6114,,307.6849,307.6849,,0,90,90,271,1,272,yakele,,,,,6,notharmonic,2,,z,,,,,,,
,,,,,,,,,,,816277,,001,2024-02-10_12h46.34.146,VH_new_version1,2023.2.3,Win32,59.88023952,307.6851,308.6862,,,,,,,,,,,,,,,,,,,,,,,,,,308.6862,309.386,m,1,0.68,,309.386,309.3861,,0,91,91,105,1,106,nisan,2321,105.457,2044,0.2235,5,notharmonic,1.6,5.023075413,m,,,,,,,
,,,,,,,,,,,816277,,001,2024-02-10_12h46.34.146,VH_new_version1,2023.2.3,Win32,59.88023952,309.3865,310.3862,,,,,,,,,,,,,,,,,,,,,,,,,,310.3862,311.0031,m,1,0.6045,,311.0032,311.0033,,0,92,92,71,1,72,fare,364,16.5387,310,0.0339,4,notharmonic,1.35,4.218501369,m,,,,,,,
,,,,,,,,,,,816277,,001,2024-02-10_12h46.34.146,VH_new_version1,2023.2.3,Win32,59.88023952,311.0037,312.0034,,,,,,,,,,,,,,,,,,,,,,,,,,312.0035,312.937,m,0,0.9236,,312.9371,312.9371,,0,93,93,261,1,262,eksan,,,,,5,notharmonic,1.7,,z,,,,,,,
,,,,,,,,,,,816277,,001,2024-02-10_12h46.34.146,VH_new_version1,2023.2.3,Win32,59.88023952,312.9373,313.9377,,,,,,,,,,,,,,,,,,,,,,,,,,313.9377,315.0213,z,1,1.0686,,315.0214,315.0214,,0,94,94,248,1,249,talif,,,,,5,notharmonic,1.5,,z,,,,,,,
,,,,,,,,,,,816277,,001,2024-02-10_12h46.34.146,VH_new_version1,2023.2.3,Win32,59.88023952,315.0218,316.0218,,,,,,,,,,,,,,,,,,,,,,,,,,316.0218,316.7387,m,1,0.7056,,316.7388,316.7388,,0,95,95,35,1,36,araba,1704,77.423,1485,0.1623,5,harmonic,1,4.888869995,m,,,,,,,
,,,,,,,,,,,816277,,001,2024-02-10_12h46.34.146,VH_new_version1,2023.2.3,Win32,59.88023952,316.7392,317.7391,,,,,,,,,,,,,,,,,,,,,,,,,,317.7391,318.5893,m,1,0.8356,,318.5893,318.5895,,0,96,96,56,1,57,meslek,1082,49.1618,976,0.1067,6,harmonic,1.9,4.691627776,m,,,,,,,
,,,,,,,,,,,816277,,001,2024-02-10_12h46.34.146,VH_new_version1,2023.2.3,Win32,59.88023952,318.5898,319.5897,,,,,,,,,,,,,,,,,,,,,,,,,,319.5899,320.2734,z,1,0.6729,,320.2734,320.2735,,0,97,97,246,1,247,masil,,,,,5,notharmonic,1.7,,z,,,,,,,
,,,,,,,,,,,816277,,001,2024-02-10_12h46.34.146,VH_new_version1,2023.2.3,Win32,59.88023952,320.2737,321.2737,,,,,,,,,,,,,,,,,,,,,,,,,,321.2738,321.9404,m,1,0.6624,,321.9404,321.9404,,0,98,98,16,1,17,umut,1988,90.3268,1818,0.1987,4,harmonic,1.55,4.955816625,m,,,,,,,
,,,,,,,,,,,816277,,001,2024-02-10_12h46.34.146,VH_new_version1,2023.2.3,Win32,59.88023952,321.9407,322.941,,,,,,,,,,,,,,,,,,,,,,,,,,322.9411,323.5242,m,1,0.5774,,323.5242,323.5243,,0,99,99,26,1,27,boyun,843,38.3026,777,0.0849,5,harmonic,1.05,4.583228255,m,,,,,,,
,,,,,,,,,,,816277,,001,2024-02-10_12h46.34.146,VH_new_version1,2023.2.3,Win32,59.88023952,323.5245,324.525,,,,,,,,,,,,,,,,,,,,,,,,,,324.525,325.1086,m,1,0.5702,,325.1087,325.1087,,0,100,100,140,1,141,dakika,5891,267.6637,5207,0.5692,6,notharmonic,1.75,5.427589477,m,,,,,,,
,,,,,,,,,,,816277,,001,2024-02-10_12h46.34.146,VH_new_version1,2023.2.3,Win32,59.88023952,325.1091,326.1091,,,,,,,,,,,,,,,,,,,,,,,,,,326.1091,326.8426,z,1,0.7202,,326.8426,326.8427,,0,101,101,273,1,274,kalkeş,,,,,6,notharmonic,1.85,,z,,,,,,,
,,,,,,,,,,,816277,,001,2024-02-10_12h46.34.146,VH_new_version1,2023.2.3,Win32,59.88023952,326.8431,327.8428,,,,,,,,,,,,,,,,,,,,,,,,,,327.8428,328.4761,m,1,0.6281,,328.4761,328.4762,,0,102,102,74,1,75,kase,390,17.7201,369,0.0403,4,notharmonic,1.3,4.248466168,m,,,,,,,
,,,,,,,,,,,816277,,001,2024-02-10_12h46.34.146,VH_new_version1,2023.2.3,Win32,59.88023952,328.4764,329.4769,,,,,,,,,,,,,,,,,,,,,,,,,,329.4769,330.0934,m,1,0.6107,,330.0934,330.0934,,0,103,103,61,1,62,yağmur,2491,113.1812,2156,0.2357,6,harmonic,1.9,5.053774294,m,,,,,,,
,,,,,,,,,,,816277,,001,2024-02-10_12h46.34.146,VH_new_version1,2023.2.3,Win32,59.88023952,330.0937,331.0942,,,,,,,,,,,,,,,,,,,,,,,,,,331.0942,331.6608,m,1,0.5616,,331.6608,331.661,,0,104,104,91,1,92,aile,3655,166.0687,3126,0.3417,4,notharmonic,1,5.220287786,m,,,,,,,
,,,,,,,,,,,816277,,001,2024-02-10_12h46.34.146,VH_new_version1,2023.2.3,Win32,59.88023952,331.6612,332.6616,,,,,,,,,,,,,,,,,,,,,,,,,,332.6617,333.3617,z,1,0.6828,,333.3618,333.3618,,0,105,105,182,1,183,tesil,,,,,5,harmonic,1.45,,z,,,,,,,
,,,,,,,,,,,816277,,001,2024-02-10_12h46.34.146,VH_new_version1,2023.2.3,Win32,59.88023952,333.3622,334.3621,,,,,,,,,,,,,,,,,,,,,,,,,,334.3622,334.9954,z,1,0.621,,334.9954,334.9954,,0,106,106,155,1,156,megi,,,,,4,harmonic,1.8,,z,,,,,,,
,,,,,,,,,,,816277,,001,2024-02-10_12h46.34.146,VH_new_version1,2023.2.3,Win32,59.88023952,334.9958,335.9961,,,,,,,,,,,,,,,,,,,,,,,,,,335.9962,336.6297,z,1,0.618,,336.6297,336.6297,,0,107,107,260,1,261,dülda,,,,,5,notharmonic,1.95,,z,,,,,,,
,,,,,,,,,,,816277,,001,2024-02-10_12h46.34.146,VH_new_version1,2023.2.3,Win32,59.88023952,336.6301,337.63,,,,,,,,,,,,,,,,,,,,,,,,,,337.6301,338.3968,z,1,0.7523,,338.3968,338.3969,,0,108,108,171,1,172,faraç,,,,,5,harmonic,1.75,,z,,,,,,,
,,,,,,,,,,,816277,,001,2024-02-10_12h46.34.146,VH_new_version1,2023.2.3,Win32,59.88023952,338.3973,339.3975,,,,,,,,,,,,,,,,,,,,,,,,,,339.3975,339.9308,m,1,0.5147,,339.9308,339.9309,,0,109,109,41,1,42,hayal,4498,204.3713,4079,0.4459,5,harmonic,1.45,5.310419907,m,,,,,,,
,,,,,,,,,,,816277,,001,2024-02-10_12h46.34.146,VH_new_version1,2023.2.3,Win32,59.88023952,339.9313,340.9313,,,,,,,,,,,,,,,,,,,,,,,,,,340.9313,341.5649,z,1,0.6201,,341.565,341.565,,0,110,110,249,1,250,sisaj,,,,,5,notharmonic,2,,z,,,,,,,
,,,,,,,,,,,816277,,001,2024-02-10_12h46.34.146,VH_new_version1,2023.2.3,Win32,59.88023952,341.5654,342.5652,,,,,,,,,,,,,,,,,,,,,,,,,,342.5652,343.2488,z,1,0.6675,,343.2489,343.2489,,0,111,111,238,1,239,labin,,,,,5,notharmonic,1.65,,z,,,,,,,
,,,,,,,,,,,816277,,001,2024-02-10_12h46.34.146,VH_new_version1,2023.2.3,Win32,59.88023952,343.2492,344.2491,,,,,,,,,,,,,,,,,,,,,,,,,,344.2491,344.9161,m,1,0.6544,,344.9161,344.9162,,0,112,112,40,1,41,temel,4231,192.2399,3851,0.421,5,harmonic,1.55,5.283843532,m,,,,,,,
,,,,,,,,,,,816277,,001,2024-02-10_12h46.34.146,VH_new_version1,2023.2.3,Win32,59.88023952,344.9166,345.9165,,,,,,,,,,,,,,,,,,,,,,,,,,345.9165,346.6839,m,1,0.7633,,346.6839,346.684,,0,113,113,39,1,40,mayıs,2630,119.4968,2294,0.2508,5,harmonic,1.75,5.077356275,m,,,,,,,
,,,,,,,,,,,816277,,001,2024-02-10_12h46.34.146,VH_new_version1,2023.2.3,Win32,59.88023952,346.6842,347.6838,,,,,,,,,,,,,,,,,,,,,,,,,,347.6839,348.3005,z,1,0.6117,,348.3005,348.3005,,0,114,114,258,1,259,ihati,,,,,5,notharmonic,1.95,,z,,,,,,,
,,,,,,,,,,,816277,,001,2024-02-10_12h46.34.146,VH_new_version1,2023.2.3,Win32,59.88023952,348.3008,349.3011,,,,,,,,,,,,,,,,,,,,,,,,,,349.3011,349.9178,z,1,0.6091,,349.9178,349.9179,,0,115,115,242,1,243,sayke,,,,,5,notharmonic,1.9,,z,,,,,,,
,,,,,,,,,,,816277,,001,2024-02-10_12h46.34.146,VH_new_version1,2023.2.3,Win32,59.88023952,349.918,350.9185,,,,,,,,,,,,,,,,,,,,,,,,,,350.9186,351.4359,z,1,0.5129,,351.436,351.4361,,0,116,116,230,1,231,asez,,,,,4,notharmonic,1.9,,z,,,,,,,
,,,,,,,,,,,816277,,001,2024-02-10_12h46.34.146,VH_new_version1,2023.2.3,Win32,59.88023952,351.4363,352.4361,,,,,,,,,,,,,,,,,,,,,,,,,,352.4361,352.9858,m,1,0.5378,,352.9858,352.986,,0,117,117,67,1,68,sosyal,5290,240.3566,4372,0.4779,6,harmonic,1.85,5.380856052,m,,,,,,,
,,,,,,,,,,,816277,,001,2024-02-10_12h46.34.146,VH_new_version1,2023.2.3,Win32,59.88023952,352.9864,353.9861,,,,,,,,,,,,,,,,,,,,,,,,,,353.9862,354.6198,z,1,0.6142,,354.6198,354.6199,,0,118,118,253,1,254,mafke,,,,,5,notharmonic,1.9,,z,,,,,,,
,,,,,,,,,,,816277,,001,2024-02-10_12h46.34.146,VH_new_version1,2023.2.3,Win32,59.88023952,354.6203,355.6201,,,,,,,,,,,,,,,,,,,,,,,,,,355.6202,356.3372,z,1,0.7068,,356.3372,356.3372,,0,119,119,219,1,220,anel,,,,,4,notharmonic,1.7,,z,,,,,,,
,,,,,,,,,,,816277,,001,2024-02-10_12h46.34.146,VH_new_version1,2023.2.3,Win32,59.88023952,356.3376,357.3374,,,,,,,,,,,,,,,,,,,,,,,,,,357.3374,357.8712,m,1,0.5184,,357.8713,357.8713,,0,120,120,133,1,134,temmuz,1465,66.5638,1351,0.1477,6,notharmonic,2.15,4.823238107,m,,,,,,,
,,,,,,,,,,,816277,,001,2024-02-10_12h46.34.146,VH_new_version1,2023.2.3,Win32,59.88023952,357.8716,358.8714,,,,,,,,,,,,,,,,,,,,,,,,,,358.8715,359.5216,m,1,0.6394,,359.5216,359.5217,,0,121,121,9,1,10,uçak,894,40.6198,752,0.0822,4,harmonic,1.4,4.608737781,m,,,,,,,
,,,,,,,,,,,816277,,001,2024-02-10_12h46.34.146,VH_new_version1,2023.2.3,Win32,59.88023952,359.5221,360.5221,,,,,,,,,,,,,,,,,,,,,,,,,,360.5221,361.1556,z,1,0.616,,361.1556,361.1557,,0,122,122,162,1,163,möre,,,,,4,harmonic,1.65,,z,,,,,,,
,,,,,,,,,,,816277,,001,2024-02-10_12h46.34.146,VH_new_version1,2023.2.3,Win32,59.88023952,361.156,362.1559,,,,,,,,,,,,,,,,,,,,,,,,,,362.156,362.8565,z,1,0.6907,,362.8565,362.8566,,0,123,123,265,1,266,terhan,,,,,6,notharmonic,1.95,,z,,,,,,,
,,,,,,,,,,,816277,,001,2024-02-10_12h46.34.146,VH_new_version1,2023.2.3,Win32,59.88023952,362.857,363.8567,,,,,,,,,,,,,,,,,,,,,,,,,,363.8567,364.5237,z,1,0.6498,,364.5237,364.5237,,0,124,124,259,1,260,kiyaf,,,,,5,notharmonic,1.95,,z,,,,,,,
,,,,,,,,,,,816277,,001,2024-02-10_12h46.34.146,VH_new_version1,2023.2.3,Win32,59.88023952,364.5242,365.5239,,,,,,,,,,,,,,,,,,,,,,,,,,365.5239,366.1407,z,1,0.6119,,366.1407,366.1407,,0,125,125,267,1,268,tapare,,,,,6,notharmonic,1.95,,z,,,,,,,
,,,,,,,,,,,816277,,001,2024-02-10_12h46.34.146,VH_new_version1,2023.2.3,Win32,59.88023952,366.1411,367.1417,,,,,,,,,,,,,,,,,,,,,,,,,,367.1418,367.8246,z,1,0.6736,,367.8247,367.8248,,0,126,126,226,1,227,şüda,,,,,4,notharmonic,1.9,,z,,,,,,,
,,,,,,,,,,,816277,,001,2024-02-10_12h46.34.146,VH_new_version1,2023.2.3,Win32,59.88023952,367.8251,368.8253,,,,,,,,,,,,,,,,,,,,,,,,,,368.8253,369.9423,z,1,1.1,,369.9424,369.9424,,0,127,127,160,1,161,ünte,,,,,4,harmonic,1.65,,z,,,,,,,
,,,,,,,,,,,816277,,001,2024-02-10_12h46.34.146,VH_new_version1,2023.2.3,Win32,59.88023952,369.9428,370.9427,,,,,,,,,,,,,,,,,,,,,,,,,,370.9428,371.6264,m,1,0.6714,,371.6265,371.6265,,0,128,128,52,1,53,buğday,746,33.8953,623,0.0681,6,harmonic,1.9,4.530139482,m,,,,,,,
,,,,,,,,,,,816277,,001,2024-02-10_12h46.34.146,VH_new_version1,2023.2.3,Win32,59.88023952,371.6268,372.6268,,,,,,,,,,,,,,,,,,,,,,,,,,372.6268,373.3435,z,1,0.709,,373.3437,373.3437,,0,129,129,270,1,271,meşkup,,,,,6,notharmonic,1.95,,z,,,,,,,
,,,,,,,,,,,816277,,001,2024-02-10_12h46.34.146,VH_new_version1,2023.2.3,Win32,59.88023952,373.3441,374.344,,,,,,,,,,,,,,,,,,,,,,,,,,374.3441,375.1776,z,1,0.8142,,375.1776,375.1777,,0,130,130,157,1,158,öşek,,,,,4,harmonic,1.7,,z,,,,,,,
,,,,,,,,,,,816277,,001,2024-02-10_12h46.34.146,VH_new_version1,2023.2.3,Win32,59.88023952,375.1781,376.178,,,,,,,,,,,,,,,,,,,,,,,,,,376.178,376.7451,m,1,0.5575,,376.7452,376.7452,,0,131,131,81,1,82,kare,699,31.7598,607,0.0664,4,notharmonic,1,4.501877759,m,,,,,,,
,,,,,,,,,,,816277,,001,2024-02-10_12h46.34.146,VH_new_version1,2023.2.3,Win32,59.88023952,376.7456,377.7453,,,,,,,,,,,,,,,,,,,,,,,,,,377.7454,378.4123,m,1,0.6521,,378.4124,378.4124,,0,132,132,120,1,121,makale,358,16.2661,347,0.0379,6,notharmonic,1.75,4.211283438,m,,,,,,,
,,,,,,,,,,,816277,,001,2024-02-10_12h46.34.146,VH_new_version1,2023.2.3,Win32,59.88023952,378.4128,379.4126,,,,,,,,,,,,,,,,,,,,,,,,,,379.4126,380.1628,m,1,0.7389,,380.1628,380.1628,,0,133,133,10,1,11,eser,958,43.5277,892,0.0975,4,harmonic,1,4.63876572,m,,,,,,,
,,,,,,,,,,,816277,,001,2024-02-10_12h46.34.146,VH_new_version1,2023.2.3,Win32,59.88023952,380.1632,381.1632,,,,,,,,,,,,,,,,,,,,,,,,,,381.1633,381.7636,m,1,0.5815,,381.7636,381.7637,,0,134,134,106,1,107,tarih,2806,127.4935,2483,0.2714,5,notharmonic,1.55,5.105488044,m,,,,,,,
,,,,,,,,,,,816277,,001,2024-02-10_12h46.34.146,VH_new_version1,2023.2.3,Win32,59.88023952,381.7642,382.764,,,,,,,,,,,,,,,,,,,,,,,,,,382.7641,383.364,m,1,0.5923,,383.3641,383.3642,,0,135,135,112,1,113,haber,4559,207.1429,4151,0.4538,5,notharmonic,1.85,5.316270052,m,,,,,,,
,,,,,,,,,,,816277,,001,2024-02-10_12h46.34.146,VH_new_version1,2023.2.3,Win32,59.88023952,383.3644,384.3643,,,,,,,,,,,,,,,,,,,,,,,,,,384.3644,384.8813,m,1,0.5067,,384.8813,384.8814,,0,136,136,24,1,25,dokuz,802,36.4397,646,0.0706,5,harmonic,1.55,4.561574793,m,,,,,,,
,,,,,,,,,,,816277,,001,2024-02-10_12h46.34.146,VH_new_version1,2023.2.3,Win32,59.88023952,384.8817,385.8816,,,,,,,,,,,,,,,,,,,,,,,,,,385.8816,386.6654,z,1,0.7662,,386.6655,386.6656,,0,137,137,220,1,221,nica,,,,,4,notharmonic,1.75,,z,,,,,,,
,,,,,,,,,,,816277,,001,2024-02-10_12h46.34.146,VH_new_version1,2023.2.3,Win32,59.88023952,386.6659,387.6656,,,,,,,,,,,,,,,,,,,,,,,,,,387.6657,388.2498,m,1,0.574,,388.2498,388.2499,,0,138,138,44,1,45,erkek,6188,281.1582,5195,0.5679,5,harmonic,1.55,5.448950754,m,,,,,,,
,,,,,,,,,,,816277,,001,2024-02-10_12h46.34.146,VH_new_version1,2023.2.3,Win32,59.88023952,388.2504,389.2497,,,,,,,,,,,,,,,,,,,,,,,,,,389.2498,389.7667,m,1,0.5103,,389.7667,389.7667,,0,139,139,25,1,26,orman,819,37.2121,705,0.0771,5,harmonic,1.3,4.570684179,m,,,,,,,
,,,,,,,,,,,816277,,001,2024-02-10_12h46.34.146,VH_new_version1,2023.2.3,Win32,59.88023952,389.7671,390.7673,,,,,,,,,,,,,,,,,,,,,,,,,,390.7673,391.3837,m,1,0.5995,,391.3837,391.3838,,0,140,140,55,1,56,zeytin,904,41.0742,758,0.0829,6,harmonic,1.85,4.613569113,m,,,,,,,
,,,,,,,,,,,816277,,001,2024-02-10_12h46.34.146,VH_new_version1,2023.2.3,Win32,59.88023952,391.3842,392.3841,,,,,,,,,,,,,,,,,,,,,,,,,,392.3841,393.0012,z,1,0.6072,,393.0013,482.0518,space,0,141,141,161,1,162,mağa,,,,,4,harmonic,1.15,,z,89.0329,,,,,,
,,,,,,,,,,,816277,,001,2024-02-10_12h46.34.146,VH_new_version1,2023.2.3,Win32,59.88023952,482.0584,483.0518,,,,,,,,,,,,,,,,,,,,,,,,,,483.0518,483.6685,z,1,0.6099,,483.6685,483.6686,,0,142,142,227,1,228,esta,,,,,4,notharmonic,1.7,,z,,,,,,,
,,,,,,,,,,,816277,,001,2024-02-10_12h46.34.146,VH_new_version1,2023.2.3,Win32,59.88023952,483.6688,484.6692,,,,,,,,,,,,,,,,,,,,,,,,,,484.6693,485.2359,z,1,0.5628,,485.236,485.2361,,0,143,143,187,1,188,ahfam,,,,,5,harmonic,1.85,,z,,,,,,,
,,,,,,,,,,,816277,,001,2024-02-10_12h46.34.146,VH_new_version1,2023.2.3,Win32,59.88023952,485.2362,486.2368,,,,,,,,,,,,,,,,,,,,,,,,,,486.2368,486.8535,m,1,0.6018,,486.8535,486.8536,,0,144,144,124,1,125,efsane,522,23.7176,475,0.0519,6,notharmonic,1.95,4.37507074,m,,,,,,,
,,,,,,,,,,,816277,,001,2024-02-10_12h46.34.146,VH_new_version1,2023.2.3,Win32,59.88023952,486.8539,487.8538,,,,,,,,,,,,,,,,,,,,,,,,,,487.8539,488.4374,m,1,0.5698,,488.4374,488.4375,,0,145,145,8,1,9,ağız,824,37.4393,758,0.0829,4,harmonic,1.2,4.57332772,m,,,,,,,
,,,,,,,,,,,816277,,001,2024-02-10_12h46.34.146,VH_new_version1,2023.2.3,Win32,59.88023952,488.4378,489.4378,,,,,,,,,,,,,,,,,,,,,,,,,,489.4379,489.9877,z,1,0.5446,,489.9878,489.9878,,0,146,146,234,1,235,ated,,,,,4,notharmonic,1.8,,z,,,,,,,
,,,,,,,,,,,816277,,001,2024-02-10_12h46.34.146,VH_new_version1,2023.2.3,Win32,59.88023952,489.988,490.9885,,,,,,,,,,,,,,,,,,,,,,,,,,490.9885,491.5551,m,1,0.5502,,491.5552,491.5553,,0,147,147,13,1,14,kedi,1646,74.7877,1394,0.1524,4,harmonic,1.1,4.873830177,m,,,,,,,
,,,,,,,,,,,816277,,001,2024-02-10_12h46.34.146,VH_new_version1,2023.2.3,Win32,59.88023952,491.5558,492.5556,,,,,,,,,,,,,,,,,,,,,,,,,,492.5556,493.2061,z,1,0.6341,,493.2062,493.2062,,0,148,148,148,1,149,aşıç,,,,,4,harmonic,1.65,,z,,,,,,,
,,,,,,,,,,,816277,,001,2024-02-10_12h46.34.146,VH_new_version1,2023.2.3,Win32,59.88023952,493.2067,494.2063,,,,,,,,,,,,,,,,,,,,,,,,,,494.2064,494.74,m,1,0.5222,,494.74,494.74,,0,149,149,62,1,63,kültür,2566,116.5889,2206,0.2412,6,harmonic,1.55,5.066657205,m,,,,,,,
,,,,,,,,,,,816277,,001,2024-02-10_12h46.34.146,VH_new_version1,2023.2.3,Win32,59.88023952,494.7404,495.7401,,,,,,,,,,,,,,,,,,,,,,,,,,495.7401,496.3569,z,1,0.6023,,496.357,496.357,,0,150,150,188,1,189,yahat,,,,,5,harmonic,1.8,,z,,,,,,,
,,,,,,,,,,,816277,,001,2024-02-10_12h46.34.146,VH_new_version1,2023.2.3,Win32,59.88023952,496.3572,497.3575,,,,,,,,,,,,,,,,,,,,,,,,,,497.3575,497.9911,z,1,0.6252,,497.9912,497.9913,,0,151,151,152,1,153,ebür,,,,,4,harmonic,1.95,,z,,,,,,,
,,,,,,,,,,,816277,,001,2024-02-10_12h46.34.146,VH_new_version1,2023.2.3,Win32,59.88023952,497.9917,498.9914,,,,,,,,,,,,,,,,,,,,,,,,,,498.9915,499.6082,m,1,0.607,,499.6082,499.6083,,0,152,152,43,1,44,bilgi,5981,271.7529,5353,0.5852,5,harmonic,1.5,5.434174187,m,,,,,,,
,,,,,,,,,,,816277,,001,2024-02-10_12h46.34.146,VH_new_version1,2023.2.3,Win32,59.88023952,499.6087,500.6091,,,,,,,,,,,,,,,,,,,,,,,,,,500.6092,501.3258,z,1,0.7025,,501.3258,501.3258,,0,153,153,178,1,179,güzül,,,,,5,harmonic,1.65,,z,,,,,,,
,,,,,,,,,,,816277,,001,2024-02-10_12h46.34.146,VH_new_version1,2023.2.3,Win32,59.88023952,501.3261,502.3258,,,,,,,,,,,,,,,,,,,,,,,,,,502.3258,502.9762,z,1,0.6411,,502.9762,502.9762,,0,154,154,281,1,282,tashin,,,,,6,notharmonic,1.85,,z,,,,,,,
,,,,,,,,,,,816277,,001,2024-02-10_12h46.34.146,VH_new_version1,2023.2.3,Win32,59.88023952,502.9767,503.9767,,,,,,,,,,,,,,,,,,,,,,,,,,503.9767,504.5771,z,1,0.5915,,504.5771,504.5771,,0,155,155,149,1,150,irgi,,,,,4,harmonic,1.8,,z,,,,,,,
,,,,,,,,,,,816277,,001,2024-02-10_12h46.34.146,VH_new_version1,2023.2.3,Win32,59.88023952,504.5775,505.5772,,,,,,,,,,,,,,,,,,,,,,,,,,505.5773,506.1942,z,1,0.6054,,506.1942,506.1944,,0,156,156,222,1,223,laze,,,,,4,notharmonic,1.7,,z,,,,,,,
,,,,,,,,,,,816277,,001,2024-02-10_12h46.34.146,VH_new_version1,2023.2.3,Win32,59.88023952,506.1948,507.1946,,,,,,,,,,,,,,,,,,,,,,,,,,507.1946,507.8114,m,1,0.5991,,507.8115,507.8116,,0,157,157,14,1,15,ocak,1685,76.5597,1548,0.1692,4,harmonic,1.9,4.884000223,m,,,,,,,
,,,,,,,,,,,816277,,001,2024-02-10_12h46.34.146,VH_new_version1,2023.2.3,Win32,59.88023952,507.812,508.8119,,,,,,,,,,,,,,,,,,,,,,,,,,508.812,509.5621,m,1,0.7328,,509.5622,509.5622,,0,158,158,2,1,3,iğne,515,23.3996,455,0.0497,4,harmonic,1.65,4.369208434,m,,,,,,,
,,,,,,,,,,,816277,,001,2024-02-10_12h46.34.146,VH_new_version1,2023.2.3,Win32,59.88023952,509.5626,510.5626,,,,,,,,,,,,,,,,,,,,,,,,,,510.5626,511.1962,z,1,0.6206,,511.1962,511.1963,,0,159,159,195,1,196,çoflak,,,,,6,harmonic,2,,z,,,,,,,
,,,,,,,,,,,816277,,001,2024-02-10_12h46.34.146,VH_new_version1,2023.2.3,Win32,59.88023952,511.1966,512.1964,,,,,,,,,,,,,,,,,,,,,,,,,,512.1965,512.8633,z,1,0.6592,,512.8634,512.8634,,0,160,160,210,1,211,bellet,,,,,6,harmonic,1.65,,z,,,,,,,
,,,,,,,,,,,816277,,001,2024-02-10_12h46.34.146,VH_new_version1,2023.2.3,Win32,59.88023952,512.8638,513.8637,,,,,,,,,,,,,,,,,,,,,,,,,,513.8638,514.4973,m,1,0.6164,,514.4974,514.4974,,0,161,161,83,1,84,eşya,1061,48.2076,672,0.0735,4,notharmonic,1.9,4.683115511,m,,,,,,,
,,,,,,,,,,,816277,,001,2024-02-10_12h46.34.146,VH_new_version1,2023.2.3,Win32,59.88023952,514.4977,515.4983,,,,,,,,,,,,,,,,,,,,,,,,,,515.4983,516.1147,m,1,0.5985,,516.1147,516.1148,,0,162,162,64,1,65,teknik,3297,149.8026,2798,0.3059,6,harmonic,1.9,5.175519351,m,,,,,,,
,,,,,,,,,,,816277,,001,2024-02-10_12h46.34.146,VH_new_version1,2023.2.3,Win32,59.88023952,516.1152,517.1151,,,,,,,,,,,,,,,,,,,,,,,,,,517.1151,517.7156,z,1,0.5966,,517.7157,517.7157,,0,163,163,263,1,264,magina,,,,,6,notharmonic,1.9,,z,,,,,,,
,,,,,,,,,,,816277,,001,2024-02-10_12h46.34.146,VH_new_version1,2023.2.3,Win32,59.88023952,517.7159,518.7155,,,,,,,,,,,,,,,,,,,,,,,,,,518.7157,519.4159,z,1,0.6819,,519.4159,519.416,,0,164,164,167,1,168,ontan,,,,,5,harmonic,1.6,,z,,,,,,,
,,,,,,,,,,,816277,,001,2024-02-10_12h46.34.146,VH_new_version1,2023.2.3,Win32,59.88023952,519.4164,520.4162,,,,,,,,,,,,,,,,,,,,,,,,,,520.4163,520.9998,m,1,0.5661,,520.9998,520.9999,,0,165,165,27,1,28,sekiz,872,39.6202,803,0.0878,5,harmonic,1.45,4.597916663,m,,,,,,,
,,,,,,,,,,,816277,,001,2024-02-10_12h46.34.146,VH_new_version1,2023.2.3,Win32,59.88023952,521.0004,522.0002,,,,,,,,,,,,,,,,,,,,,,,,,,522.0003,522.4834,z,1,0.4776,,522.4834,522.4834,,0,166,166,144,1,145,içke,,,,,4,harmonic,1.6,,z,,,,,,,
,,,,,,,,,,,816277,,001,2024-02-10_12h46.34.146,VH_new_version1,2023.2.3,Win32,59.88023952,522.4835,523.4841,,,,,,,,,,,,,,,,,,,,,,,,,,523.4841,524.0677,z,1,0.5655,,524.0677,524.0677,,0,167,167,190,1,191,gopuk,,,,,5,harmonic,1.85,,z,,,,,,,
,,,,,,,,,,,816277,,001,2024-02-10_12h46.34.146,VH_new_version1,2023.2.3,Win32,59.88023952,524.0682,525.0678,,,,,,,,,,,,,,,,,,,,,,,,,,525.0679,525.6183,z,1,0.5389,,525.6184,525.6184,,0,168,168,151,1,152,uban,,,,,4,harmonic,1.35,,z,,,,,,,
,,,,,,,,,,,816277,,001,2024-02-10_12h46.34.146,VH_new_version1,2023.2.3,Win32,59.88023952,525.6188,526.6187,,,,,,,,,,,,,,,,,,,,,,,,,,526.6187,527.1688,m,1,0.534,,527.1689,527.1689,,0,169,169,28,1,29,melek,878,39.8928,773,0.0845,5,harmonic,1.1,4.60089452,m,,,,,,,
,,,,,,,,,,,816277,,001,2024-02-10_12h46.34.146,VH_new_version1,2023.2.3,Win32,59.88023952,527.1695,528.1693,,,,,,,,,,,,,,,,,,,,,,,,,,528.1693,528.7196,m,1,0.5419,,528.7196,528.7196,,0,170,170,141,1,142,dikkat,6230,283.0665,5888,0.6437,6,notharmonic,2.05,5.451888475,m,,,,,,,
,,,,,,,,,,,816277,,001,2024-02-10_12h46.34.146,VH_new_version1,2023.2.3,Win32,59.88023952,528.7198,529.7199,,,,,,,,,,,,,,,,,,,,,,,,,,529.7199,530.3534,m,1,0.6165,,530.3534,530.3535,,0,171,171,89,1,90,mavi,2206,100.2319,1934,0.2114,4,notharmonic,1.45,5.001005963,m,,,,,,,
,,,,,,,,,,,816277,,001,2024-02-10_12h46.34.146,VH_new_version1,2023.2.3,Win32,59.88023952,530.3539,531.3538,,,,,,,,,,,,,,,,,,,,,,,,,,531.3539,532.0707,m,1,0.6996,,532.0707,532.0708,,0,172,172,53,1,54,çıplak,819,37.2121,766,0.0837,6,harmonic,2,4.570684179,m,,,,,,,
,,,,,,,,,,,816277,,001,2024-02-10_12h46.34.146,VH_new_version1,2023.2.3,Win32,59.88023952,532.0713,533.071,,,,,,,,,,,,,,,,,,,,,,,,,,533.071,533.8045,z,1,0.7198,,533.8045,533.8046,,0,173,173,189,1,190,genek,,,,,5,harmonic,1.6,,z,,,,,,,
,,,,,,,,,,,816277,,001,2024-02-10_12h46.34.146,VH_new_version1,2023.2.3,Win32,59.88023952,533.8049,534.8049,,,,,,,,,,,,,,,,,,,,,,,,,,534.8049,535.3387,m,1,0.5216,,535.3388,535.3389,,0,174,174,101,1,102,kuzey,1493,67.836,1298,0.1419,5,notharmonic,1.85,4.831460232,m,,,,,,,
,,,,,,,,,,,816277,,001,2024-02-10_12h46.34.146,VH_new_version1,2023.2.3,Win32,59.88023952,535.3393,536.339,,,,,,,,,,,,,,,,,,,,,,,,,,536.3391,536.8729,z,1,0.516,,536.8729,536.873,,0,175,175,194,1,195,bufsay,,,,,6,harmonic,2.6,,z,,,,,,,
,,,,,,,,,,,816277,,001,2024-02-10_12h46.34.146,VH_new_version1,2023.2.3,Win32,59.88023952,536.8734,537.8729,,,,,,,,,,,,,,,,,,,,,,,,,,537.873,538.356,z,1,0.4783,,538.356,538.3561,,0,176,176,262,1,263,barali,,,,,6,notharmonic,1.95,,z,,,,,,,
,,,,,,,,,,,816277,,001,2024-02-10_12h46.34.146,VH_new_version1,2023.2.3,Win32,59.88023952,538.3563,539.3568,,,,,,,,,,,,,,,,,,,,,,,,,,539.3568,539.9903,m,1,0.6269,,539.9903,539.9904,,0,177,177,38,1,39,fikir,2552,115.9528,2413,0.2638,5,harmonic,1.9,5.06428124,m,,,,,,,
,,,,,,,,,,,816277,,001,2024-02-10_12h46.34.146,VH_new_version1,2023.2.3,Win32,59.88023952,539.9908,540.9907,,,,,,,,,,,,,,,,,,,,,,,,,,540.9908,541.6411,m,1,0.6399,,541.6411,541.6412,,0,178,178,139,1,140,tahmin,2353,106.911,2273,0.2485,6,notharmonic,1.6,5.029022392,m,,,,,,,
,,,,,,,,,,,816277,,001,2024-02-10_12h46.34.146,VH_new_version1,2023.2.3,Win32,59.88023952,541.6416,542.6415,,,,,,,,,,,,,,,,,,,,,,,,,,542.6415,543.2751,m,1,0.6216,,543.2751,543.2752,,0,179,179,77,1,78,alet,507,23.0361,473,0.0517,4,notharmonic,1.3,4.362408955,m,,,,,,,
,,,,,,,,,,,816277,,001,2024-02-10_12h46.34.146,VH_new_version1,2023.2.3,Win32,59.88023952,543.2755,544.2754,,,,,,,,,,,,,,,,,,,,,,,,,,544.2754,544.9092,z,1,0.6188,,544.9093,544.9093,,0,180,180,252,1,253,canit,,,,,5,notharmonic,1.8,,z,,,,,,,
,,,,,,,,,,,816277,,001,2024-02-10_12h46.34.146,VH_new_version1,2023.2.3,Win32,59.88023952,544.9096,545.9093,,,,,,,,,,,,,,,,,,,,,,,,,,545.9093,546.5428,z,1,0.6261,,546.5428,546.5428,,0,181,181,170,1,171,telen,,,,,5,harmonic,1.15,,z,,,,,,,
,,,,,,,,,,,816277,,001,2024-02-10_12h46.34.146,VH_new_version1,2023.2.3,Win32,59.88023952,546.5433,547.5432,,,,,,,,,,,,,,,,,,,,,,,,,,547.5433,548.1602,z,1,0.5982,,548.1603,548.1604,,0,182,182,185,1,186,birpi,,,,,5,harmonic,1.75,,z,,,,,,,
,,,,,,,,,,,816277,,001,2024-02-10_12h46.34.146,VH_new_version1,2023.2.3,Win32,59.88023952,548.1608,549.1603,,,,,,,,,,,,,,,,,,,,,,,,,,549.1604,549.7277,m,1,0.5597,,549.7277,549.7277,,0,183,183,131,1,132,kardeş,1270,57.7038,1174,0.1283,6,notharmonic,1.9,4.761204414,m,,,,,,,
,,,,,,,,,,,816277,,001,2024-02-10_12h46.34.146,VH_new_version1,2023.2.3,Win32,59.88023952,549.728,550.728,,,,,,,,,,,,,,,,,,,,,,,,,,550.7281,551.2952,m,1,0.5502,,551.2953,551.2953,,0,184,184,84,1,85,rüya,1062,48.2531,937,0.1024,4,notharmonic,1.75,4.68352522,m,,,,,,,
,,,,,,,,,,,816277,,001,2024-02-10_12h46.34.146,VH_new_version1,2023.2.3,Win32,59.88023952,551.2958,552.2952,,,,,,,,,,,,,,,,,,,,,,,,,,552.2952,552.9285,m,1,0.6162,,552.9285,552.9286,,0,185,185,129,1,130,hamile,1075,48.8437,877,0.0959,6,notharmonic,1.5,4.688808555,m,,,,,,,
,,,,,,,,,,,816277,,001,2024-02-10_12h46.34.146,VH_new_version1,2023.2.3,Win32,59.88023952,552.9289,553.929,,,,,,,,,,,,,,,,,,,,,,,,,,553.9291,554.5459,z,1,0.5977,,554.546,554.546,,0,186,186,280,1,281,icarar,,,,,6,notharmonic,2,,z,,,,,,,
,,,,,,,,,,,816277,,001,2024-02-10_12h46.34.146,VH_new_version1,2023.2.3,Win32,59.88023952,554.5464,555.5464,,,,,,,,,,,,,,,,,,,,,,,,,,555.5464,556.6633,z,1,1.1002,,556.6634,556.6634,,0,187,187,180,1,181,finer,,,,,5,harmonic,1.65,,z,,,,,,,
,,,,,,,,,,,816277,,001,2024-02-10_12h46.34.146,VH_new_version1,2023.2.3,Win32,59.88023952,556.6637,557.6639,,,,,,,,,,,,,,,,,,,,,,,,,,557.6639,558.2642,m,0,0.5908,,558.2642,558.2643,,0,188,188,159,1,160,daro,,,,,4,harmonic,1.7,,z,,,,,,,
,,,,,,,,,,,816277,,001,2024-02-10_12h46.34.146,VH_new_version1,2023.2.3,Win32,59.88023952,558.2645,559.2646,,,,,,,,,,,,,,,,,,,,,,,,,,559.2646,559.9813,z,1,0.7023,,559.9813,559.9815,,0,189,189,184,1,185,nekir,,,,,5,harmonic,1.6,,z,,,,,,,
,,,,,,,,,,,816277,,001,2024-02-10_12h46.34.146,VH_new_version1,2023.2.3,Win32,59.88023952,559.9818,560.9818,,,,,,,,,,,,,,,,,,,,,,,,,,560.9819,561.6654,m,1,0.6659,,561.6654,561.6655,,0,190,190,54,1,55,elbise,883,40.12,786,0.0859,6,harmonic,1.9,4.603360924,m,,,,,,,
,,,,,,,,,,,816277,,001,2024-02-10_12h46.34.146,VH_new_version1,2023.2.3,Win32,59.88023952,561.6659,562.6657,,,,,,,,,,,,,,,,,,,,,,,,,,562.6657,563.2994,m,1,0.63,,563.2994,563.2995,,0,191,191,63,1,64,hizmet,3023,137.3531,2689,0.294,6,harmonic,1.75,5.137838466,m,,,,,,,
,,,,,,,,,,,816277,,001,2024-02-10_12h46.34.146,VH_new_version1,2023.2.3,Win32,59.88023952,563.2998,564.2997,,,,,,,,,,,,,,,,,,,,,,,,,,564.2997,565.0169,z,1,0.6989,,565.017,565.017,,0,192,192,145,1,146,oyoz,,,,,4,harmonic,1.9,,z,,,,,,,
,,,,,,,,,,,816277,,001,2024-02-10_12h46.34.146,VH_new_version1,2023.2.3,Win32,59.88023952,565.0172,566.017,,,,,,,,,,,,,,,,,,,,,,,,,,566.017,566.6172,m,1,0.5902,,566.6172,566.6173,,0,193,193,134,1,135,hikaye,1555,70.653,1405,0.1536,6,notharmonic,1.8,4.849130607,m,,,,,,,
,,,,,,,,,,,816277,,001,2024-02-10_12h46.34.146,VH_new_version1,2023.2.3,Win32,59.88023952,566.6176,567.6175,,,,,,,,,,,,,,,,,,,,,,,,,,567.6175,568.2345,m,1,0.6053,,568.2345,568.2347,,0,194,194,99,1,100,asker,1368,62.1565,1200,0.1312,5,notharmonic,1.9,4.793486552,m,,,,,,,
,,,,,,,,,,,816277,,001,2024-02-10_12h46.34.146,VH_new_version1,2023.2.3,Win32,59.88023952,568.235,569.2349,,,,,,,,,,,,,,,,,,,,,,,,,,569.235,569.9851,m,1,0.7335,,569.9851,569.9853,,0,195,195,76,1,77,ebru,500,22.718,440,0.0481,4,notharmonic,1.95,4.356370095,m,,,,,,,
,,,,,,,,,,,816277,,001,2024-02-10_12h46.34.146,VH_new_version1,2023.2.3,Win32,59.88023952,569.9856,570.9855,,,,,,,,,,,,,,,,,,,,,,,,,,570.9855,571.5525,z,1,0.5578,,571.5525,571.5526,,0,196,196,147,1,148,üyöm,,,,,4,harmonic,1.95,,z,,,,,,,
,,,,,,,,,,,816277,,001,2024-02-10_12h46.34.146,VH_new_version1,2023.2.3,Win32,59.88023952,571.5529,572.553,,,,,,,,,,,,,,,,,,,,,,,,,,572.553,573.1863,z,1,0.6227,,573.1864,573.1864,,0,197,197,276,1,277,hiyake,,,,,6,notharmonic,2.25,,z,,,,,,,
,,,,,,,,,,,816277,,001,2024-02-10_12h46.34.146,VH_new_version1,2023.2.3,Win32,59.88023952,573.1867,574.1866,,,,,,,,,,,,,,,,,,,,,,,,,,574.1867,574.7869,z,1,0.5888,,574.787,574.787,,0,198,198,218,1,219,ecmu,,,,,4,notharmonic,2,,z,,,,,,,
,,,,,,,,,,,816277,,001,2024-02-10_12h46.34.146,VH_new_version1,2023.2.3,Win32,59.88023952,574.7874,575.7874,,,,,,,,,,,,,,,,,,,,,,,,,,575.7874,576.3875,m,1,0.5873,,576.3876,576.3876,,0,199,199,116,1,117,ifade,6177,280.6584,5726,0.626,5,notharmonic,1.7,5.448178045,m,,,,,,,
,,,,,,,,,,,816277,,001,2024-02-10_12h46.34.146,VH_new_version1,2023.2.3,Win32,59.88023952,576.3881,577.3879,,,,,,,,,,,,,,,,,,,,,,,,,,577.3879,577.9382,m,1,0.5377,,577.9383,577.9384,,0,200,200,47,1,48,yemek,9626,437.3673,8311,0.9086,5,harmonic,1.35,5.64084631,m,,,,,,,
,,,,,,,,,,,816277,,001,2024-02-10_12h46.34.146,VH_new_version1,2023.2.3,Win32,59.88023952,577.9388,578.9385,,,,,,,,,,,,,,,,,,,,,,,,,,578.9386,579.5558,z,1,0.6123,,579.5558,579.5558,,0,201,201,264,1,265,şingan,,,,,6,notharmonic,2.15,,z,,,,,,,
,,,,,,,,,,,816277,,001,2024-02-10_12h46.34.146,VH_new_version1,2023.2.3,Win32,59.88023952,579.5562,580.5558,,,,,,,,,,,,,,,,,,,,,,,,,,580.5559,581.1227,m,1,0.5491,,581.1228,581.1228,,0,202,202,69,1,70,yüksek,7909,359.3536,7119,0.7783,6,harmonic,1.7,5.555522,m,,,,,,,
,,,,,,,,,,,816277,,001,2024-02-10_12h46.34.146,VH_new_version1,2023.2.3,Win32,59.88023952,581.1232,582.1236,,,,,,,,,,,,,,,,,,,,,,,,,,582.1237,582.7235,z,1,0.5876,,582.7235,582.7235,,0,203,203,221,1,222,mane,,,,,4,notharmonic,1.4,,z,,,,,,,
,,,,,,,,,,,816277,,001,2024-02-10_12h46.34.146,VH_new_version1,2023.2.3,Win32,59.88023952,582.7239,583.7238,,,,,,,,,,,,,,,,,,,,,,,,,,583.7239,584.308,m,1,0.578,,584.308,584.3081,,0,204,204,118,1,119,dünya,11614,527.6941,10092,1.1033,5,notharmonic,1.85,5.722382238,m,,,,,,,
,,,,,,,,,,,816277,,001,2024-02-10_12h46.34.146,VH_new_version1,2023.2.3,Win32,59.88023952,584.3083,585.3076,,,,,,,,,,,,,,,,,,,,,,,,,,585.3077,585.8412,m,1,0.5163,,585.8412,585.8412,,0,205,205,128,1,129,mektup,992,45.0725,842,0.092,6,notharmonic,2.05,4.653911647,m,,,,,,,
,,,,,,,,,,,816277,,001,2024-02-10_12h46.34.146,VH_new_version1,2023.2.3,Win32,59.88023952,585.8417,586.8417,,,,,,,,,,,,,,,,,,,,,,,,,,586.8418,587.4418,z,1,0.5824,,587.4418,587.4419,,0,206,206,224,1,225,faer,,,,,4,notharmonic,1.9,,z,,,,,,,
,,,,,,,,,,,816277,,001,2024-02-10_12h46.34.146,VH_new_version1,2023.2.3,Win32,59.88023952,587.4423,588.442,,,,,,,,,,,,,,,,,,,,,,,,,,588.442,589.1255,m,1,0.6782,,589.1256,589.1256,,0,207,207,86,1,87,imza,1358,61.7021,1253,0.137,4,notharmonic,1.65,4.790299945,m,,,,,,,
,,,,,,,,,,,816277,,001,2024-02-10_12h46.34.146,VH_new_version1,2023.2.3,Win32,59.88023952,589.1258,590.1261,,,,,,,,,,,,,,,,,,,,,,,,,,590.1261,590.8097,z,1,0.6738,,590.8097,590.8098,,0,208,208,193,1,194,hatrak,,,,,6,harmonic,1.95,,z,,,,,,,
,,,,,,,,,,,816277,,001,2024-02-10_12h46.34.146,VH_new_version1,2023.2.3,Win32,59.88023952,590.8102,591.81,,,,,,,,,,,,,,,,,,,,,,,,,,591.81,592.3607,m,1,0.5418,,592.3608,592.3608,,0,209,209,45,1,46,akşam,7480,339.8615,6833,0.747,5,harmonic,1.6,5.53130197,m,,,,,,,
,,,,,,,,,,,816277,,001,2024-02-10_12h46.34.146,VH_new_version1,2023.2.3,Win32,59.88023952,592.3611,593.3609,,,,,,,,,,,,,,,,,,,,,,,,,,593.3609,593.9441,m,1,0.5662,,593.9442,593.9442,,0,210,210,119,1,120,insan,17821,809.7156,15619,1.7075,5,notharmonic,1.5,5.908332506,m,,,,,,,
,,,,,,,,,,,816277,,001,2024-02-10_12h46.34.146,VH_new_version1,2023.2.3,Win32,59.88023952,593.9444,594.9443,,,,,,,,,,,,,,,,,,,,,,,,,,594.9443,595.5783,m,1,0.6234,,595.5783,595.5783,,0,211,211,126,1,127,mucize,574,26.0803,542,0.0593,6,notharmonic,1.85,4.416312583,m,,,,,,,
,,,,,,,,,,,816277,,001,2024-02-10_12h46.34.146,VH_new_version1,2023.2.3,Win32,59.88023952,595.5786,596.5786,,,,,,,,,,,,,,,,,,,,,,,,,,596.5786,597.1289,z,0,0.5311,,597.1289,635.4437,space,0,212,212,80,1,81,nane,658,29.8969,607,0.0664,4,notharmonic,1.5,4.475626159,m,38.3037,,,,,,
,,,,,,,,,,,816277,,001,2024-02-10_12h46.34.146,VH_new_version1,2023.2.3,Win32,59.88023952,635.4495,636.4434,,,,,,,,,,,,,,,,,,,,,,,,,,636.4434,637.1273,z,1,0.6674,,637.1274,637.1275,,0,213,213,143,1,144,uçek,,,,,4,harmonic,1.85,,z,,,,,,,
,,,,,,,,,,,816277,,001,2024-02-10_12h46.34.146,VH_new_version1,2023.2.3,Win32,59.88023952,637.1279,638.1278,,,,,,,,,,,,,,,,,,,,,,,,,,638.1279,638.8449,m,1,0.7031,,638.8449,638.8449,,0,214,214,3,1,4,otuz,583,26.4892,556,0.0608,4,harmonic,1.45,4.423068842,m,,,,,,,
,,,,,,,,,,,816277,,001,2024-02-10_12h46.34.146,VH_new_version1,2023.2.3,Win32,59.88023952,638.8454,639.8452,,,,,,,,,,,,,,,,,,,,,,,,,,639.8453,640.4453,m,1,0.5858,,640.4454,640.4455,,0,215,215,51,1,52,yaprak,739,33.5772,678,0.0741,6,harmonic,1.7,4.526044478,m,,,,,,,
,,,,,,,,,,,816277,,001,2024-02-10_12h46.34.146,VH_new_version1,2023.2.3,Win32,59.88023952,640.4459,641.4456,,,,,,,,,,,,,,,,,,,,,,,,,,641.4457,642.079,m,1,0.626,,642.0791,642.0791,,0,216,216,121,1,122,macera,409,18.5833,391,0.0427,6,notharmonic,1.85,4.269122838,m,,,,,,,
,,,,,,,,,,,816277,,001,2024-02-10_12h46.34.146,VH_new_version1,2023.2.3,Win32,59.88023952,642.0795,643.0795,,,,,,,,,,,,,,,,,,,,,,,,,,643.0795,643.5964,m,1,0.504,,643.5964,643.5965,,0,217,217,93,1,94,tane,5623,255.4868,5075,0.5548,4,notharmonic,1.3,5.407368467,m,,,,,,,
,,,,,,,,,,,816277,,001,2024-02-10_12h46.34.146,VH_new_version1,2023.2.3,Win32,59.88023952,643.5969,644.597,,,,,,,,,,,,,,,,,,,,,,,,,,644.5971,645.1638,m,1,0.5485,,645.1638,645.1639,,0,218,218,66,1,67,tercih,4577,207.9607,4282,0.4681,6,harmonic,1.7,5.317981271,m,,,,,,,
,,,,,,,,,,,816277,,001,2024-02-10_12h46.34.146,VH_new_version1,2023.2.3,Win32,59.88023952,645.1644,646.1642,,,,,,,,,,,,,,,,,,,,,,,,,,646.1642,646.7311,m,1,0.549,,646.7311,646.7312,,0,219,219,34,1,35,çorba,1674,76.0599,1513,0.1654,5,harmonic,1.75,4.88115575,m,,,,,,,
,,,,,,,,,,,816277,,001,2024-02-10_12h46.34.146,VH_new_version1,2023.2.3,Win32,59.88023952,646.7316,647.7314,,,,,,,,,,,,,,,,,,,,,,,,,,647.7315,648.2317,m,1,0.4901,,648.2317,648.2317,,0,220,220,7,1,8,inci,757,34.3951,686,0.075,4,harmonic,1.05,4.536496576,m,,,,,,,
,,,,,,,,,,,816277,,001,2024-02-10_12h46.34.146,VH_new_version1,2023.2.3,Win32,59.88023952,648.2322,649.232,,,,,,,,,,,,,,,,,,,,,,,,,,649.232,649.9321,z,1,0.6943,,649.9321,649.9321,,0,221,221,243,1,244,kuyef,,,,,5,notharmonic,2.3,,z,,,,,,,
,,,,,,,,,,,816277,,001,2024-02-10_12h46.34.146,VH_new_version1,2023.2.3,Win32,59.88023952,649.9324,650.9325,,,,,,,,,,,,,,,,,,,,,,,,,,650.9326,651.5159,z,1,0.5795,,651.516,651.516,,0,222,222,191,1,192,pedrek,,,,,6,harmonic,2,,z,,,,,,,
,,,,,,,,,,,816277,,001,2024-02-10_12h46.34.146,VH_new_version1,2023.2.3,Win32,59.88023952,651.5163,652.5166,,,,,,,,,,,,,,,,,,,,,,,,,,652.5167,653.1337,z,1,0.6018,,653.1337,653.1338,,0,223,223,279,1,280,tevaha,,,,,6,notharmonic,2,,z,,,,,,,
,,,,,,,,,,,816277,,001,2024-02-10_12h46.34.146,VH_new_version1,2023.2.3,Win32,59.88023952,653.1341,654.1338,,,,,,,,,,,,,,,,,,,,,,,,,,654.1339,654.801,z,1,0.6494,,654.801,654.801,,0,224,224,175,1,176,sakça,,,,,5,harmonic,1.55,,z,,,,,,,
,,,,,,,,,,,816277,,001,2024-02-10_12h46.34.146,VH_new_version1,2023.2.3,Win32,59.88023952,654.8016,655.8011,,,,,,,,,,,,,,,,,,,,,,,,,,655.8011,656.3848,m,1,0.574,,656.3848,656.3849,,0,225,225,110,1,111,vakit,3476,157.9357,3298,0.3605,5,notharmonic,1.65,5.19848031,m,,,,,,,
,,,,,,,,,,,816277,,001,2024-02-10_12h46.34.146,VH_new_version1,2023.2.3,Win32,59.88023952,656.3853,657.3851,,,,,,,,,,,,,,,,,,,,,,,,,,657.3851,657.9688,m,1,0.5665,,657.9688,657.9689,,0,226,226,65,1,66,destek,3328,151.2111,3065,0.3351,6,harmonic,1.85,5.179583673,m,,,,,,,
,,,,,,,,,,,816277,,001,2024-02-10_12h46.34.146,VH_new_version1,2023.2.3,Win32,59.88023952,657.9692,658.9689,,,,,,,,,,,,,,,,,,,,,,,,,,658.9689,659.6356,m,1,0.6607,,659.6356,659.6357,,0,227,227,125,1,126,bahane,558,25.3533,544,0.0595,6,notharmonic,1.8,4.404034495,m,,,,,,,
,,,,,,,,,,,816277,,001,2024-02-10_12h46.34.146,VH_new_version1,2023.2.3,Win32,59.88023952,659.636,660.6364,,,,,,,,,,,,,,,,,,,,,,,,,,660.6365,661.3702,z,1,0.7232,,661.3703,661.3704,,0,228,228,183,1,184,çapal,,,,,5,harmonic,1.6,,z,,,,,,,
,,,,,,,,,,,816277,,001,2024-02-10_12h46.34.146,VH_new_version1,2023.2.3,Win32,59.88023952,661.3707,662.3704,,,,,,,,,,,,,,,,,,,,,,,,,,662.3704,663.0039,m,1,0.6285,,663.0039,663.004,,0,229,229,0,1,1,ödev,191,8.6783,175,0.0191,4,harmonic,1.6,3.938434659,m,,,,,,,
,,,,,,,,,,,816277,,001,2024-02-10_12h46.34.146,VH_new_version1,2023.2.3,Win32,59.88023952,663.0044,664.0042,,,,,,,,,,,,,,,,,,,,,,,,,,664.0043,664.7881,z,1,0.769,,664.7881,664.7882,,0,230,230,240,1,241,makek,,,,,5,notharmonic,1.9,,z,,,,,,,
,,,,,,,,,,,816277,,001,2024-02-10_12h46.34.146,VH_new_version1,2023.2.3,Win32,59.88023952,664.7886,665.7884,,,,,,,,,,,,,,,,,,,,,,,,,,665.7884,666.4383,z,1,0.6424,,666.4383,666.4384,,0,231,231,174,1,175,güzeh,,,,,5,harmonic,1.85,,z,,,,,,,
,,,,,,,,,,,816277,,001,2024-02-10_12h46.34.146,VH_new_version1,2023.2.3,Win32,59.88023952,666.4387,667.4388,,,,,,,,,,,,,,,,,,,,,,,,,,667.4389,668.156,z,1,0.6996,,668.1561,668.1561,,0,232,232,146,1,147,öğne,,,,,4,harmonic,1.7,,z,,,,,,,
,,,,,,,,,,,816277,,001,2024-02-10_12h46.34.146,VH_new_version1,2023.2.3,Win32,59.88023952,668.1565,669.1564,,,,,,,,,,,,,,,,,,,,,,,,,,669.1564,669.9065,m,1,0.7378,,669.9066,669.9066,,0,233,233,96,1,97,şahin,681,30.9419,570,0.0623,5,notharmonic,1.5,4.490546978,m,,,,,,,
,,,,,,,,,,,816277,,001,2024-02-10_12h46.34.146,VH_new_version1,2023.2.3,Win32,59.88023952,669.9071,670.9071,,,,,,,,,,,,,,,,,,,,,,,,,,670.9071,671.7572,m,1,0.8364,,671.7573,671.7573,,0,234,234,117,1,118,kitap,8359,379.7998,6786,0.7418,5,notharmonic,1.9,5.579554732,m,,,,,,,
,,,,,,,,,,,816277,,001,2024-02-10_12h46.34.146,VH_new_version1,2023.2.3,Win32,59.88023952,671.7576,672.7576,,,,,,,,,,,,,,,,,,,,,,,,,,672.7576,673.4578,z,1,0.6822,,673.4579,673.4579,,0,235,235,205,1,206,hücmet,,,,,6,harmonic,1.85,,z,,,,,,,
,,,,,,,,,,,816277,,001,2024-02-10_12h46.34.146,VH_new_version1,2023.2.3,Win32,59.88023952,673.4584,674.4584,,,,,,,,,,,,,,,,,,,,,,,,,,674.4585,675.2252,z,1,0.7498,,675.2252,675.2252,,0,236,236,282,1,283,daketi,,,,,6,notharmonic,1.8,,z,,,,,,,
,,,,,,,,,,,816277,,001,2024-02-10_12h46.34.146,VH_new_version1,2023.2.3,Win32,59.88023952,675.2255,676.2255,,,,,,,,,,,,,,,,,,,,,,,,,,676.2256,676.9593,m,1,0.7158,,676.9593,676.9593,,0,237,237,42,1,43,şeker,4708,213.9128,4170,0.4559,5,harmonic,1.6,5.330236772,m,,,,,,,
,,,,,,,,,,,816277,,001,2024-02-10_12h46.34.146,VH_new_version1,2023.2.3,Win32,59.88023952,676.9599,677.9596,,,,,,,,,,,,,,,,,,,,,,,,,,677.9596,678.81,z,1,0.8331,,678.81,678.8101,,0,238,238,207,1,208,dendek,,,,,6,harmonic,1.8,,z,,,,,,,
,,,,,,,,,,,816277,,001,2024-02-10_12h46.34.146,VH_new_version1,2023.2.3,Win32,59.88023952,678.8105,679.8104,,,,,,,,,,,,,,,,,,,,,,,,,,679.8104,680.4106,m,1,0.5882,,680.4107,680.4108,,0,239,239,17,1,18,sarı,2072,94.1435,1838,0.2009,4,harmonic,1,4.97379034,m,,,,,,,
,,,,,,,,,,,816277,,001,2024-02-10_12h46.34.146,VH_new_version1,2023.2.3,Win32,59.88023952,680.4111,681.4109,,,,,,,,,,,,,,,,,,,,,,,,,,681.411,681.9778,m,1,0.5496,,681.9779,681.9779,,0,240,240,87,1,88,ilan,1579,71.7435,1499,0.1639,4,notharmonic,1,4.85578256,m,,,,,,,
,,,,,,,,,,,816277,,001,2024-02-10_12h46.34.146,VH_new_version1,2023.2.3,Win32,59.88023952,681.9785,682.9782,,,,,,,,,,,,,,,,,,,,,,,,,,682.9783,683.5285,z,1,0.5409,,683.5286,683.5287,,0,241,241,256,1,257,betaş,,,,,5,notharmonic,1.85,,z,,,,,,,
,,,,,,,,,,,816277,,001,2024-02-10_12h46.34.146,VH_new_version1,2023.2.3,Win32,59.88023952,683.5291,684.5289,,,,,,,,,,,,,,,,,,,,,,,,,,684.5289,685.1456,z,1,0.5988,,685.1456,685.1458,,0,242,242,173,1,174,pirbe,,,,,5,harmonic,1.9,,z,,,,,,,
,,,,,,,,,,,816277,,001,2024-02-10_12h46.34.146,VH_new_version1,2023.2.3,Win32,59.88023952,685.1462,686.1461,,,,,,,,,,,,,,,,,,,,,,,,,,686.1461,686.6963,m,1,0.5333,,686.6964,686.6964,,0,243,243,107,1,108,siyah,2944,133.7637,2527,0.2763,5,notharmonic,1.6,5.126338273,m,,,,,,,
,,,,,,,,,,,816277,,001,2024-02-10_12h46.34.146,VH_new_version1,2023.2.3,Win32,59.88023952,686.6968,687.6967,,,,,,,,,,,,,,,,,,,,,,,,,,687.6967,688.6135,m,1,0.9108,,688.6135,688.6135,,0,244,244,103,1,104,davet,1782,80.967,1677,0.1833,5,notharmonic,1.85,4.908308048,m,,,,,,,
,,,,,,,,,,,816277,,001,2024-02-10_12h46.34.146,VH_new_version1,2023.2.3,Win32,59.88023952,688.6137,689.6144,,,,,,,,,,,,,,,,,,,,,,,,,,689.6144,690.2976,z,1,0.6729,,690.2976,690.2977,,0,245,245,269,1,270,sakate,,,,,6,notharmonic,1.8,,z,,,,,,,
,,,,,,,,,,,816277,,001,2024-02-10_12h46.34.146,VH_new_version1,2023.2.3,Win32,59.88023952,690.298,691.2981,,,,,,,,,,,,,,,,,,,,,,,,,,691.2981,691.8816,m,1,0.5663,,691.8817,691.8817,,0,246,246,108,1,109,hafif,3355,152.4379,3101,0.339,5,notharmonic,1.75,5.183092957,m,,,,,,,
,,,,,,,,,,,816277,,001,2024-02-10_12h46.34.146,VH_new_version1,2023.2.3,Win32,59.88023952,691.8822,692.882,,,,,,,,,,,,,,,,,,,,,,,,,,692.882,693.599,z,1,0.6994,,693.599,693.5991,,0,247,247,163,1,164,küvü,,,,,4,harmonic,1.7,,z,,,,,,,
,,,,,,,,,,,816277,,001,2024-02-10_12h46.34.146,VH_new_version1,2023.2.3,Win32,59.88023952,693.5995,694.5991,,,,,,,,,,,,,,,,,,,,,,,,,,694.5992,695.1659,m,1,0.5524,,695.1659,695.1659,,0,248,248,46,1,47,hayat,7922,359.9443,7314,0.7996,5,harmonic,1.35,5.556235301,m,,,,,,,
,,,,,,,,,,,816277,,001,2024-02-10_12h46.34.146,VH_new_version1,2023.2.3,Win32,59.88023952,695.1661,696.1667,,,,,,,,,,,,,,,,,,,,,,,,,,696.1667,696.7332,z,1,0.5511,,696.7333,696.7333,,0,249,249,198,1,199,tenlek,,,,,6,harmonic,1.85,,z,,,,,,,
,,,,,,,,,,,816277,,001,2024-02-10_12h46.34.146,VH_new_version1,2023.2.3,Win32,59.88023952,696.7337,697.7339,,,,,,,,,,,,,,,,,,,,,,,,,,697.7339,698.3005,z,1,0.5615,,698.3006,698.3007,,0,250,250,142,1,143,öbeh,,,,,4,harmonic,1.95,,z,,,,,,,
,,,,,,,,,,,816277,,001,2024-02-10_12h46.34.146,VH_new_version1,2023.2.3,Win32,59.88023952,698.301,699.3012,,,,,,,,,,,,,,,,,,,,,,,,,,699.3012,699.9009,z,1,0.5938,,699.901,699.901,,0,251,251,272,1,273,takime,,,,,6,notharmonic,1.5,,z,,,,,,,
,,,,,,,,,,,816277,,001,2024-02-10_12h46.34.146,VH_new_version1,2023.2.3,Win32,59.88023952,699.9012,700.9017,,,,,,,,,,,,,,,,,,,,,,,,,,700.9018,701.8021,m,1,0.8824,,701.8021,701.8021,,0,252,252,123,1,124,mercan,518,23.5359,210,0.023,6,notharmonic,1.85,4.37173081,m,,,,,,,
,,,,,,,,,,,816277,,001,2024-02-10_12h46.34.146,VH_new_version1,2023.2.3,Win32,59.88023952,701.8025,702.8024,,,,,,,,,,,,,,,,,,,,,,,,,,702.8025,703.503,z,1,0.6831,,703.503,703.5031,,0,253,253,166,1,167,dokoş,,,,,5,harmonic,2,,z,,,,,,,
,,,,,,,,,,,816277,,001,2024-02-10_12h46.34.146,VH_new_version1,2023.2.3,Win32,59.88023952,703.5035,704.5032,,,,,,,,,,,,,,,,,,,,,,,,,,704.5032,705.0868,z,1,0.5671,,705.0869,705.0869,,0,254,254,233,1,234,eali,,,,,4,notharmonic,1,,z,,,,,,,
,,,,,,,,,,,816277,,001,2024-02-10_12h46.34.146,VH_new_version1,2023.2.3,Win32,59.88023952,705.0874,706.0869,,,,,,,,,,,,,,,,,,,,,,,,,,706.0869,706.754,z,1,0.6564,,706.7541,706.7542,,0,255,255,202,1,203,cehret,,,,,6,harmonic,1.85,,z,,,,,,,
,,,,,,,,,,,816277,,001,2024-02-10_12h46.34.146,VH_new_version1,2023.2.3,Win32,59.88023952,706.7545,707.7542,,,,,,,,,,,,,,,,,,,,,,,,,,707.7543,708.3717,m,1,0.6128,,708.3718,708.3718,,0,256,256,59,1,60,zengin,2193,99.6412,2015,0.2203,6,harmonic,1.65,4.998438949,m,,,,,,,
,,,,,,,,,,,816277,,001,2024-02-10_12h46.34.146,VH_new_version1,2023.2.3,Win32,59.88023952,708.372,709.3716,,,,,,,,,,,,,,,,,,,,,,,,,,709.3717,709.9551,m,1,0.5661,,709.9552,709.9552,,0,257,257,102,1,103,komik,1617,73.4701,1506,0.1646,5,notharmonic,1.75,4.866110631,m,,,,,,,
,,,,,,,,,,,816277,,001,2024-02-10_12h46.34.146,VH_new_version1,2023.2.3,Win32,59.88023952,709.9557,710.9555,,,,,,,,,,,,,,,,,,,,,,,,,,710.9556,711.5722,m,1,0.6112,,711.5723,711.5724,,0,258,258,49,1,50,çeyrek,540,24.5355,477,0.0521,6,harmonic,1.9,4.389794913,m,,,,,,,
,,,,,,,,,,,816277,,001,2024-02-10_12h46.34.146,VH_new_version1,2023.2.3,Win32,59.88023952,711.5726,712.5728,,,,,,,,,,,,,,,,,,,,,,,,,,712.5728,713.2898,z,1,0.6998,,713.2898,713.2899,,0,259,259,229,1,230,irar,,,,,4,notharmonic,1.65,,z,,,,,,,
,,,,,,,,,,,816277,,001,2024-02-10_12h46.34.146,VH_new_version1,2023.2.3,Win32,59.88023952,713.2903,714.2901,,,,,,,,,,,,,,,,,,,,,,,,,,714.2902,714.891,m,1,0.5841,,714.891,714.8911,,0,260,260,36,1,37,gönül,1786,81.1488,1676,0.1832,5,harmonic,1.8,4.909282102,m,,,,,,,
,,,,,,,,,,,816277,,001,2024-02-10_12h46.34.146,VH_new_version1,2023.2.3,Win32,59.88023952,714.8913,715.8907,,,,,,,,,,,,,,,,,,,,,,,,,,715.8907,716.4243,m,1,0.5154,,716.4243,716.4243,,0,261,261,88,1,89,ateş,2108,95.7792,1803,0.1971,4,notharmonic,1.65,4.981271205,m,,,,,,,
,,,,,,,,,,,816277,,001,2024-02-10_12h46.34.146,VH_new_version1,2023.2.3,Win32,59.88023952,716.4248,717.4246,,,,,,,,,,,,,,,,,,,,,,,,,,717.4247,718.0583,m,1,0.6239,,718.0583,718.0584,,0,262,262,30,1,31,pamuk,937,42.5736,826,0.0903,5,harmonic,1.9,4.629140375,m,,,,,,,
,,,,,,,,,,,816277,,001,2024-02-10_12h46.34.146,VH_new_version1,2023.2.3,Win32,59.88023952,718.0588,719.0586,,,,,,,,,,,,,,,,,,,,,,,,,,719.0586,719.5922,m,1,0.5229,,719.5923,719.5923,,0,263,263,98,1,99,mekan,998,45.3452,911,0.0996,5,notharmonic,1.5,4.656531322,m,,,,,,,
,,,,,,,,,,,816277,,001,2024-02-10_12h46.34.146,VH_new_version1,2023.2.3,Win32,59.88023952,719.5927,720.5927,,,,,,,,,,,,,,,,,,,,,,,,,,720.5927,721.2094,z,1,0.5991,,721.2095,721.2096,,0,264,264,275,1,276,teşbuz,,,,,6,notharmonic,2.75,,z,,,,,,,
,,,,,,,,,,,816277,,001,2024-02-10_12h46.34.146,VH_new_version1,2023.2.3,Win32,59.88023952,721.21,722.2097,,,,,,,,,,,,,,,,,,,,,,,,,,722.2098,722.8098,z,1,0.5897,,722.8098,722.8099,,0,265,265,177,1,178,akapı,,,,,5,harmonic,1.8,,z,,,,,,,
,,,,,,,,,,,816277,,001,2024-02-10_12h46.34.146,VH_new_version1,2023.2.3,Win32,59.88023952,722.8103,723.8103,,,,,,,,,,,,,,,,,,,,,,,,,,723.8104,724.6104,m,1,0.7888,,724.6104,724.6105,,0,266,266,73,1,74,lale,383,17.402,315,0.0344,4,notharmonic,1.35,4.240599164,m,,,,,,,
,,,,,,,,,,,816277,,001,2024-02-10_12h46.34.146,VH_new_version1,2023.2.3,Win32,59.88023952,724.6107,725.611,,,,,,,,,,,,,,,,,,,,,,,,,,725.611,726.1614,m,1,0.5407,,726.1615,726.1615,,0,267,267,20,1,21,süre,8679,394.3393,8119,0.8876,4,harmonic,1,5.595870061,m,,,,,,,
,,,,,,,,,,,816277,,001,2024-02-10_12h46.34.146,VH_new_version1,2023.2.3,Win32,59.88023952,726.1619,727.1616,,,,,,,,,,,,,,,,,,,,,,,,,,727.1616,727.8454,z,1,0.6691,,727.8454,727.8454,,0,268,268,244,1,245,kimık,,,,,5,notharmonic,2,,z,,,,,,,
,,,,,,,,,,,816277,,001,2024-02-10_12h46.34.146,VH_new_version1,2023.2.3,Win32,59.88023952,727.8458,728.8458,,,,,,,,,,,,,,,,,,,,,,,,,,728.8458,729.4792,z,1,0.6243,,729.4792,729.4793,,0,269,269,176,1,177,çırna,,,,,5,harmonic,1.85,,z,,,,,,,
,,,,,,,,,,,816277,,001,2024-02-10_12h46.34.146,VH_new_version1,2023.2.3,Win32,59.88023952,729.4797,730.4796,,,,,,,,,,,,,,,,,,,,,,,,,,730.4796,731.0631,m,1,0.5757,,731.0631,731.0631,,0,270,270,136,1,137,adalet,1611,73.1975,1388,0.1517,6,notharmonic,1.65,4.864496248,m,,,,,,,
,,,,,,,,,,,816277,,001,2024-02-10_12h46.34.146,VH_new_version1,2023.2.3,Win32,59.88023952,731.0635,732.0636,,,,,,,,,,,,,,,,,,,,,,,,,,732.0636,732.6309,m,1,0.5586,,732.6309,732.6309,,0,271,271,58,1,59,toprak,1989,90.3723,1762,0.1926,6,harmonic,1.9,4.956035335,m,,,,,,,
,,,,,,,,,,,816277,,001,2024-02-10_12h46.34.146,VH_new_version1,2023.2.3,Win32,59.88023952,732.6313,733.6309,,,,,,,,,,,,,,,,,,,,,,,,,,733.6309,734.1477,z,1,0.4991,,734.1477,734.1477,,0,272,272,164,1,165,üdel,,,,,4,harmonic,1.95,,z,,,,,,,
,,,,,,,,,,,816277,,001,2024-02-10_12h46.34.146,VH_new_version1,2023.2.3,Win32,59.88023952,734.1481,735.1481,,,,,,,,,,,,,,,,,,,,,,,,,,735.1481,736.3815,z,1,1.2275,,736.3815,736.3815,,0,273,273,208,1,209,terbiy,,,,,6,harmonic,1.9,,z,,,,,,,
,,,,,,,,,,,816277,,001,2024-02-10_12h46.34.146,VH_new_version1,2023.2.3,Win32,59.88023952,736.3817,737.3824,,,,,,,,,,,,,,,,,,,,,,,,,,737.3824,737.9488,z,1,0.5596,,737.9488,737.9488,,0,274,274,156,1,157,obık,,,,,4,harmonic,1.95,,z,,,,,,,
,,,,,,,,,,,816277,,001,2024-02-10_12h46.34.146,VH_new_version1,2023.2.3,Win32,59.88023952,737.949,738.9497,,,,,,,,,,,,,,,,,,,,,,,,,,738.9498,739.633,m,1,0.6734,,739.6331,739.6332,,0,275,275,85,1,86,elma,1225,55.6591,1047,0.1145,4,notharmonic,1.65,4.74553618,m,,,,,,,
,,,,,,,,,,,816277,,001,2024-02-10_12h46.34.146,VH_new_version1,2023.2.3,Win32,59.88023952,739.6336,740.6334,,,,,,,,,,,,,,,,,,,,,,,,,,740.6334,741.2675,z,1,0.6292,,741.2675,741.2676,,0,276,276,239,1,240,kanel,,,,,5,notharmonic,1.9,,z,,,,,,,
,,,,,,,,,,,816277,,001,2024-02-10_12h46.34.146,VH_new_version1,2023.2.3,Win32,59.88023952,741.2679,742.2675,,,,,,,,,,,,,,,,,,,,,,,,,,742.2675,742.9342,z,1,0.66,,742.9343,742.9343,,0,277,277,204,1,205,kürfür,,,,,6,harmonic,1.95,,z,,,,,,,
,,,,,,,,,,,816277,,001,2024-02-10_12h46.34.146,VH_new_version1,2023.2.3,Win32,59.88023952,742.9347,743.9347,,,,,,,,,,,,,,,,,,,,,,,,,,743.9348,744.5347,z,1,0.5917,,744.5347,744.5349,,0,278,278,283,1,284,dimdat,,,,,6,notharmonic,2.05,,z,,,,,,,
,,,,,,,,,,,816277,,001,2024-02-10_12h46.34.146,VH_new_version1,2023.2.3,Win32,59.88023952,744.5351,745.5353,,,,,,,,,,,,,,,,,,,,,,,,,,745.5353,746.3524,m,1,0.8008,,746.3524,746.3525,,0,279,279,90,1,91,ceza,2611,118.6335,2169,0.2371,4,notharmonic,1.5,5.074207343,m,,,,,,,
,,,,,,,,,,,816277,,001,2024-02-10_12h46.34.146,VH_new_version1,2023.2.3,Win32,59.88023952,746.3527,747.3526,,,,,,,,,,,,,,,,,,,,,,,,,,747.3526,747.9531,m,1,0.5916,,747.9532,747.9533,,0,280,280,109,1,110,basit,3385,153.801,3177,0.3473,5,notharmonic,1.65,5.186959159,m,,,,,,,
,,,,,,,,,,,816277,,001,2024-02-10_12h46.34.146,VH_new_version1,2023.2.3,Win32,59.88023952,747.9536,748.9532,,,,,,,,,,,,,,,,,,,,,,,,,,748.9533,749.587,m,1,0.6162,,749.5871,749.5872,,0,281,281,60,1,61,nefret,2429,110.3641,2115,0.2312,6,harmonic,1.8,5.042827826,m,,,,,,,
,,,,,,,,,,,816277,,001,2024-02-10_12h46.34.146,VH_new_version1,2023.2.3,Win32,59.88023952,749.5876,750.5872,,,,,,,,,,,,,,,,,,,,,,,,,,750.5873,751.5544,z,1,0.948,,751.5545,751.5546,,0,282,282,235,1,236,mate,,,,,4,notharmonic,1.65,,z,,,,,,,
,,,,,,,,,,,816277,,001,2024-02-10_12h46.34.146,VH_new_version1,2023.2.3,Win32,59.88023952,751.5548,752.5546,,,,,,,,,,,,,,,,,,,,,,,,,,752.5546,753.155,z,1,0.5893,,753.155,804.7744,space,0,283,283,241,1,242,akter,,,,,5,notharmonic,1.8,,z,51.6134,,,,,,
,,,,,,,,,,,816277,,001,2024-02-10_12h46.34.146,VH_new_version1,2023.2.3,Win32,59.88023952,,,,,,,,,,,,,,,,,,,,,,,,,,,,,,,,,,,,,,,,,,,,,,,,,,,,,,,804.7809,809.6606,space,4.8637,