welcome.started,welcome.stopped,key_resp_welc.keys,key_resp_welc.rt,key_resp_welc.duration,trials_2.thisRepN,trials_2.thisTrialN,trials_2.thisN,trials_2.thisIndex,trials_2.ran,Introduction,participant,Email Adresiniz,session,date,expName,psychopyVersion,OS,frameRate,fix.started,fix.stopped,Studypractice.started,Studypractice.stopped,key_resp_p.keys,key_resp_p.corr,key_resp_p.rt,key_resp_p.duration,rt,corr,FB.started,FB.stopped,trials.thisRepN,trials.thisTrialN,trials.thisN,trials.thisIndex,trials.ran,item_nr_p,target_p,isHarmonic_p,target_cond_p,CorrAns_p,inst2.started,inst2.stopped,key_resp_xx.keys,key_resp_xx.rt,key_resp_xx.duration,TestTrial.started,TestTrial.stopped,key_respTest.keys,key_respTest.corr,key_respTest.rt,key_respTest.duration,Pause.started,Pause.stopped,key_resp_pause.keys,trials_3.thisRepN,trials_3.thisTrialN,trials_3.thisN,trials_3.thisIndex,trials_3.ran,item_nr,target,BlogFreq,BlogFreqPm,BlogCD,BlogCDPc,WordLength,isHarmonic,old20,Zipf,CorrAns,key_resp_pause.rt,key_resp_pause.duration,Bye.started,Bye.stopped,key_resp_bye.keys,key_resp_bye.rt,key_resp_bye.duration
0.0406,2.1084,space,2.0405,,0,0,0,0,1,"Deneye hoş geldiniz,

Devam etmek için BOŞLUK tuşuna basınız.",725700,,001,2024-02-09_17h11.05.461,VH_new_version1,2023.2.3,MacIntel,59.88023952,,,,,,,,,,,,,,,,,,,,,,,,,,,,,,,,,,,,,,,,,,,,,,,,,,,,,,,,,,,
2.1096,8.3265,space,6.2016,,0,1,1,1,1,"Bu çalışma Valencia Üniversitesi kapsamında yürütülmektedir. Deneydeki göreviniz, ekrana çıkacak Türkçe sözcüklerin kelime olup olmadığını belirlemenizdir. Eğer sözcük gerçek bir kelime ise ""m"" tuşuna, değil ise ""z"" tuşuna basınız.   

Devam etmek için BOŞLUK tuşuna basınız.",725700,,001,2024-02-09_17h11.05.461,VH_new_version1,2023.2.3,MacIntel,59.88023952,,,,,,,,,,,,,,,,,,,,,,,,,,,,,,,,,,,,,,,,,,,,,,,,,,,,,,,,,,,
8.336,10.7081,space,2.3514,,0,2,2,2,1,"Her sözcük için en fazla iki saniyede cevap vermeniz beklenmektedir. Aksi takdirde deney bir sonraki sözcük ile devam eder. 
Bu çalışmada oldukça hızlı ve doğru cevaplama yapmanız beklenmektedir.

Devam etmek için BOŞLUK tuşuna basınız.",725700,,001,2024-02-09_17h11.05.461,VH_new_version1,2023.2.3,MacIntel,59.88023952,,,,,,,,,,,,,,,,,,,,,,,,,,,,,,,,,,,,,,,,,,,,,,,,,,,,,,,,,,,
10.7086,15.1765,space,4.4518,,0,3,3,3,1,"Çalışmaya başlamadan önce ufak bir pratik yer almaktadır.
Kelimedir: ""m""
Kelime değildir: ""z""

Pratik teste başlamak için BOŞLUK tuşuna basınız. ",725700,,001,2024-02-09_17h11.05.461,VH_new_version1,2023.2.3,MacIntel,59.88023952,,,,,,,,,,,,,,,,,,,,,,,,,,,,,,,,,,,,,,,,,,,,,,,,,,,,,,,,,,,
,,,,,,,,,,,725700,,001,2024-02-09_17h11.05.461,VH_new_version1,2023.2.3,MacIntel,59.88023952,15.1974,16.1933,16.1937,17.1596,m,1,0.9431,,0.9431,1,17.1602,18.1587,0,0,0,11,1,12,teslim,harmonic,word,m,,,,,,,,,,,,,,,,,,,,,,,,,,,,,,,,,,,,,
,,,,,,,,,,,725700,,001,2024-02-09_17h11.05.461,VH_new_version1,2023.2.3,MacIntel,59.88023952,18.16,19.1592,19.1592,19.7754,z,1,0.5986,,0.5986,1,19.7756,20.7758,0,1,1,16,1,17,ihlot,notharmonic,nw,z,,,,,,,,,,,,,,,,,,,,,,,,,,,,,,,,,,,,,
,,,,,,,,,,,725700,,001,2024-02-09_17h11.05.461,VH_new_version1,2023.2.3,MacIntel,59.88023952,20.7766,21.7761,21.7762,22.893,z,1,1.0979,,1.0979,1,22.8931,23.8927,0,2,2,18,1,19,pimer,harmonic,nw,z,,,,,,,,,,,,,,,,,,,,,,,,,,,,,,,,,,,,,
,,,,,,,,,,,725700,,001,2024-02-09_17h11.05.461,VH_new_version1,2023.2.3,MacIntel,59.88023952,23.8934,24.8929,24.893,25.894,z,1,0.9828,,0.9828,1,25.894,26.893,0,3,3,14,1,15,mahne,notharmonic,nw,z,,,,,,,,,,,,,,,,,,,,,,,,,,,,,,,,,,,,,
,,,,,,,,,,,725700,,001,2024-02-09_17h11.05.461,VH_new_version1,2023.2.3,MacIntel,59.88023952,26.8936,27.8939,27.8939,28.5431,m,1,0.6313,,0.6313,1,28.5433,29.5429,0,4,4,10,1,11,nefret,harmonic,word,m,,,,,,,,,,,,,,,,,,,,,,,,,,,,,,,,,,,,,
,,,,,,,,,,,725700,,001,2024-02-09_17h11.05.461,VH_new_version1,2023.2.3,MacIntel,59.88023952,29.5436,30.5436,30.5436,31.1761,z,1,0.618,,0.618,1,31.1762,32.1766,0,5,5,22,1,23,gizım,notharmonic,nw,z,,,,,,,,,,,,,,,,,,,,,,,,,,,,,,,,,,,,,
,,,,,,,,,,,725700,,001,2024-02-09_17h11.05.461,VH_new_version1,2023.2.3,MacIntel,59.88023952,32.1773,33.1765,33.1766,33.8101,z,1,0.6168,,0.6168,1,33.8102,34.8102,0,6,6,15,1,16,geki,harmonic,nw,z,,,,,,,,,,,,,,,,,,,,,,,,,,,,,,,,,,,,,
,,,,,,,,,,,725700,,001,2024-02-09_17h11.05.461,VH_new_version1,2023.2.3,MacIntel,59.88023952,34.8109,35.8102,35.8102,36.3437,m,1,0.5156,,0.5156,1,36.3438,37.3438,0,7,7,3,1,4,sevgi,harmonic,word,m,,,,,,,,,,,,,,,,,,,,,,,,,,,,,,,,,,,,,
,,,,,,,,,,,725700,,001,2024-02-09_17h11.05.461,VH_new_version1,2023.2.3,MacIntel,59.88023952,37.3447,38.3438,38.3439,38.9613,z,1,0.5984,,0.5984,1,38.9613,39.9604,0,8,8,19,1,20,mımal,harmonic,nw,z,,,,,,,,,,,,,,,,,,,,,,,,,,,,,,,,,,,,,
,,,,,,,,,,,725700,,001,2024-02-09_17h11.05.461,VH_new_version1,2023.2.3,MacIntel,59.88023952,39.9611,40.962,40.962,41.7771,m,1,0.7966,,0.7966,1,41.7772,42.7772,0,9,9,0,1,1,hazır,harmonic,word,m,,,,,,,,,,,,,,,,,,,,,,,,,,,,,,,,,,,,,
,,,,,,,,,,,725700,,001,2024-02-09_17h11.05.461,VH_new_version1,2023.2.3,MacIntel,59.88023952,42.7779,43.7776,43.7776,44.5605,z,1,0.7633,,0.7633,1,44.5606,45.561,0,10,10,21,1,22,güçli,harmonic,nw,z,,,,,,,,,,,,,,,,,,,,,,,,,,,,,,,,,,,,,
,,,,,,,,,,,725700,,001,2024-02-09_17h11.05.461,VH_new_version1,2023.2.3,MacIntel,59.88023952,45.5618,46.5609,46.561,47.3109,m,1,0.7373,,0.7373,1,47.3109,48.3107,0,11,11,7,1,8,oran,harmonic,word,m,,,,,,,,,,,,,,,,,,,,,,,,,,,,,,,,,,,,,
,,,,,,,,,,,725700,,001,2024-02-09_17h11.05.461,VH_new_version1,2023.2.3,MacIntel,59.88023952,48.3111,49.3114,49.3115,50.0613,z,1,0.7334,,0.7334,1,50.0613,51.0629,0,12,12,17,1,18,pilar,notharmonic,nw,z,,,,,,,,,,,,,,,,,,,,,,,,,,,,,,,,,,,,,
,,,,,,,,,,,725700,,001,2024-02-09_17h11.05.461,VH_new_version1,2023.2.3,MacIntel,59.88023952,51.0635,52.0623,52.0626,52.8448,z,1,0.7648,,0.7648,1,52.8448,53.8454,0,13,13,20,1,21,yoğuk,harmonic,nw,z,,,,,,,,,,,,,,,,,,,,,,,,,,,,,,,,,,,,,
,,,,,,,,,,,725700,,001,2024-02-09_17h11.05.461,VH_new_version1,2023.2.3,MacIntel,59.88023952,53.8463,54.8465,54.8466,55.4603,m,1,0.5979,,0.5979,1,55.4604,56.4635,0,14,14,8,1,9,bilim,harmonic,word,m,,,,,,,,,,,,,,,,,,,,,,,,,,,,,,,,,,,,,
,,,,,,,,,,,725700,,001,2024-02-09_17h11.05.461,VH_new_version1,2023.2.3,MacIntel,59.88023952,56.464,57.4685,57.4686,58.2278,z,1,0.7405,,0.7405,1,58.2279,59.2294,0,15,15,13,1,14,orat,harmonic,nw,z,,,,,,,,,,,,,,,,,,,,,,,,,,,,,,,,,,,,,
,,,,,,,,,,,725700,,001,2024-02-09_17h11.05.461,VH_new_version1,2023.2.3,MacIntel,59.88023952,59.2299,60.2289,60.229,60.7963,m,1,0.5498,,0.5498,1,60.7964,61.7956,0,16,16,2,1,3,yardım,harmonic,word,m,,,,,,,,,,,,,,,,,,,,,,,,,,,,,,,,,,,,,
,,,,,,,,,,,725700,,001,2024-02-09_17h11.05.461,VH_new_version1,2023.2.3,MacIntel,59.88023952,61.7966,62.7971,62.7971,63.6284,m,1,0.8149,,0.8149,1,63.6285,64.6296,0,17,17,5,1,6,gizli,harmonic,word,m,,,,,,,,,,,,,,,,,,,,,,,,,,,,,,,,,,,,,
,,,,,,,,,,,725700,,001,2024-02-09_17h11.05.461,VH_new_version1,2023.2.3,MacIntel,59.88023952,64.6304,65.6297,65.6303,66.379,z,1,0.7318,,0.7318,1,66.379,67.3787,0,18,18,12,1,13,tahip,notharmonic,nw,z,,,,,,,,,,,,,,,,,,,,,,,,,,,,,,,,,,,,,
,,,,,,,,,,,725700,,001,2024-02-09_17h11.05.461,VH_new_version1,2023.2.3,MacIntel,59.88023952,67.3792,68.3802,68.3802,69.1299,m,1,0.7325,,0.7325,1,69.13,70.1298,0,19,19,4,1,5,soğuk,harmonic,word,m,,,,,,,,,,,,,,,,,,,,,,,,,,,,,,,,,,,,,
,,,,,,,,,,,725700,,001,2024-02-09_17h11.05.461,VH_new_version1,2023.2.3,MacIntel,59.88023952,70.1308,71.1454,71.1454,71.8474,m,1,0.6853,,0.6853,1,71.8475,72.8465,0,20,20,9,1,10,zarar,harmonic,word,m,,,,,,,,,,,,,,,,,,,,,,,,,,,,,,,,,,,,,
,,,,,,,,,,,725700,,001,2024-02-09_17h11.05.461,VH_new_version1,2023.2.3,MacIntel,59.88023952,72.8476,73.8462,73.8463,74.4476,m,1,0.5809,,0.5809,1,74.4477,75.4456,0,21,21,6,1,7,sebep,harmonic,word,m,,,,,,,,,,,,,,,,,,,,,,,,,,,,,,,,,,,,,
,,,,,,,,,,,725700,,001,2024-02-09_17h11.05.461,VH_new_version1,2023.2.3,MacIntel,59.88023952,75.4464,76.4467,76.4471,77.0469,m,1,0.5823,,0.5823,1,77.047,78.0469,0,22,22,1,1,2,veri,harmonic,word,m,,,,,,,,,,,,,,,,,,,,,,,,,,,,,,,,,,,,,
,,,,,,,,,,,725700,,001,2024-02-09_17h11.05.461,VH_new_version1,2023.2.3,MacIntel,59.88023952,78.048,79.0468,79.0469,79.7471,z,1,0.6825,,0.6825,1,79.7472,80.7469,0,23,23,23,1,24,zarim,notharmonic,nw,z,,,,,,,,,,,,,,,,,,,,,,,,,,,,,,,,,,,,,
,,,,,,,,,,,725700,,001,2024-02-09_17h11.05.461,VH_new_version1,2023.2.3,MacIntel,59.88023952,,,,,,,,,,,,,,,,,,,,,,,80.7482,84.2125,space,3.4443,,,,,,,,,,,,,,,,,,,,,,,,,,,,,,,,,
,,,,,,,,,,,725700,,001,2024-02-09_17h11.05.461,VH_new_version1,2023.2.3,MacIntel,59.88023952,84.2633,85.2129,,,,,,,,,,,,,,,,,,,,,,,,,,85.2135,86.1139,z,0,0.8844,,86.1142,86.1157,,0,0,0,38,1,39,fikir,2552,115.9528,2413,0.2638,5,harmonic,1.9,5.06428124,m,,,,,,,
,,,,,,,,,,,725700,,001,2024-02-09_17h11.05.461,VH_new_version1,2023.2.3,MacIntel,59.88023952,86.1161,87.1144,,,,,,,,,,,,,,,,,,,,,,,,,,87.1145,87.7821,m,1,0.6554,,87.7822,87.7822,,0,1,1,75,1,76,zeka,481,21.8547,416,0.0455,4,notharmonic,1.65,4.339544849,m,,,,,,,
,,,,,,,,,,,725700,,001,2024-02-09_17h11.05.461,VH_new_version1,2023.2.3,MacIntel,59.88023952,87.7827,88.7801,,,,,,,,,,,,,,,,,,,,,,,,,,88.7801,89.5476,z,1,0.7508,,89.5477,89.5478,,0,2,2,182,1,183,tesil,,,,,5,harmonic,1.45,,z,,,,,,,
,,,,,,,,,,,725700,,001,2024-02-09_17h11.05.461,VH_new_version1,2023.2.3,MacIntel,59.88023952,89.5488,90.5477,,,,,,,,,,,,,,,,,,,,,,,,,,90.5477,91.364,m,1,0.8013,,91.364,91.3642,,0,3,3,92,1,93,adet,4367,198.4192,3768,0.4119,4,notharmonic,1.4,5.297583694,m,,,,,,,
,,,,,,,,,,,725700,,001,2024-02-09_17h11.05.461,VH_new_version1,2023.2.3,MacIntel,59.88023952,91.3649,92.364,,,,,,,,,,,,,,,,,,,,,,,,,,92.3641,93.4976,m,1,1.1135,,93.4977,93.4979,,0,4,4,122,1,123,fincan,431,19.5829,401,0.0438,6,notharmonic,1.9,4.291877006,m,,,,,,,
,,,,,,,,,,,725700,,001,2024-02-09_17h11.05.461,VH_new_version1,2023.2.3,MacIntel,59.88023952,93.4985,94.4977,,,,,,,,,,,,,,,,,,,,,,,,,,94.4978,95.1959,z,1,0.6844,,95.1959,95.196,,0,5,5,167,1,168,ontan,,,,,5,harmonic,1.6,,z,,,,,,,
,,,,,,,,,,,725700,,001,2024-02-09_17h11.05.461,VH_new_version1,2023.2.3,MacIntel,59.88023952,95.1967,96.1959,,,,,,,,,,,,,,,,,,,,,,,,,,96.196,96.9626,m,1,0.7519,,96.9627,96.9628,,0,6,6,65,1,66,destek,3328,151.2111,3065,0.3351,6,harmonic,1.85,5.179583673,m,,,,,,,
,,,,,,,,,,,725700,,001,2024-02-09_17h11.05.461,VH_new_version1,2023.2.3,MacIntel,59.88023952,96.9636,97.9645,,,,,,,,,,,,,,,,,,,,,,,,,,97.9645,98.6146,m,1,0.6333,,98.6147,98.6149,,0,7,7,107,1,108,siyah,2944,133.7637,2527,0.2763,5,notharmonic,1.6,5.126338273,m,,,,,,,
,,,,,,,,,,,725700,,001,2024-02-09_17h11.05.461,VH_new_version1,2023.2.3,MacIntel,59.88023952,98.6156,99.6147,,,,,,,,,,,,,,,,,,,,,,,,,,99.6148,100.2148,m,0,0.5863,,100.2149,100.2151,,0,8,8,175,1,176,sakça,,,,,5,harmonic,1.55,,z,,,,,,,
,,,,,,,,,,,725700,,001,2024-02-09_17h11.05.461,VH_new_version1,2023.2.3,MacIntel,59.88023952,100.2158,101.2148,,,,,,,,,,,,,,,,,,,,,,,,,,101.2148,101.9645,z,1,0.7363,,101.9646,101.9647,,0,9,9,255,1,256,resap,,,,,5,notharmonic,1.9,,z,,,,,,,
,,,,,,,,,,,725700,,001,2024-02-09_17h11.05.461,VH_new_version1,2023.2.3,MacIntel,59.88023952,101.965,102.9647,,,,,,,,,,,,,,,,,,,,,,,,,,102.9648,103.9153,m,1,0.9322,,103.9154,103.9156,,0,10,10,130,1,131,saniye,1088,49.4344,984,0.1076,6,notharmonic,1.35,4.694029267,m,,,,,,,
,,,,,,,,,,,725700,,001,2024-02-09_17h11.05.461,VH_new_version1,2023.2.3,MacIntel,59.88023952,103.9163,104.915,,,,,,,,,,,,,,,,,,,,,,,,,,104.915,105.6315,m,1,0.6987,,105.6315,105.6317,,0,11,11,131,1,132,kardeş,1270,57.7038,1174,0.1283,6,notharmonic,1.9,4.761204414,m,,,,,,,
,,,,,,,,,,,725700,,001,2024-02-09_17h11.05.461,VH_new_version1,2023.2.3,MacIntel,59.88023952,105.6323,106.6311,,,,,,,,,,,,,,,,,,,,,,,,,,106.6312,107.2825,z,1,0.6324,,107.2828,107.2832,,0,12,12,266,1,267,ebvace,,,,,6,notharmonic,2.95,,z,,,,,,,
,,,,,,,,,,,725700,,001,2024-02-09_17h11.05.461,VH_new_version1,2023.2.3,MacIntel,59.88023952,107.2837,108.2824,,,,,,,,,,,,,,,,,,,,,,,,,,108.2825,108.9991,m,1,0.6994,,108.9992,109,,0,13,13,81,1,82,kare,699,31.7598,607,0.0664,4,notharmonic,1,4.501877759,m,,,,,,,
,,,,,,,,,,,725700,,001,2024-02-09_17h11.05.461,VH_new_version1,2023.2.3,MacIntel,59.88023952,109.0004,109.9991,,,,,,,,,,,,,,,,,,,,,,,,,,109.9991,110.9152,z,1,0.9031,,110.9153,110.9154,,0,14,14,171,1,172,faraç,,,,,5,harmonic,1.75,,z,,,,,,,
,,,,,,,,,,,725700,,001,2024-02-09_17h11.05.461,VH_new_version1,2023.2.3,MacIntel,59.88023952,110.9157,111.9159,,,,,,,,,,,,,,,,,,,,,,,,,,111.916,112.5988,z,1,0.6675,,112.599,112.599,,0,15,15,201,1,202,lingin,,,,,6,harmonic,1.6,,z,,,,,,,
,,,,,,,,,,,725700,,001,2024-02-09_17h11.05.461,VH_new_version1,2023.2.3,MacIntel,59.88023952,112.5997,113.6,,,,,,,,,,,,,,,,,,,,,,,,,,113.6002,114.3152,m,1,0.7025,,114.3153,114.3154,,0,16,16,51,1,52,yaprak,739,33.5772,678,0.0741,6,harmonic,1.7,4.526044478,m,,,,,,,
,,,,,,,,,,,725700,,001,2024-02-09_17h11.05.461,VH_new_version1,2023.2.3,MacIntel,59.88023952,114.3159,115.3163,,,,,,,,,,,,,,,,,,,,,,,,,,115.3164,116.1504,m,1,0.8188,,116.1505,116.1505,,0,17,17,136,1,137,adalet,1611,73.1975,1388,0.1517,6,notharmonic,1.65,4.864496248,m,,,,,,,
,,,,,,,,,,,725700,,001,2024-02-09_17h11.05.461,VH_new_version1,2023.2.3,MacIntel,59.88023952,116.1511,117.149,,,,,,,,,,,,,,,,,,,,,,,,,,117.149,117.7998,m,1,0.6378,,117.7999,117.8001,,0,18,18,13,1,14,kedi,1646,74.7877,1394,0.1524,4,harmonic,1.1,4.873830177,m,,,,,,,
,,,,,,,,,,,725700,,001,2024-02-09_17h11.05.461,VH_new_version1,2023.2.3,MacIntel,59.88023952,117.801,118.7996,,,,,,,,,,,,,,,,,,,,,,,,,,118.7996,119.4347,m,1,0.6122,,119.4348,119.4351,,0,19,19,24,1,25,dokuz,802,36.4397,646,0.0706,5,harmonic,1.55,4.561574793,m,,,,,,,
,,,,,,,,,,,725700,,001,2024-02-09_17h11.05.461,VH_new_version1,2023.2.3,MacIntel,59.88023952,119.4356,120.4344,,,,,,,,,,,,,,,,,,,,,,,,,,120.4345,120.95,m,1,0.4968,,120.9501,120.9508,,0,20,20,88,1,89,ateş,2108,95.7792,1803,0.1971,4,notharmonic,1.65,4.981271205,m,,,,,,,
,,,,,,,,,,,725700,,001,2024-02-09_17h11.05.461,VH_new_version1,2023.2.3,MacIntel,59.88023952,120.9511,121.9498,,,,,,,,,,,,,,,,,,,,,,,,,,121.9499,122.5168,z,1,0.5475,,122.5168,122.5174,,0,21,21,152,1,153,ebür,,,,,4,harmonic,1.95,,z,,,,,,,
,,,,,,,,,,,725700,,001,2024-02-09_17h11.05.461,VH_new_version1,2023.2.3,MacIntel,59.88023952,122.518,123.5169,,,,,,,,,,,,,,,,,,,,,,,,,,123.5173,124.3351,m,1,0.8049,,124.3351,124.3352,,0,22,22,62,1,63,kültür,2566,116.5889,2206,0.2412,6,harmonic,1.55,5.066657205,m,,,,,,,
,,,,,,,,,,,725700,,001,2024-02-09_17h11.05.461,VH_new_version1,2023.2.3,MacIntel,59.88023952,124.3355,125.3336,,,,,,,,,,,,,,,,,,,,,,,,,,125.3337,125.8837,m,1,0.5313,,125.8838,125.8839,,0,23,23,48,1,49,çocuk,10612,482.1672,8979,0.9816,5,harmonic,1.75,5.683197664,m,,,,,,,
,,,,,,,,,,,725700,,001,2024-02-09_17h11.05.461,VH_new_version1,2023.2.3,MacIntel,59.88023952,125.8847,126.8839,,,,,,,,,,,,,,,,,,,,,,,,,,126.884,127.4169,z,0,0.5138,,127.4171,127.4171,,0,24,24,94,1,95,anne,8179,371.6213,6883,0.7525,4,notharmonic,1.85,5.570100598,m,,,,,,,
,,,,,,,,,,,725700,,001,2024-02-09_17h11.05.461,VH_new_version1,2023.2.3,MacIntel,59.88023952,127.418,128.4175,,,,,,,,,,,,,,,,,,,,,,,,,,128.4175,129.2336,m,1,0.8043,,129.2339,129.2342,,0,25,25,17,1,18,sarı,2072,94.1435,1838,0.2009,4,harmonic,1,4.97379034,m,,,,,,,
,,,,,,,,,,,725700,,001,2024-02-09_17h11.05.461,VH_new_version1,2023.2.3,MacIntel,59.88023952,129.2348,130.2338,,,,,,,,,,,,,,,,,,,,,,,,,,130.234,130.7664,m,1,0.5201,,130.7664,130.7665,,0,26,26,55,1,56,zeytin,904,41.0742,758,0.0829,6,harmonic,1.85,4.613569113,m,,,,,,,
,,,,,,,,,,,725700,,001,2024-02-09_17h11.05.461,VH_new_version1,2023.2.3,MacIntel,59.88023952,130.7672,131.7674,,,,,,,,,,,,,,,,,,,,,,,,,,131.7675,132.4909,z,1,0.7134,,132.491,132.491,,0,27,27,273,1,274,kalkeş,,,,,6,notharmonic,1.85,,z,,,,,,,
,,,,,,,,,,,725700,,001,2024-02-09_17h11.05.461,VH_new_version1,2023.2.3,MacIntel,59.88023952,132.4912,133.484,,,,,,,,,,,,,,,,,,,,,,,,,,133.4841,134.2184,z,1,0.7125,,134.2184,134.2186,,0,28,28,242,1,243,sayke,,,,,5,notharmonic,1.9,,z,,,,,,,
,,,,,,,,,,,725700,,001,2024-02-09_17h11.05.461,VH_new_version1,2023.2.3,MacIntel,59.88023952,134.219,135.2161,,,,,,,,,,,,,,,,,,,,,,,,,,135.2161,135.867,m,1,0.6317,,135.867,135.8671,,0,29,29,104,1,105,tatil,2152,97.7783,1865,0.2039,5,notharmonic,1.7,4.990242482,m,,,,,,,
,,,,,,,,,,,725700,,001,2024-02-09_17h11.05.461,VH_new_version1,2023.2.3,MacIntel,59.88023952,135.8674,136.8675,,,,,,,,,,,,,,,,,,,,,,,,,,136.8675,137.4165,m,1,0.5372,,137.4166,137.4166,,0,30,30,73,1,74,lale,383,17.402,315,0.0344,4,notharmonic,1.35,4.240599164,m,,,,,,,
,,,,,,,,,,,725700,,001,2024-02-09_17h11.05.461,VH_new_version1,2023.2.3,MacIntel,59.88023952,137.4172,138.4182,,,,,,,,,,,,,,,,,,,,,,,,,,138.4187,139.1178,z,1,0.6803,,139.1178,139.1179,,0,31,31,187,1,188,ahfam,,,,,5,harmonic,1.85,,z,,,,,,,
,,,,,,,,,,,725700,,001,2024-02-09_17h11.05.461,VH_new_version1,2023.2.3,MacIntel,59.88023952,139.1188,140.1192,,,,,,,,,,,,,,,,,,,,,,,,,,140.1192,140.919,z,1,0.7875,,140.9192,140.9194,,0,32,32,252,1,253,canit,,,,,5,notharmonic,1.8,,z,,,,,,,
,,,,,,,,,,,725700,,001,2024-02-09_17h11.05.461,VH_new_version1,2023.2.3,MacIntel,59.88023952,140.9198,141.9192,,,,,,,,,,,,,,,,,,,,,,,,,,141.9192,142.6509,m,1,0.7174,,142.651,142.6511,,0,33,33,133,1,134,temmuz,1465,66.5638,1351,0.1477,6,notharmonic,2.15,4.823238107,m,,,,,,,
,,,,,,,,,,,725700,,001,2024-02-09_17h11.05.461,VH_new_version1,2023.2.3,MacIntel,59.88023952,142.6517,143.6505,,,,,,,,,,,,,,,,,,,,,,,,,,143.6506,144.3009,z,1,0.6322,,144.3013,144.3014,,0,34,34,262,1,263,barali,,,,,6,notharmonic,1.95,,z,,,,,,,
,,,,,,,,,,,725700,,001,2024-02-09_17h11.05.461,VH_new_version1,2023.2.3,MacIntel,59.88023952,144.3021,145.3029,,,,,,,,,,,,,,,,,,,,,,,,,,145.3029,145.9836,z,1,0.6669,,145.9836,145.9838,,0,35,35,271,1,272,yakele,,,,,6,notharmonic,2,,z,,,,,,,
,,,,,,,,,,,725700,,001,2024-02-09_17h11.05.461,VH_new_version1,2023.2.3,MacIntel,59.88023952,145.9842,146.9841,,,,,,,,,,,,,,,,,,,,,,,,,,146.9843,147.685,z,1,0.6806,,147.6852,147.6857,,0,36,36,269,1,270,sakate,,,,,6,notharmonic,1.8,,z,,,,,,,
,,,,,,,,,,,725700,,001,2024-02-09_17h11.05.461,VH_new_version1,2023.2.3,MacIntel,59.88023952,147.6862,148.6864,,,,,,,,,,,,,,,,,,,,,,,,,,148.6864,149.318,m,1,0.6198,,149.3181,149.3181,,0,37,37,43,1,44,bilgi,5981,271.7529,5353,0.5852,5,harmonic,1.5,5.434174187,m,,,,,,,
,,,,,,,,,,,725700,,001,2024-02-09_17h11.05.461,VH_new_version1,2023.2.3,MacIntel,59.88023952,149.3188,150.3186,,,,,,,,,,,,,,,,,,,,,,,,,,150.3187,151.1344,z,1,0.8025,,151.1345,151.1349,,0,38,38,163,1,164,küvü,,,,,4,harmonic,1.7,,z,,,,,,,
,,,,,,,,,,,725700,,001,2024-02-09_17h11.05.461,VH_new_version1,2023.2.3,MacIntel,59.88023952,151.1352,152.1343,,,,,,,,,,,,,,,,,,,,,,,,,,152.1344,152.8021,m,1,0.651,,152.8022,152.8023,,0,39,39,102,1,103,komik,1617,73.4701,1506,0.1646,5,notharmonic,1.75,4.866110631,m,,,,,,,
,,,,,,,,,,,725700,,001,2024-02-09_17h11.05.461,VH_new_version1,2023.2.3,MacIntel,59.88023952,152.8033,153.8021,,,,,,,,,,,,,,,,,,,,,,,,,,153.8022,154.3354,m,1,0.5158,,154.3356,154.3358,,0,40,40,103,1,104,davet,1782,80.967,1677,0.1833,5,notharmonic,1.85,4.908308048,m,,,,,,,
,,,,,,,,,,,725700,,001,2024-02-09_17h11.05.461,VH_new_version1,2023.2.3,MacIntel,59.88023952,154.3367,155.3352,,,,,,,,,,,,,,,,,,,,,,,,,,155.3353,156.0691,z,1,0.7132,,156.0692,156.0699,,0,41,41,258,1,259,ihati,,,,,5,notharmonic,1.95,,z,,,,,,,
,,,,,,,,,,,725700,,001,2024-02-09_17h11.05.461,VH_new_version1,2023.2.3,MacIntel,59.88023952,156.0703,157.0692,,,,,,,,,,,,,,,,,,,,,,,,,,157.0693,157.7679,m,1,0.6861,,157.768,157.768,,0,42,42,33,1,34,sayfa,1655,75.1966,1502,0.1642,5,harmonic,1.45,4.876198204,m,,,,,,,
,,,,,,,,,,,725700,,001,2024-02-09_17h11.05.461,VH_new_version1,2023.2.3,MacIntel,59.88023952,157.7684,158.7705,,,,,,,,,,,,,,,,,,,,,,,,,,158.7706,159.6527,m,1,0.866,,159.6528,159.6535,,0,43,43,7,1,8,inci,757,34.3951,686,0.075,4,harmonic,1.05,4.536496576,m,,,,,,,
,,,,,,,,,,,725700,,001,2024-02-09_17h11.05.461,VH_new_version1,2023.2.3,MacIntel,59.88023952,159.6538,160.653,,,,,,,,,,,,,,,,,,,,,,,,,,160.653,161.5048,m,1,0.8398,,161.5048,161.5049,,0,44,44,59,1,60,zengin,2193,99.6412,2015,0.2203,6,harmonic,1.65,4.998438949,m,,,,,,,
,,,,,,,,,,,725700,,001,2024-02-09_17h11.05.461,VH_new_version1,2023.2.3,MacIntel,59.88023952,161.5052,162.5037,,,,,,,,,,,,,,,,,,,,,,,,,,162.5037,163.1194,m,1,0.5987,,163.1195,163.12,,0,45,45,4,1,5,öfke,606,27.5342,542,0.0593,4,harmonic,1.85,4.439872463,m,,,,,,,
,,,,,,,,,,,725700,,001,2024-02-09_17h11.05.461,VH_new_version1,2023.2.3,MacIntel,59.88023952,163.1207,164.1214,,,,,,,,,,,,,,,,,,,,,,,,,,164.1214,164.8865,z,1,0.7449,,164.8869,164.8872,,0,46,46,219,1,220,anel,,,,,4,notharmonic,1.7,,z,,,,,,,
,,,,,,,,,,,725700,,001,2024-02-09_17h11.05.461,VH_new_version1,2023.2.3,MacIntel,59.88023952,164.8876,165.8851,,,,,,,,,,,,,,,,,,,,,,,,,,165.8851,166.5197,z,1,0.6211,,166.5197,166.5201,,0,47,47,245,1,246,gaset,,,,,5,notharmonic,1.85,,z,,,,,,,
,,,,,,,,,,,725700,,001,2024-02-09_17h11.05.461,VH_new_version1,2023.2.3,MacIntel,59.88023952,166.5207,167.5195,,,,,,,,,,,,,,,,,,,,,,,,,,167.5195,168.2048,z,1,0.6704,,168.2048,168.2049,,0,48,48,153,1,154,uyko,,,,,4,harmonic,1.95,,z,,,,,,,
,,,,,,,,,,,725700,,001,2024-02-09_17h11.05.461,VH_new_version1,2023.2.3,MacIntel,59.88023952,168.2052,169.2031,,,,,,,,,,,,,,,,,,,,,,,,,,169.2032,169.8702,z,1,0.6469,,169.871,169.871,,0,49,49,253,1,254,mafke,,,,,5,notharmonic,1.9,,z,,,,,,,
,,,,,,,,,,,725700,,001,2024-02-09_17h11.05.461,VH_new_version1,2023.2.3,MacIntel,59.88023952,169.8715,170.8712,,,,,,,,,,,,,,,,,,,,,,,,,,170.8712,171.6364,z,1,0.7484,,171.6367,171.6369,,0,50,50,205,1,206,hücmet,,,,,6,harmonic,1.85,,z,,,,,,,
,,,,,,,,,,,725700,,001,2024-02-09_17h11.05.461,VH_new_version1,2023.2.3,MacIntel,59.88023952,171.6374,172.6364,,,,,,,,,,,,,,,,,,,,,,,,,,172.6364,173.2857,z,1,0.6357,,173.2858,173.2858,,0,51,51,241,1,242,akter,,,,,5,notharmonic,1.8,,z,,,,,,,
,,,,,,,,,,,725700,,001,2024-02-09_17h11.05.461,VH_new_version1,2023.2.3,MacIntel,59.88023952,173.2864,174.2869,,,,,,,,,,,,,,,,,,,,,,,,,,174.287,174.9853,m,1,0.6847,,174.9854,174.9856,,0,52,52,76,1,77,ebru,500,22.718,440,0.0481,4,notharmonic,1.95,4.356370095,m,,,,,,,
,,,,,,,,,,,725700,,001,2024-02-09_17h11.05.461,VH_new_version1,2023.2.3,MacIntel,59.88023952,174.986,175.9864,,,,,,,,,,,,,,,,,,,,,,,,,,175.9866,176.5358,m,1,0.5365,,176.5359,176.5361,,0,53,53,127,1,128,sanayi,835,37.9391,737,0.0806,6,notharmonic,2,4.579087024,m,,,,,,,
,,,,,,,,,,,725700,,001,2024-02-09_17h11.05.461,VH_new_version1,2023.2.3,MacIntel,59.88023952,176.5365,177.5383,,,,,,,,,,,,,,,,,,,,,,,,,,177.5383,178.2865,z,1,0.7332,,178.2865,178.2866,,0,54,54,177,1,178,akapı,,,,,5,harmonic,1.8,,z,,,,,,,
,,,,,,,,,,,725700,,001,2024-02-09_17h11.05.461,VH_new_version1,2023.2.3,MacIntel,59.88023952,178.2872,179.2875,,,,,,,,,,,,,,,,,,,,,,,,,,179.2876,179.8866,m,1,0.58,,179.8867,179.8868,,0,55,55,41,1,42,hayal,4498,204.3713,4079,0.4459,5,harmonic,1.45,5.310419907,m,,,,,,,
,,,,,,,,,,,725700,,001,2024-02-09_17h11.05.461,VH_new_version1,2023.2.3,MacIntel,59.88023952,179.8879,180.8874,,,,,,,,,,,,,,,,,,,,,,,,,,180.8876,181.4713,m,1,0.5655,,181.4713,181.4715,,0,56,56,20,1,21,süre,8679,394.3393,8119,0.8876,4,harmonic,1,5.595870061,m,,,,,,,
,,,,,,,,,,,725700,,001,2024-02-09_17h11.05.461,VH_new_version1,2023.2.3,MacIntel,59.88023952,181.4718,182.4718,,,,,,,,,,,,,,,,,,,,,,,,,,182.4719,183.1054,z,1,0.6146,,183.1054,183.1056,,0,57,57,195,1,196,çoflak,,,,,6,harmonic,2,,z,,,,,,,
,,,,,,,,,,,725700,,001,2024-02-09_17h11.05.461,VH_new_version1,2023.2.3,MacIntel,59.88023952,183.1062,184.1053,,,,,,,,,,,,,,,,,,,,,,,,,,184.1054,184.7371,m,1,0.6146,,184.7371,184.7372,,0,58,58,32,1,33,güney,1639,74.4697,1439,0.1573,5,harmonic,1.65,4.871979604,m,,,,,,,
,,,,,,,,,,,725700,,001,2024-02-09_17h11.05.461,VH_new_version1,2023.2.3,MacIntel,59.88023952,184.7378,185.7377,,,,,,,,,,,,,,,,,,,,,,,,,,185.7379,186.4697,z,1,0.7143,,186.4698,186.4701,,0,59,59,178,1,179,güzül,,,,,5,harmonic,1.65,,z,,,,,,,
,,,,,,,,,,,725700,,001,2024-02-09_17h11.05.461,VH_new_version1,2023.2.3,MacIntel,59.88023952,186.4705,187.4716,,,,,,,,,,,,,,,,,,,,,,,,,,187.4716,188.0055,m,1,0.5148,,188.0056,188.0057,,0,60,60,26,1,27,boyun,843,38.3026,777,0.0849,5,harmonic,1.05,4.583228255,m,,,,,,,
,,,,,,,,,,,725700,,001,2024-02-09_17h11.05.461,VH_new_version1,2023.2.3,MacIntel,59.88023952,188.0061,189.0055,,,,,,,,,,,,,,,,,,,,,,,,,,189.0056,189.5558,m,1,0.5378,,189.5559,189.5559,,0,61,61,31,1,32,pembe,1549,70.3804,1327,0.1451,5,harmonic,2,4.847451731,m,,,,,,,
,,,,,,,,,,,725700,,001,2024-02-09_17h11.05.461,VH_new_version1,2023.2.3,MacIntel,59.88023952,189.5564,190.5558,,,,,,,,,,,,,,,,,,,,,,,,,,190.5559,191.1503,m,1,0.5846,,191.1503,191.1504,,0,62,62,101,1,102,kuzey,1493,67.836,1298,0.1419,5,notharmonic,1.85,4.831460232,m,,,,,,,
,,,,,,,,,,,725700,,001,2024-02-09_17h11.05.461,VH_new_version1,2023.2.3,MacIntel,59.88023952,191.1506,192.1386,,,,,,,,,,,,,,,,,,,,,,,,,,192.1387,192.8053,z,1,0.6469,,192.8055,192.8056,,0,63,63,254,1,255,hadir,,,,,5,notharmonic,1.4,,z,,,,,,,
,,,,,,,,,,,725700,,001,2024-02-09_17h11.05.461,VH_new_version1,2023.2.3,MacIntel,59.88023952,192.8064,193.8053,,,,,,,,,,,,,,,,,,,,,,,,,,193.8054,194.4215,z,1,0.6018,,194.4216,194.4217,,0,64,64,151,1,152,uban,,,,,4,harmonic,1.35,,z,,,,,,,
,,,,,,,,,,,725700,,001,2024-02-09_17h11.05.461,VH_new_version1,2023.2.3,MacIntel,59.88023952,194.4222,195.4222,,,,,,,,,,,,,,,,,,,,,,,,,,195.4223,196.0716,z,1,0.6318,,196.0717,196.0718,,0,65,65,157,1,158,öşek,,,,,4,harmonic,1.7,,z,,,,,,,
,,,,,,,,,,,725700,,001,2024-02-09_17h11.05.461,VH_new_version1,2023.2.3,MacIntel,59.88023952,196.0729,197.0719,,,,,,,,,,,,,,,,,,,,,,,,,,197.072,197.755,m,1,0.6698,,197.755,197.7552,,0,66,66,27,1,28,sekiz,872,39.6202,803,0.0878,5,harmonic,1.45,4.597916663,m,,,,,,,
,,,,,,,,,,,725700,,001,2024-02-09_17h11.05.461,VH_new_version1,2023.2.3,MacIntel,59.88023952,197.7561,198.7563,,,,,,,,,,,,,,,,,,,,,,,,,,198.7563,199.4218,z,1,0.6478,,199.4219,199.4221,,0,67,67,204,1,205,kürfür,,,,,6,harmonic,1.95,,z,,,,,,,
,,,,,,,,,,,725700,,001,2024-02-09_17h11.05.461,VH_new_version1,2023.2.3,MacIntel,59.88023952,199.4231,200.4212,,,,,,,,,,,,,,,,,,,,,,,,,,200.4213,200.9741,m,1,0.5403,,200.9741,200.9742,,0,68,68,118,1,119,dünya,11614,527.6941,10092,1.1033,5,notharmonic,1.85,5.722382238,m,,,,,,,
,,,,,,,,,,,725700,,001,2024-02-09_17h11.05.461,VH_new_version1,2023.2.3,MacIntel,59.88023952,200.9745,201.9722,,,,,,,,,,,,,,,,,,,,,,,,,,201.9722,202.7394,z,1,0.7543,,202.7396,202.7399,,0,69,69,260,1,261,dülda,,,,,5,notharmonic,1.95,,z,,,,,,,
,,,,,,,,,,,725700,,001,2024-02-09_17h11.05.461,VH_new_version1,2023.2.3,MacIntel,59.88023952,202.7403,203.7389,,,,,,,,,,,,,,,,,,,,,,,,,,203.739,204.3713,m,1,0.6174,,204.3714,208.6891,space,0,70,70,72,1,73,bela,373,16.9476,355,0.0388,4,notharmonic,1.4,4.229108205,m,4.3029,,,,,,
,,,,,,,,,,,725700,,001,2024-02-09_17h11.05.461,VH_new_version1,2023.2.3,MacIntel,59.88023952,208.7034,209.7066,,,,,,,,,,,,,,,,,,,,,,,,,,209.7069,210.4226,z,1,0.699,,210.4227,210.4229,,0,71,71,156,1,157,obık,,,,,4,harmonic,1.95,,z,,,,,,,
,,,,,,,,,,,725700,,001,2024-02-09_17h11.05.461,VH_new_version1,2023.2.3,MacIntel,59.88023952,210.4235,211.4232,,,,,,,,,,,,,,,,,,,,,,,,,,211.4233,211.9735,m,1,0.535,,211.9736,211.9736,,0,72,72,36,1,37,gönül,1786,81.1488,1676,0.1832,5,harmonic,1.8,4.909282102,m,,,,,,,
,,,,,,,,,,,725700,,001,2024-02-09_17h11.05.461,VH_new_version1,2023.2.3,MacIntel,59.88023952,211.9741,212.9729,,,,,,,,,,,,,,,,,,,,,,,,,,212.973,213.6228,z,1,0.6343,,213.623,213.6231,,0,73,73,244,1,245,kimık,,,,,5,notharmonic,2,,z,,,,,,,
,,,,,,,,,,,725700,,001,2024-02-09_17h11.05.461,VH_new_version1,2023.2.3,MacIntel,59.88023952,213.624,214.6231,,,,,,,,,,,,,,,,,,,,,,,,,,214.6232,215.4897,z,1,0.8473,,215.4898,215.4899,,0,74,74,207,1,208,dendek,,,,,6,harmonic,1.8,,z,,,,,,,
,,,,,,,,,,,725700,,001,2024-02-09_17h11.05.461,VH_new_version1,2023.2.3,MacIntel,59.88023952,215.4908,216.4901,,,,,,,,,,,,,,,,,,,,,,,,,,216.4904,217.407,z,1,0.9032,,217.407,217.4071,,0,75,75,263,1,264,magina,,,,,6,notharmonic,1.9,,z,,,,,,,
,,,,,,,,,,,725700,,001,2024-02-09_17h11.05.461,VH_new_version1,2023.2.3,MacIntel,59.88023952,217.4077,218.4062,,,,,,,,,,,,,,,,,,,,,,,,,,218.4062,218.9896,m,1,0.5641,,218.9897,218.9898,,0,76,76,85,1,86,elma,1225,55.6591,1047,0.1145,4,notharmonic,1.65,4.74553618,m,,,,,,,
,,,,,,,,,,,725700,,001,2024-02-09_17h11.05.461,VH_new_version1,2023.2.3,MacIntel,59.88023952,218.9907,219.9899,,,,,,,,,,,,,,,,,,,,,,,,,,219.99,220.5754,m,1,0.5736,,220.5754,220.5755,,0,77,77,106,1,107,tarih,2806,127.4935,2483,0.2714,5,notharmonic,1.55,5.105488044,m,,,,,,,
,,,,,,,,,,,725700,,001,2024-02-09_17h11.05.461,VH_new_version1,2023.2.3,MacIntel,59.88023952,220.5759,221.5748,,,,,,,,,,,,,,,,,,,,,,,,,,221.5748,222.2746,m,1,0.6874,,222.2749,222.275,,0,78,78,120,1,121,makale,358,16.2661,347,0.0379,6,notharmonic,1.75,4.211283438,m,,,,,,,
,,,,,,,,,,,725700,,001,2024-02-09_17h11.05.461,VH_new_version1,2023.2.3,MacIntel,59.88023952,222.2754,223.2737,,,,,,,,,,,,,,,,,,,,,,,,,,223.2738,223.8728,z,1,0.5833,,223.873,223.8731,,0,79,79,218,1,219,ecmu,,,,,4,notharmonic,2,,z,,,,,,,
,,,,,,,,,,,725700,,001,2024-02-09_17h11.05.461,VH_new_version1,2023.2.3,MacIntel,59.88023952,223.8734,224.8735,,,,,,,,,,,,,,,,,,,,,,,,,,224.8736,225.4586,m,1,0.5656,,225.4587,225.4589,,0,80,80,63,1,64,hizmet,3023,137.3531,2689,0.294,6,harmonic,1.75,5.137838466,m,,,,,,,
,,,,,,,,,,,725700,,001,2024-02-09_17h11.05.461,VH_new_version1,2023.2.3,MacIntel,59.88023952,225.4594,226.4569,,,,,,,,,,,,,,,,,,,,,,,,,,226.457,226.9584,m,1,0.4813,,226.9584,226.9585,,0,81,81,83,1,84,eşya,1061,48.2076,672,0.0735,4,notharmonic,1.9,4.683115511,m,,,,,,,
,,,,,,,,,,,725700,,001,2024-02-09_17h11.05.461,VH_new_version1,2023.2.3,MacIntel,59.88023952,226.9591,227.9583,,,,,,,,,,,,,,,,,,,,,,,,,,227.9584,228.6244,z,1,0.6539,,228.6248,228.625,,0,82,82,257,1,258,seran,,,,,5,notharmonic,1.35,,z,,,,,,,
,,,,,,,,,,,725700,,001,2024-02-09_17h11.05.461,VH_new_version1,2023.2.3,MacIntel,59.88023952,228.6256,229.6242,,,,,,,,,,,,,,,,,,,,,,,,,,229.6242,230.2912,m,1,0.6482,,230.2912,230.2912,,0,83,83,112,1,113,haber,4559,207.1429,4151,0.4538,5,notharmonic,1.85,5.316270052,m,,,,,,,
,,,,,,,,,,,725700,,001,2024-02-09_17h11.05.461,VH_new_version1,2023.2.3,MacIntel,59.88023952,230.2914,231.2902,,,,,,,,,,,,,,,,,,,,,,,,,,231.2902,231.9077,z,1,0.6014,,231.9077,231.9078,,0,84,84,251,1,252,madit,,,,,5,notharmonic,1.9,,z,,,,,,,
,,,,,,,,,,,725700,,001,2024-02-09_17h11.05.461,VH_new_version1,2023.2.3,MacIntel,59.88023952,231.9081,232.9071,,,,,,,,,,,,,,,,,,,,,,,,,,232.9072,233.5233,m,1,0.602,,233.5233,233.5234,,0,85,85,123,1,124,mercan,518,23.5359,210,0.023,6,notharmonic,1.85,4.37173081,m,,,,,,,
,,,,,,,,,,,725700,,001,2024-02-09_17h11.05.461,VH_new_version1,2023.2.3,MacIntel,59.88023952,233.5236,234.5229,,,,,,,,,,,,,,,,,,,,,,,,,,234.523,235.1739,m,1,0.6324,,235.1739,235.1741,,0,86,86,64,1,65,teknik,3297,149.8026,2798,0.3059,6,harmonic,1.9,5.175519351,m,,,,,,,
,,,,,,,,,,,725700,,001,2024-02-09_17h11.05.461,VH_new_version1,2023.2.3,MacIntel,59.88023952,235.1749,236.174,,,,,,,,,,,,,,,,,,,,,,,,,,236.174,236.7742,z,1,0.5809,,236.7742,236.7744,,0,87,87,146,1,147,öğne,,,,,4,harmonic,1.7,,z,,,,,,,
,,,,,,,,,,,725700,,001,2024-02-09_17h11.05.461,VH_new_version1,2023.2.3,MacIntel,59.88023952,236.7751,237.7737,,,,,,,,,,,,,,,,,,,,,,,,,,237.7737,238.3913,z,1,0.6061,,238.3914,238.3915,,0,88,88,186,1,187,erbik,,,,,5,harmonic,1.75,,z,,,,,,,
,,,,,,,,,,,725700,,001,2024-02-09_17h11.05.461,VH_new_version1,2023.2.3,MacIntel,59.88023952,238.3923,239.3907,,,,,,,,,,,,,,,,,,,,,,,,,,239.3908,239.9236,m,1,0.5166,,239.9238,239.924,,0,89,89,0,1,1,ödev,191,8.6783,175,0.0191,4,harmonic,1.6,3.938434659,m,,,,,,,
,,,,,,,,,,,725700,,001,2024-02-09_17h11.05.461,VH_new_version1,2023.2.3,MacIntel,59.88023952,239.9245,240.9239,,,,,,,,,,,,,,,,,,,,,,,,,,240.924,241.6573,z,1,0.7189,,241.6573,241.6574,,0,90,90,183,1,184,çapal,,,,,5,harmonic,1.6,,z,,,,,,,
,,,,,,,,,,,725700,,001,2024-02-09_17h11.05.461,VH_new_version1,2023.2.3,MacIntel,59.88023952,241.6579,242.6576,,,,,,,,,,,,,,,,,,,,,,,,,,242.6576,243.2078,m,1,0.5303,,243.2079,243.2079,,0,91,91,89,1,90,mavi,2206,100.2319,1934,0.2114,4,notharmonic,1.45,5.001005963,m,,,,,,,
,,,,,,,,,,,725700,,001,2024-02-09_17h11.05.461,VH_new_version1,2023.2.3,MacIntel,59.88023952,243.2087,244.2085,,,,,,,,,,,,,,,,,,,,,,,,,,244.2085,245.0573,z,1,0.8351,,245.0574,245.0574,,0,92,92,197,1,198,zemkin,,,,,6,harmonic,1.85,,z,,,,,,,
,,,,,,,,,,,725700,,001,2024-02-09_17h11.05.461,VH_new_version1,2023.2.3,MacIntel,59.88023952,245.0578,246.0581,,,,,,,,,,,,,,,,,,,,,,,,,,246.0582,246.658,m,1,0.5865,,246.6581,246.6582,,0,93,93,8,1,9,ağız,824,37.4393,758,0.0829,4,harmonic,1.2,4.57332772,m,,,,,,,
,,,,,,,,,,,725700,,001,2024-02-09_17h11.05.461,VH_new_version1,2023.2.3,MacIntel,59.88023952,246.6587,247.6565,,,,,,,,,,,,,,,,,,,,,,,,,,247.6565,248.341,m,1,0.6695,,248.3411,248.3411,,0,94,94,91,1,92,aile,3655,166.0687,3126,0.3417,4,notharmonic,1,5.220287786,m,,,,,,,
,,,,,,,,,,,725700,,001,2024-02-09_17h11.05.461,VH_new_version1,2023.2.3,MacIntel,59.88023952,248.3416,249.3416,,,,,,,,,,,,,,,,,,,,,,,,,,249.3417,249.9079,z,1,0.552,,249.9079,249.9079,,0,95,95,179,1,180,şünle,,,,,5,harmonic,1.75,,z,,,,,,,
,,,,,,,,,,,725700,,001,2024-02-09_17h11.05.461,VH_new_version1,2023.2.3,MacIntel,59.88023952,249.9083,250.9085,,,,,,,,,,,,,,,,,,,,,,,,,,250.9085,251.5082,z,1,0.5839,,251.5082,251.5083,,0,96,96,142,1,143,öbeh,,,,,4,harmonic,1.95,,z,,,,,,,
,,,,,,,,,,,725700,,001,2024-02-09_17h11.05.461,VH_new_version1,2023.2.3,MacIntel,59.88023952,251.5086,252.5067,,,,,,,,,,,,,,,,,,,,,,,,,,252.5067,253.0092,z,1,0.4905,,253.0093,253.0093,,0,97,97,230,1,231,asez,,,,,4,notharmonic,1.9,,z,,,,,,,
,,,,,,,,,,,725700,,001,2024-02-09_17h11.05.461,VH_new_version1,2023.2.3,MacIntel,59.88023952,253.01,254.0085,,,,,,,,,,,,,,,,,,,,,,,,,,254.0085,254.6087,m,1,0.5795,,254.6087,254.6088,,0,98,98,82,1,83,şair,889,40.3926,775,0.0847,4,notharmonic,1.75,4.606301809,m,,,,,,,
,,,,,,,,,,,725700,,001,2024-02-09_17h11.05.461,VH_new_version1,2023.2.3,MacIntel,59.88023952,254.6096,255.607,,,,,,,,,,,,,,,,,,,,,,,,,,255.607,256.2422,z,1,0.6171,,256.2423,256.2425,,0,99,99,173,1,174,pirbe,,,,,5,harmonic,1.9,,z,,,,,,,
,,,,,,,,,,,725700,,001,2024-02-09_17h11.05.461,VH_new_version1,2023.2.3,MacIntel,59.88023952,256.2432,257.2423,,,,,,,,,,,,,,,,,,,,,,,,,,257.2424,257.8573,z,1,0.5953,,257.8573,257.8575,,0,100,100,193,1,194,hatrak,,,,,6,harmonic,1.95,,z,,,,,,,
,,,,,,,,,,,725700,,001,2024-02-09_17h11.05.461,VH_new_version1,2023.2.3,MacIntel,59.88023952,257.8583,258.8586,,,,,,,,,,,,,,,,,,,,,,,,,,258.8586,259.4924,m,1,0.6166,,259.4925,259.4926,,0,101,101,25,1,26,orman,819,37.2121,705,0.0771,5,harmonic,1.3,4.570684179,m,,,,,,,
,,,,,,,,,,,725700,,001,2024-02-09_17h11.05.461,VH_new_version1,2023.2.3,MacIntel,59.88023952,259.4933,260.4923,,,,,,,,,,,,,,,,,,,,,,,,,,260.4924,261.0759,m,1,0.5636,,261.0759,261.0761,,0,102,102,1,1,2,ufuk,437,19.8555,403,0.0441,4,harmonic,1.85,4.297880828,m,,,,,,,
,,,,,,,,,,,725700,,001,2024-02-09_17h11.05.461,VH_new_version1,2023.2.3,MacIntel,59.88023952,261.0767,262.076,,,,,,,,,,,,,,,,,,,,,,,,,,262.0761,262.7586,z,1,0.6701,,262.7586,262.7587,,0,103,103,166,1,167,dokoş,,,,,5,harmonic,2,,z,,,,,,,
,,,,,,,,,,,725700,,001,2024-02-09_17h11.05.461,VH_new_version1,2023.2.3,MacIntel,59.88023952,262.7591,263.7619,,,,,,,,,,,,,,,,,,,,,,,,,,263.7619,264.3751,m,1,0.5986,,264.3752,264.3754,,0,104,104,39,1,40,mayıs,2630,119.4968,2294,0.2508,5,harmonic,1.75,5.077356275,m,,,,,,,
,,,,,,,,,,,725700,,001,2024-02-09_17h11.05.461,VH_new_version1,2023.2.3,MacIntel,59.88023952,264.3758,265.3764,,,,,,,,,,,,,,,,,,,,,,,,,,265.3764,266.0263,m,1,0.6294,,266.0264,266.0266,,0,105,105,96,1,97,şahin,681,30.9419,570,0.0623,5,notharmonic,1.5,4.490546978,m,,,,,,,
,,,,,,,,,,,725700,,001,2024-02-09_17h11.05.461,VH_new_version1,2023.2.3,MacIntel,59.88023952,266.0274,267.0252,,,,,,,,,,,,,,,,,,,,,,,,,,267.0252,267.6619,m,1,0.6231,,267.662,267.6621,,0,106,106,60,1,61,nefret,2429,110.3641,2115,0.2312,6,harmonic,1.8,5.042827826,m,,,,,,,
,,,,,,,,,,,725700,,001,2024-02-09_17h11.05.461,VH_new_version1,2023.2.3,MacIntel,59.88023952,267.6624,268.6595,,,,,,,,,,,,,,,,,,,,,,,,,,268.6596,269.2764,m,1,0.5974,,269.2765,269.2766,,0,107,107,116,1,117,ifade,6177,280.6584,5726,0.626,5,notharmonic,1.7,5.448178045,m,,,,,,,
,,,,,,,,,,,725700,,001,2024-02-09_17h11.05.461,VH_new_version1,2023.2.3,MacIntel,59.88023952,269.2776,270.2765,,,,,,,,,,,,,,,,,,,,,,,,,,270.2765,270.8919,z,1,0.6029,,270.8922,270.8923,,0,108,108,256,1,257,betaş,,,,,5,notharmonic,1.85,,z,,,,,,,
,,,,,,,,,,,725700,,001,2024-02-09_17h11.05.461,VH_new_version1,2023.2.3,MacIntel,59.88023952,270.8928,271.8933,,,,,,,,,,,,,,,,,,,,,,,,,,271.8933,272.4594,m,1,0.5547,,272.4594,272.4596,,0,109,109,3,1,4,otuz,583,26.4892,556,0.0608,4,harmonic,1.45,4.423068842,m,,,,,,,
,,,,,,,,,,,725700,,001,2024-02-09_17h11.05.461,VH_new_version1,2023.2.3,MacIntel,59.88023952,272.4603,273.4599,,,,,,,,,,,,,,,,,,,,,,,,,,273.4599,274.1277,z,1,0.6541,,274.1277,274.1279,,0,110,110,159,1,160,daro,,,,,4,harmonic,1.7,,z,,,,,,,
,,,,,,,,,,,725700,,001,2024-02-09_17h11.05.461,VH_new_version1,2023.2.3,MacIntel,59.88023952,274.1284,275.1265,,,,,,,,,,,,,,,,,,,,,,,,,,275.1266,275.6764,m,1,0.5323,,275.6765,275.6766,,0,111,111,21,1,22,kötü,9344,424.5543,8257,0.9027,4,harmonic,1.65,5.627933244,m,,,,,,,
,,,,,,,,,,,725700,,001,2024-02-09_17h11.05.461,VH_new_version1,2023.2.3,MacIntel,59.88023952,275.6771,276.6767,,,,,,,,,,,,,,,,,,,,,,,,,,276.6768,277.2936,m,1,0.5958,,277.2937,277.2938,,0,112,112,35,1,36,araba,1704,77.423,1485,0.1623,5,harmonic,1,4.888869995,m,,,,,,,
,,,,,,,,,,,725700,,001,2024-02-09_17h11.05.461,VH_new_version1,2023.2.3,MacIntel,59.88023952,277.2945,278.2936,,,,,,,,,,,,,,,,,,,,,,,,,,278.2937,278.8939,z,1,0.5818,,278.8939,278.8941,,0,113,113,143,1,144,uçek,,,,,4,harmonic,1.85,,z,,,,,,,
,,,,,,,,,,,725700,,001,2024-02-09_17h11.05.461,VH_new_version1,2023.2.3,MacIntel,59.88023952,278.8947,279.8937,,,,,,,,,,,,,,,,,,,,,,,,,,279.8937,280.5602,m,1,0.6504,,280.5602,280.5603,,0,114,114,68,1,69,devlet,5766,261.9842,4854,0.5306,6,harmonic,1.65,5.4182751,m,,,,,,,
,,,,,,,,,,,725700,,001,2024-02-09_17h11.05.461,VH_new_version1,2023.2.3,MacIntel,59.88023952,280.5607,281.5606,,,,,,,,,,,,,,,,,,,,,,,,,,281.5606,282.094,m,1,0.5133,,282.0941,282.0942,,0,115,115,16,1,17,umut,1988,90.3268,1818,0.1987,4,harmonic,1.55,4.955816625,m,,,,,,,
,,,,,,,,,,,725700,,001,2024-02-09_17h11.05.461,VH_new_version1,2023.2.3,MacIntel,59.88023952,282.0949,283.0939,,,,,,,,,,,,,,,,,,,,,,,,,,283.0939,283.659,m,1,0.5466,,283.659,283.6591,,0,116,116,61,1,62,yağmur,2491,113.1812,2156,0.2357,6,harmonic,1.9,5.053774294,m,,,,,,,
,,,,,,,,,,,725700,,001,2024-02-09_17h11.05.461,VH_new_version1,2023.2.3,MacIntel,59.88023952,283.66,284.6589,,,,,,,,,,,,,,,,,,,,,,,,,,284.6589,285.3435,z,1,0.6682,,285.3435,285.3435,,0,117,117,228,1,229,idna,,,,,4,notharmonic,1.8,,z,,,,,,,
,,,,,,,,,,,725700,,001,2024-02-09_17h11.05.461,VH_new_version1,2023.2.3,MacIntel,59.88023952,285.3439,286.3423,,,,,,,,,,,,,,,,,,,,,,,,,,286.3424,287.4585,z,1,1.103,,287.4586,287.4587,,0,118,118,276,1,277,hiyake,,,,,6,notharmonic,2.25,,z,,,,,,,
,,,,,,,,,,,725700,,001,2024-02-09_17h11.05.461,VH_new_version1,2023.2.3,MacIntel,59.88023952,287.459,288.461,,,,,,,,,,,,,,,,,,,,,,,,,,288.461,289.1941,z,1,0.7156,,289.1941,289.1942,,0,119,119,236,1,237,alte,,,,,4,notharmonic,1.7,,z,,,,,,,
,,,,,,,,,,,725700,,001,2024-02-09_17h11.05.461,VH_new_version1,2023.2.3,MacIntel,59.88023952,289.1947,290.1729,,,,,,,,,,,,,,,,,,,,,,,,,,290.1729,290.8275,z,1,0.6372,,290.8276,290.828,,0,120,120,191,1,192,pedrek,,,,,6,harmonic,2,,z,,,,,,,
,,,,,,,,,,,725700,,001,2024-02-09_17h11.05.461,VH_new_version1,2023.2.3,MacIntel,59.88023952,290.8283,291.8276,,,,,,,,,,,,,,,,,,,,,,,,,,291.8276,292.6279,z,1,0.7862,,292.6279,292.628,,0,121,121,261,1,262,eksan,,,,,5,notharmonic,1.7,,z,,,,,,,
,,,,,,,,,,,725700,,001,2024-02-09_17h11.05.461,VH_new_version1,2023.2.3,MacIntel,59.88023952,292.6287,293.6284,,,,,,,,,,,,,,,,,,,,,,,,,,293.6284,294.511,z,1,0.8698,,294.511,294.5111,,0,122,122,216,1,217,same,,,,,4,notharmonic,1.6,,z,,,,,,,
,,,,,,,,,,,725700,,001,2024-02-09_17h11.05.461,VH_new_version1,2023.2.3,MacIntel,59.88023952,294.5115,295.5123,,,,,,,,,,,,,,,,,,,,,,,,,,295.5124,296.2119,z,1,0.6805,,296.2119,296.2121,,0,123,123,202,1,203,cehret,,,,,6,harmonic,1.85,,z,,,,,,,
,,,,,,,,,,,725700,,001,2024-02-09_17h11.05.461,VH_new_version1,2023.2.3,MacIntel,59.88023952,296.2132,297.2108,,,,,,,,,,,,,,,,,,,,,,,,,,297.2108,297.8286,m,1,0.5969,,297.8288,297.8289,,0,124,124,108,1,109,hafif,3355,152.4379,3101,0.339,5,notharmonic,1.75,5.183092957,m,,,,,,,
,,,,,,,,,,,725700,,001,2024-02-09_17h11.05.461,VH_new_version1,2023.2.3,MacIntel,59.88023952,297.8294,298.8285,,,,,,,,,,,,,,,,,,,,,,,,,,298.8286,299.4788,m,1,0.6352,,299.4789,299.479,,0,125,125,46,1,47,hayat,7922,359.9443,7314,0.7996,5,harmonic,1.35,5.556235301,m,,,,,,,
,,,,,,,,,,,725700,,001,2024-02-09_17h11.05.461,VH_new_version1,2023.2.3,MacIntel,59.88023952,299.4798,300.48,,,,,,,,,,,,,,,,,,,,,,,,,,300.48,301.0791,z,1,0.5843,,301.0791,301.0795,,0,126,126,233,1,234,eali,,,,,4,notharmonic,1,,z,,,,,,,
,,,,,,,,,,,725700,,001,2024-02-09_17h11.05.461,VH_new_version1,2023.2.3,MacIntel,59.88023952,301.0804,302.0784,,,,,,,,,,,,,,,,,,,,,,,,,,302.0784,302.7106,m,1,0.6164,,302.7106,302.7108,,0,127,127,40,1,41,temel,4231,192.2399,3851,0.421,5,harmonic,1.55,5.283843532,m,,,,,,,
,,,,,,,,,,,725700,,001,2024-02-09_17h11.05.461,VH_new_version1,2023.2.3,MacIntel,59.88023952,302.7114,303.7126,,,,,,,,,,,,,,,,,,,,,,,,,,303.7127,304.4949,m,1,0.7671,,304.4949,304.495,,0,128,128,58,1,59,toprak,1989,90.3723,1762,0.1926,6,harmonic,1.9,4.956035335,m,,,,,,,
,,,,,,,,,,,725700,,001,2024-02-09_17h11.05.461,VH_new_version1,2023.2.3,MacIntel,59.88023952,304.4952,305.4955,,,,,,,,,,,,,,,,,,,,,,,,,,305.4955,306.0772,z,1,0.5644,,306.0773,306.0774,,0,129,129,283,1,284,dimdat,,,,,6,notharmonic,2.05,,z,,,,,,,
,,,,,,,,,,,725700,,001,2024-02-09_17h11.05.461,VH_new_version1,2023.2.3,MacIntel,59.88023952,306.0784,307.0771,,,,,,,,,,,,,,,,,,,,,,,,,,307.0772,307.6772,z,1,0.5816,,307.6773,307.6774,,0,130,130,196,1,197,etçime,,,,,6,harmonic,1.9,,z,,,,,,,
,,,,,,,,,,,725700,,001,2024-02-09_17h11.05.461,VH_new_version1,2023.2.3,MacIntel,59.88023952,307.678,308.6791,,,,,,,,,,,,,,,,,,,,,,,,,,308.6791,309.2621,m,1,0.5675,,309.2622,309.2622,,0,131,131,57,1,58,bayram,1948,88.5094,1648,0.1802,6,harmonic,1.85,4.946989397,m,,,,,,,
,,,,,,,,,,,725700,,001,2024-02-09_17h11.05.461,VH_new_version1,2023.2.3,MacIntel,59.88023952,309.2626,310.2626,,,,,,,,,,,,,,,,,,,,,,,,,,310.2626,310.8459,z,1,0.5627,,310.8459,310.8459,,0,132,132,277,1,278,şeylam,,,,,6,notharmonic,2,,z,,,,,,,
,,,,,,,,,,,725700,,001,2024-02-09_17h11.05.461,VH_new_version1,2023.2.3,MacIntel,59.88023952,310.8467,311.8441,,,,,,,,,,,,,,,,,,,,,,,,,,311.8441,312.4773,z,1,0.6175,,312.4774,312.4774,,0,133,133,190,1,191,gopuk,,,,,5,harmonic,1.85,,z,,,,,,,
,,,,,,,,,,,725700,,001,2024-02-09_17h11.05.461,VH_new_version1,2023.2.3,MacIntel,59.88023952,312.4778,313.4796,,,,,,,,,,,,,,,,,,,,,,,,,,313.4796,314.0623,z,1,0.5691,,314.0624,314.0624,,0,134,134,145,1,146,oyoz,,,,,4,harmonic,1.9,,z,,,,,,,
,,,,,,,,,,,725700,,001,2024-02-09_17h11.05.461,VH_new_version1,2023.2.3,MacIntel,59.88023952,314.0628,315.061,,,,,,,,,,,,,,,,,,,,,,,,,,315.061,315.6943,m,1,0.6161,,315.6943,315.6944,,0,135,135,22,1,23,özel,9726,441.9109,8559,0.9357,4,harmonic,1.35,5.645334714,m,,,,,,,
,,,,,,,,,,,725700,,001,2024-02-09_17h11.05.461,VH_new_version1,2023.2.3,MacIntel,59.88023952,315.6948,316.6946,,,,,,,,,,,,,,,,,,,,,,,,,,316.6946,317.278,z,1,0.5692,,317.278,317.278,,0,136,136,250,1,251,hapef,,,,,5,notharmonic,1.95,,z,,,,,,,
,,,,,,,,,,,725700,,001,2024-02-09_17h11.05.461,VH_new_version1,2023.2.3,MacIntel,59.88023952,317.2788,318.2797,,,,,,,,,,,,,,,,,,,,,,,,,,318.2798,319.1132,m,1,0.8134,,319.1133,319.1134,,0,137,137,37,1,38,cümle,1911,86.8283,1765,0.193,5,harmonic,1.85,4.938661298,m,,,,,,,
,,,,,,,,,,,725700,,001,2024-02-09_17h11.05.461,VH_new_version1,2023.2.3,MacIntel,59.88023952,319.1141,320.1133,,,,,,,,,,,,,,,,,,,,,,,,,,320.1133,320.6948,m,1,0.5654,,320.6948,320.6949,,0,138,138,97,1,98,kalem,994,45.1634,881,0.0963,5,notharmonic,1.35,4.654786629,m,,,,,,,
,,,,,,,,,,,725700,,001,2024-02-09_17h11.05.461,VH_new_version1,2023.2.3,MacIntel,59.88023952,320.6955,321.6967,,,,,,,,,,,,,,,,,,,,,,,,,,321.6967,322.363,z,1,0.6557,,322.363,322.3631,,0,139,139,169,1,170,senez,,,,,5,harmonic,1.65,,z,,,,,,,
,,,,,,,,,,,725700,,001,2024-02-09_17h11.05.461,VH_new_version1,2023.2.3,MacIntel,59.88023952,322.3635,323.3635,,,,,,,,,,,,,,,,,,,,,,,,,,323.3636,323.995,z,1,0.6161,,323.9951,323.9951,,0,140,140,158,1,159,uzot,,,,,4,harmonic,1.9,,z,,,,,,,
,,,,,,,,,,,725700,,001,2024-02-09_17h11.05.461,VH_new_version1,2023.2.3,MacIntel,59.88023952,323.9958,324.9953,,,,,,,,,,,,,,,,,,,,,,,,,,324.9953,325.5616,m,1,0.5541,,325.5616,329.1465,space,0,141,141,90,1,91,ceza,2611,118.6335,2169,0.2371,4,notharmonic,1.5,5.074207343,m,3.5754,,,,,,
,,,,,,,,,,,725700,,001,2024-02-09_17h11.05.461,VH_new_version1,2023.2.3,MacIntel,59.88023952,329.157,330.1472,,,,,,,,,,,,,,,,,,,,,,,,,,330.1473,330.8303,z,1,0.6667,,330.8303,330.8305,,0,142,142,203,1,204,yağcır,,,,,6,harmonic,1.9,,z,,,,,,,
,,,,,,,,,,,725700,,001,2024-02-09_17h11.05.461,VH_new_version1,2023.2.3,MacIntel,59.88023952,330.8309,331.8306,,,,,,,,,,,,,,,,,,,,,,,,,,331.8306,332.5622,z,1,0.7181,,332.5622,332.5624,,0,143,143,229,1,230,irar,,,,,4,notharmonic,1.65,,z,,,,,,,
,,,,,,,,,,,725700,,001,2024-02-09_17h11.05.461,VH_new_version1,2023.2.3,MacIntel,59.88023952,332.5627,333.5623,,,,,,,,,,,,,,,,,,,,,,,,,,333.5623,334.1642,z,1,0.5862,,334.1642,334.1645,,0,144,144,194,1,195,bufsay,,,,,6,harmonic,2.6,,z,,,,,,,
,,,,,,,,,,,725700,,001,2024-02-09_17h11.05.461,VH_new_version1,2023.2.3,MacIntel,59.88023952,334.1652,335.1625,,,,,,,,,,,,,,,,,,,,,,,,,,335.1626,335.8144,z,1,0.6382,,335.8144,335.8145,,0,145,145,237,1,238,masem,,,,,5,notharmonic,1.7,,z,,,,,,,
,,,,,,,,,,,725700,,001,2024-02-09_17h11.05.461,VH_new_version1,2023.2.3,MacIntel,59.88023952,335.8153,336.8146,,,,,,,,,,,,,,,,,,,,,,,,,,336.8147,337.3626,m,1,0.5362,,337.3626,337.3627,,0,146,146,117,1,118,kitap,8359,379.7998,6786,0.7418,5,notharmonic,1.9,5.579554732,m,,,,,,,
,,,,,,,,,,,725700,,001,2024-02-09_17h11.05.461,VH_new_version1,2023.2.3,MacIntel,59.88023952,337.3633,338.3644,,,,,,,,,,,,,,,,,,,,,,,,,,338.3645,338.8978,z,1,0.5131,,338.8979,338.8981,,0,147,147,226,1,227,şüda,,,,,4,notharmonic,1.9,,z,,,,,,,
,,,,,,,,,,,725700,,001,2024-02-09_17h11.05.461,VH_new_version1,2023.2.3,MacIntel,59.88023952,338.8988,339.8979,,,,,,,,,,,,,,,,,,,,,,,,,,339.898,340.4808,m,1,0.5667,,340.4809,340.481,,0,148,148,45,1,46,akşam,7480,339.8615,6833,0.747,5,harmonic,1.6,5.53130197,m,,,,,,,
,,,,,,,,,,,725700,,001,2024-02-09_17h11.05.461,VH_new_version1,2023.2.3,MacIntel,59.88023952,340.4815,341.4814,,,,,,,,,,,,,,,,,,,,,,,,,,341.4814,342.197,m,1,0.7013,,342.197,342.1971,,0,149,149,6,1,7,avuç,729,33.1229,659,0.072,4,harmonic,1.85,4.520128353,m,,,,,,,
,,,,,,,,,,,725700,,001,2024-02-09_17h11.05.461,VH_new_version1,2023.2.3,MacIntel,59.88023952,342.1978,343.1983,,,,,,,,,,,,,,,,,,,,,,,,,,343.1984,343.8296,z,1,0.615,,343.8296,343.8298,,0,150,150,267,1,268,tapare,,,,,6,notharmonic,1.95,,z,,,,,,,
,,,,,,,,,,,725700,,001,2024-02-09_17h11.05.461,VH_new_version1,2023.2.3,MacIntel,59.88023952,343.8303,344.8298,,,,,,,,,,,,,,,,,,,,,,,,,,344.8298,345.3645,m,1,0.521,,345.3646,345.3647,,0,151,151,80,1,81,nane,658,29.8969,607,0.0664,4,notharmonic,1.5,4.475626159,m,,,,,,,
,,,,,,,,,,,725700,,001,2024-02-09_17h11.05.461,VH_new_version1,2023.2.3,MacIntel,59.88023952,345.365,346.3636,,,,,,,,,,,,,,,,,,,,,,,,,,346.3637,347.015,z,1,0.6362,,347.0151,347.0152,,0,152,152,213,1,214,zale,,,,,4,notharmonic,1.55,,z,,,,,,,
,,,,,,,,,,,725700,,001,2024-02-09_17h11.05.461,VH_new_version1,2023.2.3,MacIntel,59.88023952,347.016,348.015,,,,,,,,,,,,,,,,,,,,,,,,,,348.0152,348.7148,z,1,0.6858,,348.7148,348.7149,,0,153,153,265,1,266,terhan,,,,,6,notharmonic,1.95,,z,,,,,,,
,,,,,,,,,,,725700,,001,2024-02-09_17h11.05.461,VH_new_version1,2023.2.3,MacIntel,59.88023952,348.7154,349.7157,,,,,,,,,,,,,,,,,,,,,,,,,,349.7157,350.4346,z,1,0.6995,,350.4347,350.4347,,0,154,154,221,1,222,mane,,,,,4,notharmonic,1.4,,z,,,,,,,
,,,,,,,,,,,725700,,001,2024-02-09_17h11.05.461,VH_new_version1,2023.2.3,MacIntel,59.88023952,350.4349,351.4324,,,,,,,,,,,,,,,,,,,,,,,,,,351.4325,351.981,m,1,0.5334,,351.9811,351.9813,,0,155,155,12,1,13,ağaç,1245,56.5679,1082,0.1183,4,harmonic,1.6,4.752570056,m,,,,,,,
,,,,,,,,,,,725700,,001,2024-02-09_17h11.05.461,VH_new_version1,2023.2.3,MacIntel,59.88023952,351.9819,352.9824,,,,,,,,,,,,,,,,,,,,,,,,,,352.9825,353.5151,m,1,0.5179,,353.5152,353.5153,,0,156,156,23,1,24,evet,12599,572.4486,11447,1.2514,4,harmonic,1.65,5.757736498,m,,,,,,,
,,,,,,,,,,,725700,,001,2024-02-09_17h11.05.461,VH_new_version1,2023.2.3,MacIntel,59.88023952,353.5159,354.5151,,,,,,,,,,,,,,,,,,,,,,,,,,354.5151,355.0649,z,1,0.5343,,355.065,355.0652,,0,157,157,243,1,244,kuyef,,,,,5,notharmonic,2.3,,z,,,,,,,
,,,,,,,,,,,725700,,001,2024-02-09_17h11.05.461,VH_new_version1,2023.2.3,MacIntel,59.88023952,355.0656,356.065,,,,,,,,,,,,,,,,,,,,,,,,,,356.065,356.5995,m,1,0.5154,,356.5995,356.5997,,0,158,158,93,1,94,tane,5623,255.4868,5075,0.5548,4,notharmonic,1.3,5.407368467,m,,,,,,,
,,,,,,,,,,,725700,,001,2024-02-09_17h11.05.461,VH_new_version1,2023.2.3,MacIntel,59.88023952,356.6006,357.5982,,,,,,,,,,,,,,,,,,,,,,,,,,357.5984,358.265,m,1,0.6538,,358.265,358.2651,,0,159,159,100,1,101,sahne,1380,62.7017,1238,0.1353,5,notharmonic,1.65,4.797279316,m,,,,,,,
,,,,,,,,,,,725700,,001,2024-02-09_17h11.05.461,VH_new_version1,2023.2.3,MacIntel,59.88023952,358.2653,359.2663,,,,,,,,,,,,,,,,,,,,,,,,,,359.2664,359.8514,z,1,0.5629,,359.8514,359.8515,,0,160,160,192,1,193,kumgun,,,,,6,harmonic,1.85,,z,,,,,,,
,,,,,,,,,,,725700,,001,2024-02-09_17h11.05.461,VH_new_version1,2023.2.3,MacIntel,59.88023952,359.8519,360.8498,,,,,,,,,,,,,,,,,,,,,,,,,,360.8499,361.5327,z,1,0.6608,,361.5328,361.533,,0,161,161,148,1,149,aşıç,,,,,4,harmonic,1.65,,z,,,,,,,
,,,,,,,,,,,725700,,001,2024-02-09_17h11.05.461,VH_new_version1,2023.2.3,MacIntel,59.88023952,361.5333,362.5321,,,,,,,,,,,,,,,,,,,,,,,,,,362.5321,363.182,z,1,0.6307,,363.182,363.1821,,0,162,162,162,1,163,möre,,,,,4,harmonic,1.65,,z,,,,,,,
,,,,,,,,,,,725700,,001,2024-02-09_17h11.05.461,VH_new_version1,2023.2.3,MacIntel,59.88023952,363.183,364.1826,,,,,,,,,,,,,,,,,,,,,,,,,,364.1828,364.7333,m,1,0.5302,,364.7334,364.7335,,0,163,163,30,1,31,pamuk,937,42.5736,826,0.0903,5,harmonic,1.9,4.629140375,m,,,,,,,
,,,,,,,,,,,725700,,001,2024-02-09_17h11.05.461,VH_new_version1,2023.2.3,MacIntel,59.88023952,364.7345,365.7331,,,,,,,,,,,,,,,,,,,,,,,,,,365.7332,366.2825,z,1,0.5339,,366.2825,366.2826,,0,164,164,224,1,225,faer,,,,,4,notharmonic,1.9,,z,,,,,,,
,,,,,,,,,,,725700,,001,2024-02-09_17h11.05.461,VH_new_version1,2023.2.3,MacIntel,59.88023952,366.2831,367.2819,,,,,,,,,,,,,,,,,,,,,,,,,,367.282,367.8652,m,1,0.5684,,367.8652,367.8655,,0,165,165,67,1,68,sosyal,5290,240.3566,4372,0.4779,6,harmonic,1.85,5.380856052,m,,,,,,,
,,,,,,,,,,,725700,,001,2024-02-09_17h11.05.461,VH_new_version1,2023.2.3,MacIntel,59.88023952,367.866,368.8678,,,,,,,,,,,,,,,,,,,,,,,,,,368.8678,369.4837,z,0,0.5993,,369.4838,369.4843,,0,166,166,77,1,78,alet,507,23.0361,473,0.0517,4,notharmonic,1.3,4.362408955,m,,,,,,,
,,,,,,,,,,,725700,,001,2024-02-09_17h11.05.461,VH_new_version1,2023.2.3,MacIntel,59.88023952,369.4849,370.4839,,,,,,,,,,,,,,,,,,,,,,,,,,370.4841,371.0665,m,1,0.5672,,371.0665,371.0669,,0,167,167,44,1,45,erkek,6188,281.1582,5195,0.5679,5,harmonic,1.55,5.448950754,m,,,,,,,
,,,,,,,,,,,725700,,001,2024-02-09_17h11.05.461,VH_new_version1,2023.2.3,MacIntel,59.88023952,371.0673,372.0671,,,,,,,,,,,,,,,,,,,,,,,,,,372.0671,372.6841,z,1,0.6001,,372.6843,372.6844,,0,168,168,176,1,177,çırna,,,,,5,harmonic,1.85,,z,,,,,,,
,,,,,,,,,,,725700,,001,2024-02-09_17h11.05.461,VH_new_version1,2023.2.3,MacIntel,59.88023952,372.6851,373.684,,,,,,,,,,,,,,,,,,,,,,,,,,373.684,374.1995,m,1,0.5009,,374.1996,374.1997,,0,169,169,52,1,53,buğday,746,33.8953,623,0.0681,6,harmonic,1.9,4.530139482,m,,,,,,,
,,,,,,,,,,,725700,,001,2024-02-09_17h11.05.461,VH_new_version1,2023.2.3,MacIntel,59.88023952,374.1999,375.2,,,,,,,,,,,,,,,,,,,,,,,,,,375.2001,375.7325,m,1,0.5178,,375.7325,375.7328,,0,170,170,34,1,35,çorba,1674,76.0599,1513,0.1654,5,harmonic,1.75,4.88115575,m,,,,,,,
,,,,,,,,,,,725700,,001,2024-02-09_17h11.05.461,VH_new_version1,2023.2.3,MacIntel,59.88023952,375.7333,376.7348,,,,,,,,,,,,,,,,,,,,,,,,,,376.7349,377.2495,z,1,0.4987,,377.2495,377.2497,,0,171,171,279,1,280,tevaha,,,,,6,notharmonic,2,,z,,,,,,,
,,,,,,,,,,,725700,,001,2024-02-09_17h11.05.461,VH_new_version1,2023.2.3,MacIntel,59.88023952,377.2503,378.2503,,,,,,,,,,,,,,,,,,,,,,,,,,378.2504,378.8857,m,1,0.6166,,378.8858,378.8859,,0,172,172,49,1,50,çeyrek,540,24.5355,477,0.0521,6,harmonic,1.9,4.389794913,m,,,,,,,
,,,,,,,,,,,725700,,001,2024-02-09_17h11.05.461,VH_new_version1,2023.2.3,MacIntel,59.88023952,378.8865,379.8845,,,,,,,,,,,,,,,,,,,,,,,,,,379.8846,380.4345,m,1,0.5327,,380.4345,380.4346,,0,173,173,50,1,51,kurşun,604,27.4434,551,0.0602,6,harmonic,1.55,4.438437916,m,,,,,,,
,,,,,,,,,,,725700,,001,2024-02-09_17h11.05.461,VH_new_version1,2023.2.3,MacIntel,59.88023952,380.4357,381.4331,,,,,,,,,,,,,,,,,,,,,,,,,,381.4331,381.9523,m,1,0.506,,381.9524,381.9524,,0,174,174,29,1,30,şarap,926,42.0738,787,0.086,5,harmonic,1.9,4.624011738,m,,,,,,,
,,,,,,,,,,,725700,,001,2024-02-09_17h11.05.461,VH_new_version1,2023.2.3,MacIntel,59.88023952,381.9528,382.9527,,,,,,,,,,,,,,,,,,,,,,,,,,382.9527,383.4838,m,1,0.5158,,383.4838,383.4839,,0,175,175,124,1,125,efsane,522,23.7176,475,0.0519,6,notharmonic,1.95,4.37507074,m,,,,,,,
,,,,,,,,,,,725700,,001,2024-02-09_17h11.05.461,VH_new_version1,2023.2.3,MacIntel,59.88023952,383.4845,384.4845,,,,,,,,,,,,,,,,,,,,,,,,,,384.4845,384.9342,m,1,0.4361,,384.9343,384.9344,,0,176,176,10,1,11,eser,958,43.5277,892,0.0975,4,harmonic,1,4.63876572,m,,,,,,,
,,,,,,,,,,,725700,,001,2024-02-09_17h11.05.461,VH_new_version1,2023.2.3,MacIntel,59.88023952,384.9348,385.9325,,,,,,,,,,,,,,,,,,,,,,,,,,385.9325,386.4011,m,1,0.4522,,386.4012,386.4013,,0,177,177,69,1,70,yüksek,7909,359.3536,7119,0.7783,6,harmonic,1.7,5.555522,m,,,,,,,
,,,,,,,,,,,725700,,001,2024-02-09_17h11.05.461,VH_new_version1,2023.2.3,MacIntel,59.88023952,386.4017,387.4011,,,,,,,,,,,,,,,,,,,,,,,,,,387.4011,387.8509,m,1,0.435,,387.851,387.8511,,0,178,178,18,1,19,ülke,3121,141.8059,2801,0.3062,4,harmonic,1.65,5.151694301,m,,,,,,,
,,,,,,,,,,,725700,,001,2024-02-09_17h11.05.461,VH_new_version1,2023.2.3,MacIntel,59.88023952,387.8515,388.8527,,,,,,,,,,,,,,,,,,,,,,,,,,388.8527,389.4852,z,1,0.6165,,389.4856,389.4859,,0,179,179,246,1,247,masil,,,,,5,notharmonic,1.7,,z,,,,,,,
,,,,,,,,,,,725700,,001,2024-02-09_17h11.05.461,VH_new_version1,2023.2.3,MacIntel,59.88023952,389.4863,390.489,,,,,,,,,,,,,,,,,,,,,,,,,,390.4891,391.1353,z,1,0.6324,,391.1354,391.1356,,0,180,180,248,1,249,talif,,,,,5,notharmonic,1.5,,z,,,,,,,
,,,,,,,,,,,725700,,001,2024-02-09_17h11.05.461,VH_new_version1,2023.2.3,MacIntel,59.88023952,391.1365,392.1343,,,,,,,,,,,,,,,,,,,,,,,,,,392.1343,392.753,z,1,0.5968,,392.7531,392.7532,,0,181,181,211,1,212,yıksık,,,,,6,harmonic,1.8,,z,,,,,,,
,,,,,,,,,,,725700,,001,2024-02-09_17h11.05.461,VH_new_version1,2023.2.3,MacIntel,59.88023952,392.7536,393.752,,,,,,,,,,,,,,,,,,,,,,,,,,393.752,394.2501,m,1,0.4833,,394.2502,394.2503,,0,182,182,140,1,141,dakika,5891,267.6637,5207,0.5692,6,notharmonic,1.75,5.427589477,m,,,,,,,
,,,,,,,,,,,725700,,001,2024-02-09_17h11.05.461,VH_new_version1,2023.2.3,MacIntel,59.88023952,394.2513,395.2509,,,,,,,,,,,,,,,,,,,,,,,,,,395.2512,395.9508,z,1,0.6859,,395.951,395.9513,,0,183,183,189,1,190,genek,,,,,5,harmonic,1.6,,z,,,,,,,
,,,,,,,,,,,725700,,001,2024-02-09_17h11.05.461,VH_new_version1,2023.2.3,MacIntel,59.88023952,395.9517,396.9522,,,,,,,,,,,,,,,,,,,,,,,,,,396.9523,397.6192,z,1,0.6486,,397.6198,397.62,,0,184,184,174,1,175,güzeh,,,,,5,harmonic,1.85,,z,,,,,,,
,,,,,,,,,,,725700,,001,2024-02-09_17h11.05.461,VH_new_version1,2023.2.3,MacIntel,59.88023952,397.6203,398.6187,,,,,,,,,,,,,,,,,,,,,,,,,,398.6188,399.201,m,1,0.5677,,399.2012,399.2015,,0,185,185,28,1,29,melek,878,39.8928,773,0.0845,5,harmonic,1.1,4.60089452,m,,,,,,,
,,,,,,,,,,,725700,,001,2024-02-09_17h11.05.461,VH_new_version1,2023.2.3,MacIntel,59.88023952,399.2018,400.2011,,,,,,,,,,,,,,,,,,,,,,,,,,400.2012,400.9363,m,1,0.7208,,400.9366,400.9367,,0,186,186,126,1,127,mucize,574,26.0803,542,0.0593,6,notharmonic,1.85,4.416312583,m,,,,,,,
,,,,,,,,,,,725700,,001,2024-02-09_17h11.05.461,VH_new_version1,2023.2.3,MacIntel,59.88023952,400.9369,401.9368,,,,,,,,,,,,,,,,,,,,,,,,,,401.9369,402.6018,z,1,0.6507,,402.6018,402.6019,,0,187,187,235,1,236,mate,,,,,4,notharmonic,1.65,,z,,,,,,,
,,,,,,,,,,,725700,,001,2024-02-09_17h11.05.461,VH_new_version1,2023.2.3,MacIntel,59.88023952,402.6026,403.602,,,,,,,,,,,,,,,,,,,,,,,,,,403.6021,404.3356,z,1,0.7167,,404.3357,404.3358,,0,188,188,180,1,181,finer,,,,,5,harmonic,1.65,,z,,,,,,,
,,,,,,,,,,,725700,,001,2024-02-09_17h11.05.461,VH_new_version1,2023.2.3,MacIntel,59.88023952,404.3367,405.335,,,,,,,,,,,,,,,,,,,,,,,,,,405.335,406.0021,z,1,0.6536,,406.0023,406.0025,,0,189,189,154,1,155,afap,,,,,4,harmonic,1.7,,z,,,,,,,
,,,,,,,,,,,725700,,001,2024-02-09_17h11.05.461,VH_new_version1,2023.2.3,MacIntel,59.88023952,406.0029,407.0038,,,,,,,,,,,,,,,,,,,,,,,,,,407.0038,407.9372,z,1,0.9237,,407.9372,407.9374,,0,190,190,247,1,248,fiyan,,,,,5,notharmonic,1.6,,z,,,,,,,
,,,,,,,,,,,725700,,001,2024-02-09_17h11.05.461,VH_new_version1,2023.2.3,MacIntel,59.88023952,407.9377,408.9365,,,,,,,,,,,,,,,,,,,,,,,,,,408.9366,409.5189,m,1,0.5696,,409.5189,409.519,,0,191,191,129,1,130,hamile,1075,48.8437,877,0.0959,6,notharmonic,1.5,4.688808555,m,,,,,,,
,,,,,,,,,,,725700,,001,2024-02-09_17h11.05.461,VH_new_version1,2023.2.3,MacIntel,59.88023952,409.5197,410.5187,,,,,,,,,,,,,,,,,,,,,,,,,,410.5188,411.0859,m,1,0.551,,411.086,411.086,,0,192,192,2,1,3,iğne,515,23.3996,455,0.0497,4,harmonic,1.65,4.369208434,m,,,,,,,
,,,,,,,,,,,725700,,001,2024-02-09_17h11.05.461,VH_new_version1,2023.2.3,MacIntel,59.88023952,411.0866,412.0871,,,,,,,,,,,,,,,,,,,,,,,,,,412.0872,412.636,m,1,0.534,,412.6361,412.6365,,0,193,193,70,1,71,gerçek,8983,408.1519,8058,0.8809,6,harmonic,1.7,5.610821823,m,,,,,,,
,,,,,,,,,,,725700,,001,2024-02-09_17h11.05.461,VH_new_version1,2023.2.3,MacIntel,59.88023952,412.6371,413.6362,,,,,,,,,,,,,,,,,,,,,,,,,,413.6362,414.2187,z,1,0.5677,,414.2188,414.2192,,0,194,194,234,1,235,ated,,,,,4,notharmonic,1.8,,z,,,,,,,
,,,,,,,,,,,725700,,001,2024-02-09_17h11.05.461,VH_new_version1,2023.2.3,MacIntel,59.88023952,414.2198,415.2193,,,,,,,,,,,,,,,,,,,,,,,,,,415.2194,416.0371,m,1,0.7989,,416.0374,416.0378,,0,195,195,78,1,79,şifa,534,24.2628,502,0.0549,4,notharmonic,1.75,4.384940918,m,,,,,,,
,,,,,,,,,,,725700,,001,2024-02-09_17h11.05.461,VH_new_version1,2023.2.3,MacIntel,59.88023952,416.0381,417.0378,,,,,,,,,,,,,,,,,,,,,,,,,,417.0378,417.5363,m,1,0.483,,417.5364,417.5364,,0,196,196,9,1,10,uçak,894,40.6198,752,0.0822,4,harmonic,1.4,4.608737781,m,,,,,,,
,,,,,,,,,,,725700,,001,2024-02-09_17h11.05.461,VH_new_version1,2023.2.3,MacIntel,59.88023952,417.5371,418.5382,,,,,,,,,,,,,,,,,,,,,,,,,,418.5382,419.3037,z,1,0.7478,,419.3037,419.3039,,0,197,197,144,1,145,içke,,,,,4,harmonic,1.6,,z,,,,,,,
,,,,,,,,,,,725700,,001,2024-02-09_17h11.05.461,VH_new_version1,2023.2.3,MacIntel,59.88023952,419.3051,420.304,,,,,,,,,,,,,,,,,,,,,,,,,,420.3045,421.0707,z,1,0.7512,,421.0708,421.0709,,0,198,198,222,1,223,laze,,,,,4,notharmonic,1.7,,z,,,,,,,
,,,,,,,,,,,725700,,001,2024-02-09_17h11.05.461,VH_new_version1,2023.2.3,MacIntel,59.88023952,421.0719,422.0721,,,,,,,,,,,,,,,,,,,,,,,,,,422.0721,422.6049,m,1,0.5182,,422.6049,422.605,,0,199,199,99,1,100,asker,1368,62.1565,1200,0.1312,5,notharmonic,1.9,4.793486552,m,,,,,,,
,,,,,,,,,,,725700,,001,2024-02-09_17h11.05.461,VH_new_version1,2023.2.3,MacIntel,59.88023952,422.6055,423.6031,,,,,,,,,,,,,,,,,,,,,,,,,,423.6031,424.253,m,1,0.6318,,424.2532,424.2535,,0,200,200,98,1,99,mekan,998,45.3452,911,0.0996,5,notharmonic,1.5,4.656531322,m,,,,,,,
,,,,,,,,,,,725700,,001,2024-02-09_17h11.05.461,VH_new_version1,2023.2.3,MacIntel,59.88023952,424.254,425.2543,,,,,,,,,,,,,,,,,,,,,,,,,,425.2546,425.8521,z,1,0.5829,,425.8521,425.8522,,0,201,201,198,1,199,tenlek,,,,,6,harmonic,1.85,,z,,,,,,,
,,,,,,,,,,,725700,,001,2024-02-09_17h11.05.461,VH_new_version1,2023.2.3,MacIntel,59.88023952,425.8529,426.8541,,,,,,,,,,,,,,,,,,,,,,,,,,426.8543,427.4864,z,1,0.6201,,427.4865,427.4865,,0,202,202,170,1,171,telen,,,,,5,harmonic,1.15,,z,,,,,,,
,,,,,,,,,,,725700,,001,2024-02-09_17h11.05.461,VH_new_version1,2023.2.3,MacIntel,59.88023952,427.4871,428.4871,,,,,,,,,,,,,,,,,,,,,,,,,,428.4871,429.0365,m,1,0.5376,,429.0365,429.0366,,0,203,203,115,1,116,merak,5806,263.8016,5524,0.6039,5,notharmonic,1.65,5.421277425,m,,,,,,,
,,,,,,,,,,,725700,,001,2024-02-09_17h11.05.461,VH_new_version1,2023.2.3,MacIntel,59.88023952,429.0368,430.038,,,,,,,,,,,,,,,,,,,,,,,,,,430.0381,430.7059,z,1,0.6537,,430.7059,430.706,,0,204,204,155,1,156,megi,,,,,4,harmonic,1.8,,z,,,,,,,
,,,,,,,,,,,725700,,001,2024-02-09_17h11.05.461,VH_new_version1,2023.2.3,MacIntel,59.88023952,430.7062,431.7046,,,,,,,,,,,,,,,,,,,,,,,,,,431.7047,432.2557,m,1,0.5359,,432.2557,432.2559,,0,205,205,132,1,133,gazete,1402,63.7013,1270,0.1388,6,notharmonic,1.8,4.804148295,m,,,,,,,
,,,,,,,,,,,725700,,001,2024-02-09_17h11.05.461,VH_new_version1,2023.2.3,MacIntel,59.88023952,432.2562,433.2543,,,,,,,,,,,,,,,,,,,,,,,,,,433.2543,434.0042,m,0,0.7289,,434.0042,434.0043,,0,206,206,181,1,182,masus,,,,,5,harmonic,1.7,,z,,,,,,,
,,,,,,,,,,,725700,,001,2024-02-09_17h11.05.461,VH_new_version1,2023.2.3,MacIntel,59.88023952,434.0048,435.006,,,,,,,,,,,,,,,,,,,,,,,,,,435.006,435.6869,m,1,0.6693,,435.687,435.6874,,0,207,207,128,1,129,mektup,992,45.0725,842,0.092,6,notharmonic,2.05,4.653911647,m,,,,,,,
,,,,,,,,,,,725700,,001,2024-02-09_17h11.05.461,VH_new_version1,2023.2.3,MacIntel,59.88023952,435.6877,436.6877,,,,,,,,,,,,,,,,,,,,,,,,,,436.6879,437.3056,z,1,0.6018,,437.3056,437.3057,,0,208,208,275,1,276,teşbuz,,,,,6,notharmonic,2.75,,z,,,,,,,
,,,,,,,,,,,725700,,001,2024-02-09_17h11.05.461,VH_new_version1,2023.2.3,MacIntel,59.88023952,437.3061,438.3053,,,,,,,,,,,,,,,,,,,,,,,,,,438.3054,440.2561,m,1,1.932,,440.2561,440.2562,,0,209,209,42,1,43,şeker,4708,213.9128,4170,0.4559,5,harmonic,1.6,5.330236772,m,,,,,,,
,,,,,,,,,,,725700,,001,2024-02-09_17h11.05.461,VH_new_version1,2023.2.3,MacIntel,59.88023952,440.2656,441.2565,,,,,,,,,,,,,,,,,,,,,,,,,,441.2566,441.9887,m,1,0.7122,,441.9888,441.9889,,0,210,210,15,1,16,ışık,1814,82.421,1635,0.1787,4,harmonic,1.6,4.916037879,m,,,,,,,
,,,,,,,,,,,725700,,001,2024-02-09_17h11.05.461,VH_new_version1,2023.2.3,MacIntel,59.88023952,441.9898,442.9894,,,,,,,,,,,,,,,,,,,,,,,,,,442.9895,443.6054,m,1,0.5941,,443.6055,443.6057,,0,211,211,113,1,114,cevap,5232,237.7213,4822,0.5271,5,notharmonic,1.85,5.376068097,m,,,,,,,
,,,,,,,,,,,725700,,001,2024-02-09_17h11.05.461,VH_new_version1,2023.2.3,MacIntel,59.88023952,443.6068,444.6058,,,,,,,,,,,,,,,,,,,,,,,,,,444.6059,445.2347,m,1,0.619,,445.2347,446.2891,space,0,212,212,125,1,126,bahane,558,25.3533,544,0.0595,6,notharmonic,1.8,4.404034495,m,1.0484,,,,,,
,,,,,,,,,,,725700,,001,2024-02-09_17h11.05.461,VH_new_version1,2023.2.3,MacIntel,59.88023952,446.3,447.289,,,,,,,,,,,,,,,,,,,,,,,,,,447.2891,448.0052,z,1,0.6984,,448.0052,448.0054,,0,213,213,272,1,273,takime,,,,,6,notharmonic,1.5,,z,,,,,,,
,,,,,,,,,,,725700,,001,2024-02-09_17h11.05.461,VH_new_version1,2023.2.3,MacIntel,59.88023952,448.0061,449.0068,,,,,,,,,,,,,,,,,,,,,,,,,,449.0068,449.8064,z,1,0.784,,449.8064,449.8066,,0,214,214,215,1,216,zali,,,,,4,notharmonic,1.25,,z,,,,,,,
,,,,,,,,,,,725700,,001,2024-02-09_17h11.05.461,VH_new_version1,2023.2.3,MacIntel,59.88023952,449.8069,450.806,,,,,,,,,,,,,,,,,,,,,,,,,,450.8064,451.4564,z,1,0.6366,,451.4565,451.4566,,0,215,215,209,1,210,soğkal,,,,,6,harmonic,2.1,,z,,,,,,,
,,,,,,,,,,,725700,,001,2024-02-09_17h11.05.461,VH_new_version1,2023.2.3,MacIntel,59.88023952,451.457,452.456,,,,,,,,,,,,,,,,,,,,,,,,,,452.4561,453.0728,m,1,0.5971,,453.073,453.0733,,0,216,216,11,1,12,öykü,958,43.5277,849,0.0928,4,harmonic,1.9,4.63876572,m,,,,,,,
,,,,,,,,,,,725700,,001,2024-02-09_17h11.05.461,VH_new_version1,2023.2.3,MacIntel,59.88023952,453.0739,454.0727,,,,,,,,,,,,,,,,,,,,,,,,,,454.0728,454.6559,m,1,0.5653,,454.6559,454.6561,,0,217,217,109,1,110,basit,3385,153.801,3177,0.3473,5,notharmonic,1.65,5.186959159,m,,,,,,,
,,,,,,,,,,,725700,,001,2024-02-09_17h11.05.461,VH_new_version1,2023.2.3,MacIntel,59.88023952,454.6565,455.6571,,,,,,,,,,,,,,,,,,,,,,,,,,455.6572,456.2228,m,1,0.5475,,456.2228,456.223,,0,218,218,134,1,135,hikaye,1555,70.653,1405,0.1536,6,notharmonic,1.8,4.849130607,m,,,,,,,
,,,,,,,,,,,725700,,001,2024-02-09_17h11.05.461,VH_new_version1,2023.2.3,MacIntel,59.88023952,456.2236,457.223,,,,,,,,,,,,,,,,,,,,,,,,,,457.223,457.9398,z,1,0.6987,,457.9399,457.9401,,0,219,219,268,1,269,mucepi,,,,,6,notharmonic,2.85,,z,,,,,,,
,,,,,,,,,,,725700,,001,2024-02-09_17h11.05.461,VH_new_version1,2023.2.3,MacIntel,59.88023952,457.9407,458.94,,,,,,,,,,,,,,,,,,,,,,,,,,458.94,459.8234,z,1,0.8652,,459.8235,459.8237,,0,220,220,282,1,283,daketi,,,,,6,notharmonic,1.8,,z,,,,,,,
,,,,,,,,,,,725700,,001,2024-02-09_17h11.05.461,VH_new_version1,2023.2.3,MacIntel,59.88023952,459.8241,460.8235,,,,,,,,,,,,,,,,,,,,,,,,,,460.8235,461.4727,m,1,0.6315,,461.4728,461.4729,,0,221,221,119,1,120,insan,17821,809.7156,15619,1.7075,5,notharmonic,1.5,5.908332506,m,,,,,,,
,,,,,,,,,,,725700,,001,2024-02-09_17h11.05.461,VH_new_version1,2023.2.3,MacIntel,59.88023952,461.4734,462.4729,,,,,,,,,,,,,,,,,,,,,,,,,,462.4729,463.0886,z,1,0.6002,,463.0886,463.0888,,0,222,222,264,1,265,şingan,,,,,6,notharmonic,2.15,,z,,,,,,,
,,,,,,,,,,,725700,,001,2024-02-09_17h11.05.461,VH_new_version1,2023.2.3,MacIntel,59.88023952,463.0895,464.0915,,,,,,,,,,,,,,,,,,,,,,,,,,464.0916,464.7729,z,1,0.6654,,464.7729,464.7731,,0,223,223,149,1,150,irgi,,,,,4,harmonic,1.8,,z,,,,,,,
,,,,,,,,,,,725700,,001,2024-02-09_17h11.05.461,VH_new_version1,2023.2.3,MacIntel,59.88023952,464.7741,465.7741,,,,,,,,,,,,,,,,,,,,,,,,,,465.7741,466.39,z,1,0.5949,,466.3901,466.3902,,0,224,224,165,1,166,eyel,,,,,4,harmonic,1.65,,z,,,,,,,
,,,,,,,,,,,725700,,001,2024-02-09_17h11.05.461,VH_new_version1,2023.2.3,MacIntel,59.88023952,466.3911,467.3889,,,,,,,,,,,,,,,,,,,,,,,,,,467.3891,467.9219,m,1,0.5198,,467.9222,467.9223,,0,225,225,114,1,115,beyaz,5517,250.6706,4788,0.5234,5,notharmonic,1.85,5.399103401,m,,,,,,,
,,,,,,,,,,,725700,,001,2024-02-09_17h11.05.461,VH_new_version1,2023.2.3,MacIntel,59.88023952,467.9228,468.9249,,,,,,,,,,,,,,,,,,,,,,,,,,468.925,469.5568,z,1,0.6154,,469.5568,469.5569,,0,226,226,225,1,226,elda,,,,,4,notharmonic,1.6,,z,,,,,,,
,,,,,,,,,,,725700,,001,2024-02-09_17h11.05.461,VH_new_version1,2023.2.3,MacIntel,59.88023952,469.5575,470.5572,,,,,,,,,,,,,,,,,,,,,,,,,,470.5573,471.2272,m,1,0.6588,,471.2272,471.2273,,0,227,227,5,1,6,üzüm,716,32.5322,588,0.0643,4,harmonic,1.45,4.512313434,m,,,,,,,
,,,,,,,,,,,725700,,001,2024-02-09_17h11.05.461,VH_new_version1,2023.2.3,MacIntel,59.88023952,471.2276,472.2234,,,,,,,,,,,,,,,,,,,,,,,,,,472.2235,472.9249,z,1,0.6841,,472.9249,472.9252,,0,228,228,240,1,241,makek,,,,,5,notharmonic,1.9,,z,,,,,,,
,,,,,,,,,,,725700,,001,2024-02-09_17h11.05.461,VH_new_version1,2023.2.3,MacIntel,59.88023952,472.9256,473.9248,,,,,,,,,,,,,,,,,,,,,,,,,,473.9249,474.4575,m,0,0.5231,,474.4576,474.4579,,0,229,229,220,1,221,nica,,,,,4,notharmonic,1.75,,z,,,,,,,
,,,,,,,,,,,725700,,001,2024-02-09_17h11.05.461,VH_new_version1,2023.2.3,MacIntel,59.88023952,474.458,475.4571,,,,,,,,,,,,,,,,,,,,,,,,,,475.4572,476.1236,z,1,0.6527,,476.1237,476.1238,,0,230,230,208,1,209,terbiy,,,,,6,harmonic,1.9,,z,,,,,,,
,,,,,,,,,,,725700,,001,2024-02-09_17h11.05.461,VH_new_version1,2023.2.3,MacIntel,59.88023952,476.1244,477.1245,,,,,,,,,,,,,,,,,,,,,,,,,,477.1246,477.8893,z,1,0.75,,477.8893,477.8895,,0,231,231,185,1,186,birpi,,,,,5,harmonic,1.75,,z,,,,,,,
,,,,,,,,,,,725700,,001,2024-02-09_17h11.05.461,VH_new_version1,2023.2.3,MacIntel,59.88023952,477.8901,478.8907,,,,,,,,,,,,,,,,,,,,,,,,,,478.8908,479.4894,m,1,0.5822,,479.4895,479.4901,,0,232,232,137,1,138,tedavi,1865,84.7382,1597,0.1746,6,notharmonic,1.8,4.928079235,m,,,,,,,
,,,,,,,,,,,725700,,001,2024-02-09_17h11.05.461,VH_new_version1,2023.2.3,MacIntel,59.88023952,479.4911,480.4915,,,,,,,,,,,,,,,,,,,,,,,,,,480.4915,481.0926,z,1,0.5825,,481.0927,481.0927,,0,233,233,232,1,233,leda,,,,,4,notharmonic,1.6,,z,,,,,,,
,,,,,,,,,,,725700,,001,2024-02-09_17h11.05.461,VH_new_version1,2023.2.3,MacIntel,59.88023952,481.0934,482.0925,,,,,,,,,,,,,,,,,,,,,,,,,,482.0926,482.6921,z,1,0.5782,,482.6922,482.6922,,0,234,234,184,1,185,nekir,,,,,5,harmonic,1.6,,z,,,,,,,
,,,,,,,,,,,725700,,001,2024-02-09_17h11.05.461,VH_new_version1,2023.2.3,MacIntel,59.88023952,482.6926,483.6914,,,,,,,,,,,,,,,,,,,,,,,,,,483.6915,484.3909,z,1,0.6829,,484.3909,484.3911,,0,235,235,214,1,215,dera,,,,,4,notharmonic,1.2,,z,,,,,,,
,,,,,,,,,,,725700,,001,2024-02-09_17h11.05.461,VH_new_version1,2023.2.3,MacIntel,59.88023952,484.3914,485.3917,,,,,,,,,,,,,,,,,,,,,,,,,,485.3919,485.9577,m,1,0.5496,,485.9579,485.958,,0,236,236,141,1,142,dikkat,6230,283.0665,5888,0.6437,6,notharmonic,2.05,5.451888475,m,,,,,,,
,,,,,,,,,,,725700,,001,2024-02-09_17h11.05.461,VH_new_version1,2023.2.3,MacIntel,59.88023952,485.9585,486.9589,,,,,,,,,,,,,,,,,,,,,,,,,,486.959,487.5245,z,1,0.5508,,487.5245,487.5246,,0,237,237,281,1,282,tashin,,,,,6,notharmonic,1.85,,z,,,,,,,
,,,,,,,,,,,725700,,001,2024-02-09_17h11.05.461,VH_new_version1,2023.2.3,MacIntel,59.88023952,487.5251,488.5268,,,,,,,,,,,,,,,,,,,,,,,,,,488.5268,489.1913,z,1,0.6456,,489.1914,489.1914,,0,238,238,199,1,200,bartam,,,,,6,harmonic,1.85,,z,,,,,,,
,,,,,,,,,,,725700,,001,2024-02-09_17h11.05.461,VH_new_version1,2023.2.3,MacIntel,59.88023952,489.1925,490.192,,,,,,,,,,,,,,,,,,,,,,,,,,490.1922,490.7768,z,1,0.5731,,490.7768,490.7771,,0,239,239,259,1,260,kiyaf,,,,,5,notharmonic,1.95,,z,,,,,,,
,,,,,,,,,,,725700,,001,2024-02-09_17h11.05.461,VH_new_version1,2023.2.3,MacIntel,59.88023952,490.7775,491.7764,,,,,,,,,,,,,,,,,,,,,,,,,,491.7765,492.4586,m,1,0.6656,,492.4586,492.4588,,0,240,240,95,1,96,badem,578,26.262,519,0.0567,5,notharmonic,1.4,4.419327797,m,,,,,,,
,,,,,,,,,,,725700,,001,2024-02-09_17h11.05.461,VH_new_version1,2023.2.3,MacIntel,59.88023952,492.4595,493.4582,,,,,,,,,,,,,,,,,,,,,,,,,,493.4583,494.2251,z,1,0.7504,,494.2252,494.2253,,0,241,241,223,1,224,mame,,,,,4,notharmonic,1.65,,z,,,,,,,
,,,,,,,,,,,725700,,001,2024-02-09_17h11.05.461,VH_new_version1,2023.2.3,MacIntel,59.88023952,494.2256,495.2268,,,,,,,,,,,,,,,,,,,,,,,,,,495.2268,495.8589,m,1,0.6172,,495.859,495.859,,0,242,242,139,1,140,tahmin,2353,106.911,2273,0.2485,6,notharmonic,1.6,5.029022392,m,,,,,,,
,,,,,,,,,,,725700,,001,2024-02-09_17h11.05.461,VH_new_version1,2023.2.3,MacIntel,59.88023952,495.8599,496.8587,,,,,,,,,,,,,,,,,,,,,,,,,,496.8587,497.3919,m,1,0.5219,,497.392,497.3922,,0,243,243,135,1,136,reklam,1565,71.1074,1244,0.136,6,notharmonic,1.9,4.851914799,m,,,,,,,
,,,,,,,,,,,725700,,001,2024-02-09_17h11.05.461,VH_new_version1,2023.2.3,MacIntel,59.88023952,497.3926,498.3921,,,,,,,,,,,,,,,,,,,,,,,,,,498.3921,498.9928,z,1,0.5813,,498.9929,498.993,,0,244,244,160,1,161,ünte,,,,,4,harmonic,1.65,,z,,,,,,,
,,,,,,,,,,,725700,,001,2024-02-09_17h11.05.461,VH_new_version1,2023.2.3,MacIntel,59.88023952,498.9937,499.9927,,,,,,,,,,,,,,,,,,,,,,,,,,499.9928,500.6268,z,1,0.6223,,500.627,500.6273,,0,245,245,168,1,169,bovon,,,,,5,harmonic,2,,z,,,,,,,
,,,,,,,,,,,725700,,001,2024-02-09_17h11.05.461,VH_new_version1,2023.2.3,MacIntel,59.88023952,500.6277,501.6271,,,,,,,,,,,,,,,,,,,,,,,,,,501.6272,502.276,z,1,0.6312,,502.276,502.2762,,0,246,246,161,1,162,mağa,,,,,4,harmonic,1.15,,z,,,,,,,
,,,,,,,,,,,725700,,001,2024-02-09_17h11.05.461,VH_new_version1,2023.2.3,MacIntel,59.88023952,502.2769,503.2762,,,,,,,,,,,,,,,,,,,,,,,,,,503.2762,504.0097,z,1,0.7129,,504.0098,504.01,,0,247,247,206,1,207,teşcik,,,,,6,harmonic,1.9,,z,,,,,,,
,,,,,,,,,,,725700,,001,2024-02-09_17h11.05.461,VH_new_version1,2023.2.3,MacIntel,59.88023952,504.011,505.0076,,,,,,,,,,,,,,,,,,,,,,,,,,505.0076,505.6777,z,1,0.659,,505.6778,505.678,,0,248,248,280,1,281,icarar,,,,,6,notharmonic,2,,z,,,,,,,
,,,,,,,,,,,725700,,001,2024-02-09_17h11.05.461,VH_new_version1,2023.2.3,MacIntel,59.88023952,505.6784,506.6777,,,,,,,,,,,,,,,,,,,,,,,,,,506.6777,507.3921,m,1,0.6976,,507.3922,507.3924,,0,249,249,105,1,106,nisan,2321,105.457,2044,0.2235,5,notharmonic,1.6,5.023075413,m,,,,,,,
,,,,,,,,,,,725700,,001,2024-02-09_17h11.05.461,VH_new_version1,2023.2.3,MacIntel,59.88023952,507.3928,508.3936,,,,,,,,,,,,,,,,,,,,,,,,,,508.3936,508.9772,m,1,0.5687,,508.9773,508.9773,,0,250,250,66,1,67,tercih,4577,207.9607,4282,0.4681,6,harmonic,1.7,5.317981271,m,,,,,,,
,,,,,,,,,,,725700,,001,2024-02-09_17h11.05.461,VH_new_version1,2023.2.3,MacIntel,59.88023952,508.9779,509.9765,,,,,,,,,,,,,,,,,,,,,,,,,,509.9766,510.6257,z,1,0.6341,,510.6258,510.626,,0,251,251,270,1,271,meşkup,,,,,6,notharmonic,1.95,,z,,,,,,,
,,,,,,,,,,,725700,,001,2024-02-09_17h11.05.461,VH_new_version1,2023.2.3,MacIntel,59.88023952,510.6265,511.6263,,,,,,,,,,,,,,,,,,,,,,,,,,511.6263,512.2773,m,1,0.6333,,512.2773,512.2774,,0,252,252,87,1,88,ilan,1579,71.7435,1499,0.1639,4,notharmonic,1,4.85578256,m,,,,,,,
,,,,,,,,,,,725700,,001,2024-02-09_17h11.05.461,VH_new_version1,2023.2.3,MacIntel,59.88023952,512.2777,513.2778,,,,,,,,,,,,,,,,,,,,,,,,,,513.2779,513.8609,m,1,0.5648,,513.861,513.8611,,0,253,253,47,1,48,yemek,9626,437.3673,8311,0.9086,5,harmonic,1.35,5.64084631,m,,,,,,,
,,,,,,,,,,,725700,,001,2024-02-09_17h11.05.461,VH_new_version1,2023.2.3,MacIntel,59.88023952,513.8614,514.8611,,,,,,,,,,,,,,,,,,,,,,,,,,514.8611,515.4265,z,1,0.5496,,515.4265,515.4266,,0,254,254,239,1,240,kanel,,,,,5,notharmonic,1.9,,z,,,,,,,
,,,,,,,,,,,725700,,001,2024-02-09_17h11.05.461,VH_new_version1,2023.2.3,MacIntel,59.88023952,515.427,516.4255,,,,,,,,,,,,,,,,,,,,,,,,,,516.4256,517.2105,m,1,0.7671,,517.2106,517.2107,,0,255,255,110,1,111,vakit,3476,157.9357,3298,0.3605,5,notharmonic,1.65,5.19848031,m,,,,,,,
,,,,,,,,,,,725700,,001,2024-02-09_17h11.05.461,VH_new_version1,2023.2.3,MacIntel,59.88023952,517.2112,518.2106,,,,,,,,,,,,,,,,,,,,,,,,,,518.2107,518.7936,z,1,0.5655,,518.7937,518.7937,,0,256,256,147,1,148,üyöm,,,,,4,harmonic,1.95,,z,,,,,,,
,,,,,,,,,,,725700,,001,2024-02-09_17h11.05.461,VH_new_version1,2023.2.3,MacIntel,59.88023952,518.7945,519.795,,,,,,,,,,,,,,,,,,,,,,,,,,519.795,520.3609,m,1,0.5479,,520.3609,520.3612,,0,257,257,19,1,20,baba,3645,165.6143,3131,0.3423,4,harmonic,1,5.219097833,m,,,,,,,
,,,,,,,,,,,725700,,001,2024-02-09_17h11.05.461,VH_new_version1,2023.2.3,MacIntel,59.88023952,520.3619,521.3614,,,,,,,,,,,,,,,,,,,,,,,,,,521.3615,521.8927,m,1,0.5164,,521.8928,521.893,,0,258,258,121,1,122,macera,409,18.5833,391,0.0427,6,notharmonic,1.85,4.269122838,m,,,,,,,
,,,,,,,,,,,725700,,001,2024-02-09_17h11.05.461,VH_new_version1,2023.2.3,MacIntel,59.88023952,521.8934,522.8953,,,,,,,,,,,,,,,,,,,,,,,,,,522.8953,523.4944,z,1,0.5821,,523.4944,523.4951,,0,259,259,231,1,232,babi,,,,,4,notharmonic,1.4,,z,,,,,,,
,,,,,,,,,,,725700,,001,2024-02-09_17h11.05.461,VH_new_version1,2023.2.3,MacIntel,59.88023952,523.4955,524.4941,,,,,,,,,,,,,,,,,,,,,,,,,,524.4941,525.2435,z,1,0.7318,,525.2436,525.2438,,0,260,260,217,1,218,heka,,,,,4,notharmonic,1.75,,z,,,,,,,
,,,,,,,,,,,725700,,001,2024-02-09_17h11.05.461,VH_new_version1,2023.2.3,MacIntel,59.88023952,525.2442,526.2439,,,,,,,,,,,,,,,,,,,,,,,,,,526.2439,526.8272,z,1,0.5629,,526.8272,526.8274,,0,261,261,172,1,173,çatuk,,,,,5,harmonic,1.8,,z,,,,,,,
,,,,,,,,,,,725700,,001,2024-02-09_17h11.05.461,VH_new_version1,2023.2.3,MacIntel,59.88023952,526.8278,527.8275,,,,,,,,,,,,,,,,,,,,,,,,,,527.8275,528.3605,m,1,0.5179,,528.3605,528.3607,,0,262,262,14,1,15,ocak,1685,76.5597,1548,0.1692,4,harmonic,1.9,4.884000223,m,,,,,,,
,,,,,,,,,,,725700,,001,2024-02-09_17h11.05.461,VH_new_version1,2023.2.3,MacIntel,59.88023952,528.3614,529.3616,,,,,,,,,,,,,,,,,,,,,,,,,,529.3617,529.9117,z,1,0.5381,,529.9117,529.9118,,0,263,263,278,1,279,avalün,,,,,6,notharmonic,2.2,,z,,,,,,,
,,,,,,,,,,,725700,,001,2024-02-09_17h11.05.461,VH_new_version1,2023.2.3,MacIntel,59.88023952,529.912,530.9114,,,,,,,,,,,,,,,,,,,,,,,,,,530.9115,531.5441,m,1,0.6204,,531.5441,531.5444,,0,264,264,138,1,139,işaret,1888,85.7832,1787,0.1954,6,notharmonic,1.7,4.933402243,m,,,,,,,
,,,,,,,,,,,725700,,001,2024-02-09_17h11.05.461,VH_new_version1,2023.2.3,MacIntel,59.88023952,531.5448,532.5447,,,,,,,,,,,,,,,,,,,,,,,,,,532.5447,533.1279,z,1,0.5663,,533.1281,533.1284,,0,265,265,274,1,275,çanese,,,,,6,notharmonic,2,,z,,,,,,,
,,,,,,,,,,,725700,,001,2024-02-09_17h11.05.461,VH_new_version1,2023.2.3,MacIntel,59.88023952,533.1288,534.1272,,,,,,,,,,,,,,,,,,,,,,,,,,534.1275,534.7439,z,1,0.5995,,534.7439,534.7441,,0,266,266,227,1,228,esta,,,,,4,notharmonic,1.7,,z,,,,,,,
,,,,,,,,,,,725700,,001,2024-02-09_17h11.05.461,VH_new_version1,2023.2.3,MacIntel,59.88023952,534.7445,535.7467,,,,,,,,,,,,,,,,,,,,,,,,,,535.7467,536.3441,z,1,0.5828,,536.3442,536.3443,,0,267,267,249,1,250,sisaj,,,,,5,notharmonic,2,,z,,,,,,,
,,,,,,,,,,,725700,,001,2024-02-09_17h11.05.461,VH_new_version1,2023.2.3,MacIntel,59.88023952,536.3447,537.3453,,,,,,,,,,,,,,,,,,,,,,,,,,537.3453,537.9786,m,1,0.6156,,537.9786,537.9792,,0,268,268,54,1,55,elbise,883,40.12,786,0.0859,6,harmonic,1.9,4.603360924,m,,,,,,,
,,,,,,,,,,,725700,,001,2024-02-09_17h11.05.461,VH_new_version1,2023.2.3,MacIntel,59.88023952,537.9798,538.9779,,,,,,,,,,,,,,,,,,,,,,,,,,538.9779,539.711,m,1,0.7156,,539.7111,539.7112,,0,269,269,74,1,75,kase,390,17.7201,369,0.0403,4,notharmonic,1.3,4.248466168,m,,,,,,,
,,,,,,,,,,,725700,,001,2024-02-09_17h11.05.461,VH_new_version1,2023.2.3,MacIntel,59.88023952,539.7115,540.7118,,,,,,,,,,,,,,,,,,,,,,,,,,540.7119,541.3297,z,1,0.598,,541.3298,541.3301,,0,270,270,238,1,239,labin,,,,,5,notharmonic,1.65,,z,,,,,,,
,,,,,,,,,,,725700,,001,2024-02-09_17h11.05.461,VH_new_version1,2023.2.3,MacIntel,59.88023952,541.3304,542.3287,,,,,,,,,,,,,,,,,,,,,,,,,,542.3288,543.3285,z,1,0.9824,,543.3285,543.3286,,0,271,271,210,1,211,bellet,,,,,6,harmonic,1.65,,z,,,,,,,
,,,,,,,,,,,725700,,001,2024-02-09_17h11.05.461,VH_new_version1,2023.2.3,MacIntel,59.88023952,543.3292,544.3302,,,,,,,,,,,,,,,,,,,,,,,,,,544.3303,544.9285,m,1,0.586,,544.9285,544.9286,,0,272,272,84,1,85,rüya,1062,48.2531,937,0.1024,4,notharmonic,1.75,4.68352522,m,,,,,,,
,,,,,,,,,,,725700,,001,2024-02-09_17h11.05.461,VH_new_version1,2023.2.3,MacIntel,59.88023952,544.929,545.929,,,,,,,,,,,,,,,,,,,,,,,,,,545.929,546.5451,m,1,0.6008,,546.5451,546.5452,,0,273,273,111,1,112,madde,3793,172.3389,3389,0.3705,5,notharmonic,1.7,5.236383317,m,,,,,,,
,,,,,,,,,,,725700,,001,2024-02-09_17h11.05.461,VH_new_version1,2023.2.3,MacIntel,59.88023952,546.5455,547.5455,,,,,,,,,,,,,,,,,,,,,,,,,,547.5455,548.3279,z,1,0.7683,,548.328,548.3282,,0,274,274,212,1,213,yeryek,,,,,6,harmonic,1.9,,z,,,,,,,
,,,,,,,,,,,725700,,001,2024-02-09_17h11.05.461,VH_new_version1,2023.2.3,MacIntel,59.88023952,548.3287,549.3293,,,,,,,,,,,,,,,,,,,,,,,,,,549.3294,549.9304,m,1,0.585,,549.9305,549.9308,,0,275,275,53,1,54,çıplak,819,37.2121,766,0.0837,6,harmonic,2,4.570684179,m,,,,,,,
,,,,,,,,,,,725700,,001,2024-02-09_17h11.05.461,VH_new_version1,2023.2.3,MacIntel,59.88023952,549.9311,550.9303,,,,,,,,,,,,,,,,,,,,,,,,,,550.9303,551.4621,m,1,0.5203,,551.4621,551.4622,,0,276,276,86,1,87,imza,1358,61.7021,1253,0.137,4,notharmonic,1.65,4.790299945,m,,,,,,,
,,,,,,,,,,,725700,,001,2024-02-09_17h11.05.461,VH_new_version1,2023.2.3,MacIntel,59.88023952,551.4627,552.4623,,,,,,,,,,,,,,,,,,,,,,,,,,552.4625,552.9618,m,1,0.4844,,552.9618,552.9621,,0,277,277,79,1,80,kale,567,25.7622,499,0.0546,4,notharmonic,1,4.410982947,m,,,,,,,
,,,,,,,,,,,725700,,001,2024-02-09_17h11.05.461,VH_new_version1,2023.2.3,MacIntel,59.88023952,552.9625,553.9635,,,,,,,,,,,,,,,,,,,,,,,,,,553.9636,554.4295,m,1,0.4497,,554.4296,554.4296,,0,278,278,56,1,57,meslek,1082,49.1618,976,0.1067,6,harmonic,1.9,4.691627776,m,,,,,,,
,,,,,,,,,,,725700,,001,2024-02-09_17h11.05.461,VH_new_version1,2023.2.3,MacIntel,59.88023952,554.4302,555.4297,,,,,,,,,,,,,,,,,,,,,,,,,,555.4297,555.8471,m,0,0.4051,,555.8471,555.8471,,0,279,279,164,1,165,üdel,,,,,4,harmonic,1.95,,z,,,,,,,
,,,,,,,,,,,725700,,001,2024-02-09_17h11.05.461,VH_new_version1,2023.2.3,MacIntel,59.88023952,555.8474,556.8464,,,,,,,,,,,,,,,,,,,,,,,,,,556.8464,557.6966,m,1,0.8293,,557.6967,557.6968,,0,280,280,71,1,72,fare,364,16.5387,310,0.0339,4,notharmonic,1.35,4.218501369,m,,,,,,,
,,,,,,,,,,,725700,,001,2024-02-09_17h11.05.461,VH_new_version1,2023.2.3,MacIntel,59.88023952,557.6974,558.6961,,,,,,,,,,,,,,,,,,,,,,,,,,558.6961,559.5965,z,1,0.8858,,559.5966,559.5967,,0,281,281,188,1,189,yahat,,,,,5,harmonic,1.8,,z,,,,,,,
,,,,,,,,,,,725700,,001,2024-02-09_17h11.05.461,VH_new_version1,2023.2.3,MacIntel,59.88023952,559.5973,560.5955,,,,,,,,,,,,,,,,,,,,,,,,,,560.5955,561.3126,z,1,0.701,,561.3127,561.3127,,0,282,282,150,1,151,acuz,,,,,4,harmonic,1.65,,z,,,,,,,
,,,,,,,,,,,725700,,001,2024-02-09_17h11.05.461,VH_new_version1,2023.2.3,MacIntel,59.88023952,561.313,562.313,,,,,,,,,,,,,,,,,,,,,,,,,,562.3131,563.2127,z,1,0.8833,,563.2128,564.3311,space,0,283,283,200,1,201,tuzrak,,,,,6,harmonic,1.95,,z,1.1088,,,,,,
,,,,,,,,,,,725700,,001,2024-02-09_17h11.05.461,VH_new_version1,2023.2.3,MacIntel,59.88023952,,,,,,,,,,,,,,,,,,,,,,,,,,,,,,,,,,,,,,,,,,,,,,,,,,,,,,,564.3414,565.1991,space,0.8471,