Welcome_screen.started,Welcome_screen.stopped,key_respwelcome.keys,key_respwelcome.rt,key_respwelcome.duration,intro_x.thisRepN,intro_x.thisTrialN,intro_x.thisN,intro_x.thisIndex,intro_x.ran,Introduction,participant,session,date,expName,psychopyVersion,OS,frameRate,Fixation.started,Fixation.stopped,Studypractice.started,Studypractice.stopped,key_respstudy.keys,key_respstudy.corr,key_respstudy.rt,key_respstudy.duration,rt,corr,Feedback.started,Feedback.stopped,practice_loop.thisRepN,practice_loop.thisTrialN,practice_loop.thisN,practice_loop.thisIndex,practice_loop.ran,item_nr_p,target_p,isHarmonic_p,target_cond_p,CorrAns_p,Instraction.started,Instraction.stopped,key_respınstraction.keys,key_respınstraction.rt,key_respınstraction.duration,TestTrial.started,TestTrial.stopped,key_respTest.keys,key_respTest.corr,key_respTest.rt,key_respTest.duration,Pause.started,Pause.stopped,key_resp_xx.keys,test_loop.thisRepN,test_loop.thisTrialN,test_loop.thisN,test_loop.thisIndex,test_loop.ran,item_nr,target,BlogFreq_A1,BlogFreqpm_A1,BlogCD_A1,BlogCDPc_A1,WordLength_A1,isHarmonic_A1,old20,target_cond,CorrAns,key_resp_xx.rt,key_resp_xx.duration,Goodbye_screen.started,Goodbye_screen.stopped,key_respgoodbye.keys,key_respgoodbye.rt,key_respgoodbye.duration
0.0299,2.5898,space,2.5378,,0,0,0,0,1,"Deneye hoş geldiniz,

Devam etmek için BOŞLUK tuşuna basınız.",levent,001,2023-11-07_16h32.41.460,vowel_harmony,2023.2.3,Win32,59.94485074,,,,,,,,,,,,,,,,,,,,,,,,,,,,,,,,,,,,,,,,,,,,,,,,,,,,,,,,,,,
2.5914,15.8777,space,13.2583,,0,1,1,1,1,"Bu çalışma Valencia Üniversitesi kapsamında yürütülmektedir. Deneydeki göreviniz, ekrana çıkacak Türkçe sözcüklerin kelime olup olmadığını belirlemenizdir. Eğer sözcük gerçek bir kelime ise ""m"" tuşuna, değil ise ""z"" tuşuna basınız.   

Devam etmek için BOŞLUK tuşuna basınız.",levent,001,2023-11-07_16h32.41.460,vowel_harmony,2023.2.3,Win32,59.94485074,,,,,,,,,,,,,,,,,,,,,,,,,,,,,,,,,,,,,,,,,,,,,,,,,,,,,,,,,,,
15.8788,26.6185,space,10.7127,,0,2,2,2,1,"Her sözcük için en fazla iki saniyede cevap vermeniz beklenmektedir. Aksi takdirde deney bir sonraki sözcük ile devam eder. 
Bu çalışmada oldukça hızlı ve doğru cevaplama yapmanız beklenmektedir.

Devam etmek için BOŞLUK tuşuna basınız.",levent,001,2023-11-07_16h32.41.460,vowel_harmony,2023.2.3,Win32,59.94485074,,,,,,,,,,,,,,,,,,,,,,,,,,,,,,,,,,,,,,,,,,,,,,,,,,,,,,,,,,,
26.619,33.8788,space,7.2295,,0,3,3,3,1,"Çalışmaya başlamadan önce ufak bir pratik yer almaktadır.
Kelimedir: ""m""
Kelime değildir: ""z""

Pratik teste başlamak için BOŞLUK tuşuna basınız. ",levent,001,2023-11-07_16h32.41.460,vowel_harmony,2023.2.3,Win32,59.94485074,,,,,,,,,,,,,,,,,,,,,,,,,,,,,,,,,,,,,,,,,,,,,,,,,,,,,,,,,,,
,,,,,,,,,,,levent,001,2023-11-07_16h32.41.460,vowel_harmony,2023.2.3,Win32,59.94485074,33.9048,34.8941,34.8944,35.4991,m,0,0.5757,,0.5757,0,35.4995,36.9974,0,0,0,10,1,11,mahne,notharmonic,nw,z,,,,,,,,,,,,,,,,,,,,,,,,,,,,,,,,,,,,,
,,,,,,,,,,,levent,001,2023-11-07_16h32.41.460,vowel_harmony,2023.2.3,Win32,59.94485074,36.9987,37.9915,37.9917,38.8248,z,1,0.8106,,0.8106,1,38.8249,40.3226,0,1,1,12,1,13,ihlot,notharmonic,nw,z,,,,,,,,,,,,,,,,,,,,,,,,,,,,,,,,,,,,,
,,,,,,,,,,,levent,001,2023-11-07_16h32.41.460,vowel_harmony,2023.2.3,Win32,59.94485074,40.3265,41.3216,41.3216,41.9546,m,1,0.615,,0.615,1,41.9548,43.4529,0,2,2,0,1,1,ihale,notharmonic,word,m,,,,,,,,,,,,,,,,,,,,,,,,,,,,,,,,,,,,,
,,,,,,,,,,,levent,001,2023-11-07_16h32.41.460,vowel_harmony,2023.2.3,Win32,59.94485074,43.4535,44.452,44.452,45.1181,z,1,0.6455,,0.6455,1,45.1181,46.6172,0,3,3,11,1,12,geki,harmonic,nw,z,,,,,,,,,,,,,,,,,,,,,,,,,,,,,,,,,,,,,
,,,,,,,,,,,levent,001,2023-11-07_16h32.41.460,vowel_harmony,2023.2.3,Win32,59.94485074,46.618,47.6164,47.6164,48.1492,m,1,0.5074,,0.5074,1,48.1494,49.6479,0,4,4,2,1,3,memur,notharmonic,word,m,,,,,,,,,,,,,,,,,,,,,,,,,,,,,,,,,,,,,
,,,,,,,,,,,levent,001,2023-11-07_16h32.41.460,vowel_harmony,2023.2.3,Win32,59.94485074,49.6488,50.647,50.6471,51.1633,m,1,0.4929,,0.4929,1,51.1635,52.6621,0,5,5,3,1,4,ihlal,notharmonic,word,m,,,,,,,,,,,,,,,,,,,,,,,,,,,,,,,,,,,,,
,,,,,,,,,,,levent,001,2023-11-07_16h32.41.460,vowel_harmony,2023.2.3,Win32,59.94485074,52.6632,53.6615,53.6616,54.2118,m,1,0.5325,,0.5325,1,54.2121,55.7099,0,6,6,4,1,5,mimar,notharmonic,word,m,,,,,,,,,,,,,,,,,,,,,,,,,,,,,,,,,,,,,
,,,,,,,,,,,levent,001,2023-11-07_16h32.41.460,vowel_harmony,2023.2.3,Win32,59.94485074,55.7111,56.7091,56.7092,57.2253,m,1,0.4878,,0.4878,1,57.2258,58.7246,0,7,7,6,1,7,pilot,notharmonic,word,m,,,,,,,,,,,,,,,,,,,,,,,,,,,,,,,,,,,,,
,,,,,,,,,,,levent,001,2023-11-07_16h32.41.460,vowel_harmony,2023.2.3,Win32,59.94485074,58.7255,59.7232,59.7233,60.4119,z,1,0.6672,,0.6672,1,60.4121,61.9046,0,8,8,9,1,10,orat,harmonic,nw,z,,,,,,,,,,,,,,,,,,,,,,,,,,,,,,,,,,,,,
,,,,,,,,,,,levent,001,2023-11-07_16h32.41.460,vowel_harmony,2023.2.3,Win32,59.94485074,61.9055,62.904,62.904,63.5035,z,1,0.5738,,0.5738,1,63.5038,65.0019,0,9,9,13,1,14,pilar,notharmonic,nw,z,,,,,,,,,,,,,,,,,,,,,,,,,,,,,,,,,,,,,
,,,,,,,,,,,levent,001,2023-11-07_16h32.41.460,vowel_harmony,2023.2.3,Win32,59.94485074,65.0032,66.0057,66.0058,66.4672,m,1,0.442,,0.442,1,66.4674,67.9663,0,10,10,5,1,6,bahçe,notharmonic,word,m,,,,,,,,,,,,,,,,,,,,,,,,,,,,,,,,,,,,,
,,,,,,,,,,,levent,001,2023-11-07_16h32.41.460,vowel_harmony,2023.2.3,Win32,59.94485074,67.9673,68.9696,68.9696,69.6705,m,1,0.6837,,0.6837,1,69.6706,71.1636,0,11,11,7,1,8,oran,harmonic,word,m,,,,,,,,,,,,,,,,,,,,,,,,,,,,,,,,,,,,,
,,,,,,,,,,,levent,001,2023-11-07_16h32.41.460,vowel_harmony,2023.2.3,Win32,59.94485074,71.1644,72.1628,72.1628,72.6621,m,1,0.4745,,0.4745,1,72.6622,74.1615,0,12,12,1,1,2,veri,harmonic,word,m,,,,,,,,,,,,,,,,,,,,,,,,,,,,,,,,,,,,,
,,,,,,,,,,,levent,001,2023-11-07_16h32.41.460,vowel_harmony,2023.2.3,Win32,59.94485074,74.1625,75.1603,75.1604,76.026,z,1,0.8417,,0.8417,1,76.0261,77.5247,0,13,13,8,1,9,tahip,notharmonic,nw,z,,,,,,,,,,,,,,,,,,,,,,,,,,,,,,,,,,,,,
,,,,,,,,,,,levent,001,2023-11-07_16h32.41.460,vowel_harmony,2023.2.3,Win32,59.94485074,77.5254,78.5233,78.5234,79.1401,z,1,0.5875,,0.5875,1,79.1402,80.6389,0,14,14,14,1,15,pimer,harmonic,nw,z,,,,,,,,,,,,,,,,,,,,,,,,,,,,,,,,,,,,,
,,,,,,,,,,,levent,001,2023-11-07_16h32.41.460,vowel_harmony,2023.2.3,Win32,59.94485074,80.6423,81.6378,81.6379,82.3539,z,1,0.6863,,0.6863,1,82.3541,83.8521,0,15,15,15,1,16,mımal,harmonic,nw,z,,,,,,,,,,,,,,,,,,,,,,,,,,,,,,,,,,,,,
,,,,,,,,,,,levent,001,2023-11-07_16h32.41.460,vowel_harmony,2023.2.3,Win32,59.94485074,,,,,,,,,,,,,,,,,,,,,,,83.8537,93.2293,space,9.346,,,,,,,,,,,,,,,,,,,,,,,,,,,,,,,,,
,,,,,,,,,,,levent,001,2023-11-07_16h32.41.460,vowel_harmony,2023.2.3,Win32,59.94485074,93.3043,94.2438,,,,,,,,,,,,,,,,,,,,,,,,,,94.2444,94.9937,z,1,0.6995,,94.994,94.9975,,0,0,0,317,1,318,mevul,,,,,5,notharmonic,1.95,nw,z,,,,,,,
,,,,,,,,,,,levent,001,2023-11-07_16h32.41.460,vowel_harmony,2023.2.3,Win32,59.94485074,94.9983,95.9929,,,,,,,,,,,,,,,,,,,,,,,,,,95.993,96.7586,z,1,0.7335,,96.7587,96.759,,0,1,1,350,1,351,resun,,,,,5,notharmonic,1.85,nw,z,,,,,,,
,,,,,,,,,,,levent,001,2023-11-07_16h32.41.460,vowel_harmony,2023.2.3,Win32,59.94485074,96.7603,97.7576,,,,,,,,,,,,,,,,,,,,,,,,,,97.7579,98.3268,m,1,0.5479,,98.3269,98.327,,0,2,2,128,1,129,tatil,2152,97.7783,1865,0.2039,5,notharmonic,1.7,word,m,,,,,,,
,,,,,,,,,,,levent,001,2023-11-07_16h32.41.460,vowel_harmony,2023.2.3,Win32,59.94485074,98.3278,99.3231,,,,,,,,,,,,,,,,,,,,,,,,,,99.3233,99.9389,m,1,0.5816,,99.9391,99.9392,,0,3,3,82,1,83,aday,1028,46.7082,873,0.0954,4,harmonic,1.45,word,m,,,,,,,
,,,,,,,,,,,levent,001,2023-11-07_16h32.41.460,vowel_harmony,2023.2.3,Win32,59.94485074,99.9401,100.9377,,,,,,,,,,,,,,,,,,,,,,,,,,100.9378,101.5042,m,1,0.5505,,101.5043,101.5047,,0,4,4,80,1,81,merkez,1445,65.6551,1255,0.1372,6,harmonic,1.8,word,m,,,,,,,
,,,,,,,,,,,levent,001,2023-11-07_16h32.41.460,vowel_harmony,2023.2.3,Win32,59.94485074,101.5056,102.5029,,,,,,,,,,,,,,,,,,,,,,,,,,102.503,103.0525,z,1,0.5187,,103.0527,103.053,,0,5,5,339,1,340,asmel,,,,,5,notharmonic,1.95,nw,z,,,,,,,
,,,,,,,,,,,levent,001,2023-11-07_16h32.41.460,vowel_harmony,2023.2.3,Win32,59.94485074,103.0541,104.0508,,,,,,,,,,,,,,,,,,,,,,,,,,104.0508,104.7845,z,1,0.7201,,104.7849,104.7853,,0,6,6,316,1,317,misaf,,,,,5,notharmonic,1.85,nw,z,,,,,,,
,,,,,,,,,,,levent,001,2023-11-07_16h32.41.460,vowel_harmony,2023.2.3,Win32,59.94485074,104.7867,105.7829,,,,,,,,,,,,,,,,,,,,,,,,,,105.783,106.4163,m,1,0.6041,,106.4163,106.4167,,0,7,7,116,1,117,daire,621,28.2158,503,0.055,5,notharmonic,1,word,m,,,,,,,
,,,,,,,,,,,levent,001,2023-11-07_16h32.41.460,vowel_harmony,2023.2.3,Win32,59.94485074,106.4177,107.4154,,,,,,,,,,,,,,,,,,,,,,,,,,107.4154,108.1316,z,1,0.6913,,108.1316,108.1321,,0,8,8,355,1,356,adül,,,,,4,notharmonic,1.85,nw,z,,,,,,,
,,,,,,,,,,,levent,001,2023-11-07_16h32.41.460,vowel_harmony,2023.2.3,Win32,59.94485074,108.133,109.1307,,,,,,,,,,,,,,,,,,,,,,,,,,109.1308,110.1632,z,1,1.0007,,110.1634,110.1638,,0,9,9,334,1,335,işgan,,,,,5,notharmonic,1.95,nw,z,,,,,,,
,,,,,,,,,,,levent,001,2023-11-07_16h32.41.460,vowel_harmony,2023.2.3,Win32,59.94485074,110.1648,111.1616,,,,,,,,,,,,,,,,,,,,,,,,,,111.1616,111.7617,m,1,0.5851,,111.7618,111.7621,,0,10,10,79,1,80,durum,6783,308.1926,6431,0.703,5,harmonic,1.7,word,m,,,,,,,
,,,,,,,,,,,levent,001,2023-11-07_16h32.41.460,vowel_harmony,2023.2.3,Win32,59.94485074,111.763,112.7609,,,,,,,,,,,,,,,,,,,,,,,,,,112.761,113.4605,m,1,0.6682,,113.4606,113.461,,0,11,11,129,1,130,tahmin,2353,106.911,2273,0.2485,6,notharmonic,1.6,word,m,,,,,,,
,,,,,,,,,,,levent,001,2023-11-07_16h32.41.460,vowel_harmony,2023.2.3,Win32,59.94485074,113.4619,114.4596,,,,,,,,,,,,,,,,,,,,,,,,,,114.4597,115.1588,m,1,0.6774,,115.159,115.1623,,0,12,12,111,1,112,kahve,2634,119.6785,2283,0.2496,5,notharmonic,1.85,word,m,,,,,,,
,,,,,,,,,,,levent,001,2023-11-07_16h32.41.460,vowel_harmony,2023.2.3,Win32,59.94485074,115.1632,116.1579,,,,,,,,,,,,,,,,,,,,,,,,,,116.1579,116.8408,z,1,0.6513,,116.8409,116.8412,,0,13,13,341,1,342,işgan,,,,,5,notharmonic,1.95,nw,z,,,,,,,
,,,,,,,,,,,levent,001,2023-11-07_16h32.41.460,vowel_harmony,2023.2.3,Win32,59.94485074,116.8421,117.8399,,,,,,,,,,,,,,,,,,,,,,,,,,117.8399,118.8391,z,1,0.9766,,118.8393,118.8396,,0,14,14,205,1,206,kahay,,,,,5,harmonic,1.9,nw,z,,,,,,,
,,,,,,,,,,,levent,001,2023-11-07_16h32.41.460,vowel_harmony,2023.2.3,Win32,59.94485074,118.8405,119.8382,,,,,,,,,,,,,,,,,,,,,,,,,,119.8383,120.5043,z,1,0.6327,,120.5044,120.5048,,0,15,15,182,1,183,orsın,,,,,5,harmonic,1.95,nw,z,,,,,,,
,,,,,,,,,,,levent,001,2023-11-07_16h32.41.460,vowel_harmony,2023.2.3,Win32,59.94485074,120.5057,121.5034,,,,,,,,,,,,,,,,,,,,,,,,,,121.5035,122.1197,m,1,0.5926,,122.1197,122.12,,0,16,16,34,1,35,hoca,1893,86.0104,1526,0.1668,4,harmonic,1.45,word,m,,,,,,,
,,,,,,,,,,,levent,001,2023-11-07_16h32.41.460,vowel_harmony,2023.2.3,Win32,59.94485074,122.121,123.1178,,,,,,,,,,,,,,,,,,,,,,,,,,123.1179,123.6681,z,1,0.5229,,123.6681,123.6684,,0,17,17,257,1,258,zerü,,,,,4,harmonic,1.8,nw,z,,,,,,,
,,,,,,,,,,,levent,001,2023-11-07_16h32.41.460,vowel_harmony,2023.2.3,Win32,59.94485074,123.6693,124.6667,,,,,,,,,,,,,,,,,,,,,,,,,,124.6667,125.6,z,1,0.9211,,125.6002,125.6005,,0,18,18,265,1,266,parula,,,,,6,harmonic,1.75,nw,z,,,,,,,
,,,,,,,,,,,levent,001,2023-11-07_16h32.41.460,vowel_harmony,2023.2.3,Win32,59.94485074,125.6015,126.5986,,,,,,,,,,,,,,,,,,,,,,,,,,126.5987,127.6317,z,1,1.0104,,127.6318,127.632,,0,19,19,359,1,360,kardez,,,,,6,notharmonic,1.95,nw,z,,,,,,,
,,,,,,,,,,,levent,001,2023-11-07_16h32.41.460,vowel_harmony,2023.2.3,Win32,59.94485074,127.633,128.6311,,,,,,,,,,,,,,,,,,,,,,,,,,128.6312,129.3135,m,1,0.6613,,129.3136,129.3138,,0,20,20,121,1,122,mesaj,1604,72.8794,1386,0.1515,5,notharmonic,1.8,word,m,,,,,,,
,,,,,,,,,,,levent,001,2023-11-07_16h32.41.460,vowel_harmony,2023.2.3,Win32,59.94485074,129.3148,130.3126,,,,,,,,,,,,,,,,,,,,,,,,,,130.3127,131.2279,m,1,0.8835,,131.228,131.2283,,0,21,21,126,1,127,adet,4367,198.4192,3768,0.4119,4,notharmonic,1.4,word,m,,,,,,,
,,,,,,,,,,,levent,001,2023-11-07_16h32.41.460,vowel_harmony,2023.2.3,Win32,59.94485074,131.2288,132.2272,,,,,,,,,,,,,,,,,,,,,,,,,,132.2274,132.9436,z,1,0.6997,,132.9437,132.9439,,0,22,22,235,1,236,oşup,,,,,4,harmonic,1.75,nw,z,,,,,,,
,,,,,,,,,,,levent,001,2023-11-07_16h32.41.460,vowel_harmony,2023.2.3,Win32,59.94485074,132.9449,133.9427,,,,,,,,,,,,,,,,,,,,,,,,,,133.9429,134.6085,m,1,0.6314,,134.6085,134.6087,,0,23,23,36,1,37,meslek,1082,49.1618,976,0.1067,6,harmonic,1.9,word,m,,,,,,,
,,,,,,,,,,,levent,001,2023-11-07_16h32.41.460,vowel_harmony,2023.2.3,Win32,59.94485074,134.6092,135.6082,,,,,,,,,,,,,,,,,,,,,,,,,,135.6082,136.2744,z,1,0.6436,,136.2744,136.2747,,0,24,24,291,1,292,mepan,,,,,5,notharmonic,1.75,nw,z,,,,,,,
,,,,,,,,,,,levent,001,2023-11-07_16h32.41.460,vowel_harmony,2023.2.3,Win32,59.94485074,136.2756,137.2733,,,,,,,,,,,,,,,,,,,,,,,,,,137.2734,138.0561,z,1,0.7497,,138.0562,138.0566,,0,25,25,326,1,327,ailo,,,,,4,notharmonic,1.75,nw,z,,,,,,,
,,,,,,,,,,,levent,001,2023-11-07_16h32.41.460,vowel_harmony,2023.2.3,Win32,59.94485074,138.0575,139.0552,,,,,,,,,,,,,,,,,,,,,,,,,,139.0553,139.6721,m,1,0.6008,,139.6722,139.6724,,0,26,26,28,1,29,parlak,1142,51.888,1088,0.1189,6,harmonic,1.7,word,m,,,,,,,
,,,,,,,,,,,levent,001,2023-11-07_16h32.41.460,vowel_harmony,2023.2.3,Win32,59.94485074,139.6735,140.6704,,,,,,,,,,,,,,,,,,,,,,,,,,140.6705,141.3204,z,1,0.6259,,141.3205,141.321,,0,27,27,324,1,325,pakeh,,,,,5,notharmonic,1.9,nw,z,,,,,,,
,,,,,,,,,,,levent,001,2023-11-07_16h32.41.460,vowel_harmony,2023.2.3,Win32,59.94485074,141.3221,142.3192,,,,,,,,,,,,,,,,,,,,,,,,,,142.3192,143.1018,z,1,0.7613,,143.1019,143.1021,,0,28,28,216,1,217,çeyret,,,,,6,harmonic,1.9,nw,z,,,,,,,
,,,,,,,,,,,levent,001,2023-11-07_16h32.41.460,vowel_harmony,2023.2.3,Win32,59.94485074,143.1031,144.1009,,,,,,,,,,,,,,,,,,,,,,,,,,144.101,145.0179,z,1,0.886,,145.018,145.0182,,0,29,29,252,1,253,anlgı,,,,,5,harmonic,1.9,nw,z,,,,,,,
,,,,,,,,,,,levent,001,2023-11-07_16h32.41.460,vowel_harmony,2023.2.3,Win32,59.94485074,145.0193,146.0164,,,,,,,,,,,,,,,,,,,,,,,,,,146.0166,146.9382,m,1,0.9006,,146.9383,146.9384,,0,30,30,117,1,118,nasip,1069,48.5711,1042,0.1139,5,notharmonic,1.8,word,m,,,,,,,
,,,,,,,,,,,levent,001,2023-11-07_16h32.41.460,vowel_harmony,2023.2.3,Win32,59.94485074,146.9391,147.9316,,,,,,,,,,,,,,,,,,,,,,,,,,147.9319,148.4971,m,1,0.5256,,148.4971,148.4974,,0,31,31,45,1,46,bilgi,5981,271.7529,5353,0.5852,5,harmonic,1.5,word,m,,,,,,,
,,,,,,,,,,,levent,001,2023-11-07_16h32.41.460,vowel_harmony,2023.2.3,Win32,59.94485074,148.4984,149.4961,,,,,,,,,,,,,,,,,,,,,,,,,,149.4962,150.0956,m,1,0.5771,,150.0957,150.0959,,0,32,32,122,1,123,devam,17666,802.673,16284,1.7802,5,notharmonic,1.55,word,m,,,,,,,
,,,,,,,,,,,levent,001,2023-11-07_16h32.41.460,vowel_harmony,2023.2.3,Win32,59.94485074,150.0966,151.0949,,,,,,,,,,,,,,,,,,,,,,,,,,151.0949,151.8607,z,1,0.7404,,151.8609,151.8613,,0,33,33,207,1,208,örtre,,,,,5,harmonic,1.85,nw,z,,,,,,,
,,,,,,,,,,,levent,001,2023-11-07_16h32.41.460,vowel_harmony,2023.2.3,Win32,59.94485074,151.8623,152.8602,,,,,,,,,,,,,,,,,,,,,,,,,,152.8603,153.5762,z,1,0.6926,,153.5763,153.5765,,0,34,34,239,1,240,şekik,,,,,5,harmonic,1.7,nw,z,,,,,,,
,,,,,,,,,,,levent,001,2023-11-07_16h32.41.460,vowel_harmony,2023.2.3,Win32,59.94485074,153.5774,154.5745,,,,,,,,,,,,,,,,,,,,,,,,,,154.5747,155.258,m,1,0.6611,,155.2581,155.2586,,0,35,35,0,1,1,sanat,3121,141.8059,2485,0.2717,5,harmonic,1.4,word,m,,,,,,,
,,,,,,,,,,,levent,001,2023-11-07_16h32.41.460,vowel_harmony,2023.2.3,Win32,59.94485074,155.2598,156.2599,,,,,,,,,,,,,,,,,,,,,,,,,,156.2601,156.9066,z,1,0.6243,,156.9068,156.907,,0,36,36,281,1,282,afel,,,,,4,notharmonic,1.8,nw,z,,,,,,,
,,,,,,,,,,,levent,001,2023-11-07_16h32.41.460,vowel_harmony,2023.2.3,Win32,59.94485074,156.9079,157.9063,,,,,,,,,,,,,,,,,,,,,,,,,,157.9065,158.4553,m,1,0.5189,,158.4554,158.4557,,0,37,37,19,1,20,ödül,1063,48.2985,926,0.1012,4,harmonic,1.7,word,m,,,,,,,
,,,,,,,,,,,levent,001,2023-11-07_16h32.41.460,vowel_harmony,2023.2.3,Win32,59.94485074,158.4567,159.4545,,,,,,,,,,,,,,,,,,,,,,,,,,159.4547,160.0538,z,1,0.5796,,160.0539,160.0542,,0,38,38,222,1,223,gelü,,,,,4,harmonic,1.75,nw,z,,,,,,,
,,,,,,,,,,,levent,001,2023-11-07_16h32.41.460,vowel_harmony,2023.2.3,Win32,59.94485074,160.055,161.053,,,,,,,,,,,,,,,,,,,,,,,,,,161.0531,162.3519,z,1,1.2682,,162.352,162.3522,,0,39,39,295,1,296,haylin,,,,,6,notharmonic,1.8,nw,z,,,,,,,
,,,,,,,,,,,levent,001,2023-11-07_16h32.41.460,vowel_harmony,2023.2.3,Win32,59.94485074,162.3532,163.351,,,,,,,,,,,,,,,,,,,,,,,,,,163.3512,164.1338,z,1,0.759,,164.1339,164.1342,,0,40,40,203,1,204,döves,,,,,5,harmonic,1.8,nw,z,,,,,,,
,,,,,,,,,,,levent,001,2023-11-07_16h32.41.460,vowel_harmony,2023.2.3,Win32,59.94485074,164.1352,165.133,,,,,,,,,,,,,,,,,,,,,,,,,,165.1331,165.7325,m,1,0.5659,,165.7326,165.7329,,0,41,41,71,1,72,örnek,3463,157.345,3266,0.357,5,harmonic,1.85,word,m,,,,,,,
,,,,,,,,,,,levent,001,2023-11-07_16h32.41.460,vowel_harmony,2023.2.3,Win32,59.94485074,165.7338,166.7314,,,,,,,,,,,,,,,,,,,,,,,,,,166.7315,167.3309,m,1,0.5825,,167.331,167.3313,,0,42,42,150,1,151,sabit,1046,47.5261,915,0.1,5,notharmonic,1.75,word,m,,,,,,,
,,,,,,,,,,,levent,001,2023-11-07_16h32.41.460,vowel_harmony,2023.2.3,Win32,59.94485074,167.3322,168.3302,,,,,,,,,,,,,,,,,,,,,,,,,,168.3302,168.9297,z,1,0.5721,,168.9298,168.9301,,0,43,43,270,1,271,miyaj,,,,,5,notharmonic,1.9,nw,z,,,,,,,
,,,,,,,,,,,levent,001,2023-11-07_16h32.41.460,vowel_harmony,2023.2.3,Win32,59.94485074,168.931,169.9289,,,,,,,,,,,,,,,,,,,,,,,,,,169.929,170.5112,m,1,0.5579,,170.5113,170.5115,,0,44,44,153,1,154,inşaat,432,19.6284,376,0.0411,6,notharmonic,1.6,word,m,,,,,,,
,,,,,,,,,,,levent,001,2023-11-07_16h32.41.460,vowel_harmony,2023.2.3,Win32,59.94485074,170.512,171.5104,,,,,,,,,,,,,,,,,,,,,,,,,,171.5104,172.1104,z,1,0.5728,,172.1106,172.1109,,0,45,45,189,1,190,düvre,,,,,5,harmonic,1.85,nw,z,,,,,,,
,,,,,,,,,,,levent,001,2023-11-07_16h32.41.460,vowel_harmony,2023.2.3,Win32,59.94485074,172.1147,173.1096,,,,,,,,,,,,,,,,,,,,,,,,,,173.1097,173.7091,z,1,0.5763,,173.7092,173.7094,,0,46,46,303,1,304,fisor,,,,,5,notharmonic,1.9,nw,z,,,,,,,
,,,,,,,,,,,levent,001,2023-11-07_16h32.41.460,vowel_harmony,2023.2.3,Win32,59.94485074,173.7103,174.708,,,,,,,,,,,,,,,,,,,,,,,,,,174.708,175.3243,z,1,0.5844,,175.3243,175.3247,,0,47,47,279,1,280,tadde,,,,,5,notharmonic,1.8,nw,z,,,,,,,
,,,,,,,,,,,levent,001,2023-11-07_16h32.41.460,vowel_harmony,2023.2.3,Win32,59.94485074,175.3256,176.3234,,,,,,,,,,,,,,,,,,,,,,,,,,176.3234,176.9394,m,1,0.595,,176.9395,176.9398,,0,48,48,7,1,8,hizmet,3023,137.3531,2689,0.294,6,harmonic,1.75,word,m,,,,,,,
,,,,,,,,,,,levent,001,2023-11-07_16h32.41.460,vowel_harmony,2023.2.3,Win32,59.94485074,176.9408,177.9388,,,,,,,,,,,,,,,,,,,,,,,,,,177.9388,178.471,m,1,0.5052,,178.471,178.4712,,0,49,49,85,1,86,geçmiş,4195,190.6042,4039,0.4415,6,harmonic,1.55,word,m,,,,,,,
,,,,,,,,,,,levent,001,2023-11-07_16h32.41.460,vowel_harmony,2023.2.3,Win32,59.94485074,178.4717,179.4707,,,,,,,,,,,,,,,,,,,,,,,,,,179.4707,179.9704,m,1,0.4745,,179.9704,179.9707,,0,50,50,166,1,167,maden,402,18.2653,339,0.0371,5,notharmonic,1.45,word,m,,,,,,,
,,,,,,,,,,,levent,001,2023-11-07_16h32.41.460,vowel_harmony,2023.2.3,Win32,59.94485074,179.9716,180.9695,,,,,,,,,,,,,,,,,,,,,,,,,,180.9696,181.6698,z,1,0.6716,,181.67,181.6702,,0,51,51,321,1,322,makih,,,,,5,notharmonic,1.8,nw,z,,,,,,,
,,,,,,,,,,,levent,001,2023-11-07_16h32.41.460,vowel_harmony,2023.2.3,Win32,59.94485074,181.6713,182.6686,,,,,,,,,,,,,,,,,,,,,,,,,,182.6688,183.2347,z,1,0.5432,,183.2348,183.2353,,0,52,52,186,1,187,habık,,,,,5,harmonic,1.9,nw,z,,,,,,,
,,,,,,,,,,,levent,001,2023-11-07_16h32.41.460,vowel_harmony,2023.2.3,Win32,59.94485074,183.2363,184.2338,,,,,,,,,,,,,,,,,,,,,,,,,,184.2339,184.8829,z,1,0.6088,,184.883,184.8834,,0,53,53,285,1,286,iklon,,,,,5,notharmonic,1.85,nw,z,,,,,,,
,,,,,,,,,,,levent,001,2023-11-07_16h32.41.460,vowel_harmony,2023.2.3,Win32,59.94485074,184.8842,185.8814,,,,,,,,,,,,,,,,,,,,,,,,,,185.8815,186.6146,m,1,0.7155,,186.6147,186.615,,0,54,54,17,1,18,yakın,7990,363.0339,7595,0.8303,5,harmonic,1.8,word,m,,,,,,,
,,,,,,,,,,,levent,001,2023-11-07_16h32.41.460,vowel_harmony,2023.2.3,Win32,59.94485074,186.6159,187.6138,,,,,,,,,,,,,,,,,,,,,,,,,,187.6139,188.3471,m,1,0.7013,,188.3472,188.3473,,0,55,55,107,1,108,merak,5806,263.8016,5524,0.6039,5,notharmonic,1.65,word,m,,,,,,,
,,,,,,,,,,,levent,001,2023-11-07_16h32.41.460,vowel_harmony,2023.2.3,Win32,59.94485074,188.3482,189.3464,,,,,,,,,,,,,,,,,,,,,,,,,,189.3465,190.1348,m,1,0.7673,,190.1349,190.135,,0,56,56,118,1,119,meşhur,1092,49.6161,1057,0.1156,6,notharmonic,1.9,word,m,,,,,,,
,,,,,,,,,,,levent,001,2023-11-07_16h32.41.460,vowel_harmony,2023.2.3,Win32,59.94485074,190.1357,191.128,,,,,,,,,,,,,,,,,,,,,,,,,,191.1281,191.6437,m,1,0.4754,,191.6438,191.6441,,0,57,57,148,1,149,selam,1868,84.8745,1764,0.1928,5,notharmonic,1.35,word,m,,,,,,,
,,,,,,,,,,,levent,001,2023-11-07_16h32.41.460,vowel_harmony,2023.2.3,Win32,59.94485074,191.6453,192.643,,,,,,,,,,,,,,,,,,,,,,,,,,192.643,193.4087,m,1,0.7488,,193.4088,193.409,,0,58,58,26,1,27,sebze,1094,49.707,961,0.1051,5,harmonic,1.9,word,m,,,,,,,
,,,,,,,,,,,levent,001,2023-11-07_16h32.41.460,vowel_harmony,2023.2.3,Win32,59.94485074,193.4101,194.4084,,,,,,,,,,,,,,,,,,,,,,,,,,194.4086,194.9742,m,1,0.5319,,194.9743,194.9744,,0,59,59,101,1,102,imza,1358,61.7021,1253,0.137,4,notharmonic,1.65,word,m,,,,,,,
,,,,,,,,,,,levent,001,2023-11-07_16h32.41.460,vowel_harmony,2023.2.3,Win32,59.94485074,194.9752,195.9734,,,,,,,,,,,,,,,,,,,,,,,,,,195.9735,196.5397,z,1,0.5417,,196.5398,196.54,,0,60,60,264,1,265,vepü,,,,,4,harmonic,2,nw,z,,,,,,,
,,,,,,,,,,,levent,001,2023-11-07_16h32.41.460,vowel_harmony,2023.2.3,Win32,59.94485074,196.541,197.5388,,,,,,,,,,,,,,,,,,,,,,,,,,197.5388,198.1887,m,1,0.6246,,198.1888,198.189,,0,61,61,43,1,44,geniş,3380,153.5738,3185,0.3482,5,harmonic,1.35,word,m,,,,,,,
,,,,,,,,,,,levent,001,2023-11-07_16h32.41.460,vowel_harmony,2023.2.3,Win32,59.94485074,198.19,199.1872,,,,,,,,,,,,,,,,,,,,,,,,,,199.1873,199.7368,z,1,0.5305,,199.7369,199.7371,,0,62,62,269,1,270,vekü,,,,,4,harmonic,2,nw,z,,,,,,,
,,,,,,,,,,,levent,001,2023-11-07_16h32.41.460,vowel_harmony,2023.2.3,Win32,59.94485074,199.738,200.736,,,,,,,,,,,,,,,,,,,,,,,,,,200.736,201.2856,z,1,0.5206,,201.2856,201.2859,,0,63,63,249,1,250,hurıt,,,,,5,harmonic,1.95,nw,z,,,,,,,
,,,,,,,,,,,levent,001,2023-11-07_16h32.41.460,vowel_harmony,2023.2.3,Win32,59.94485074,201.2868,202.2846,,,,,,,,,,,,,,,,,,,,,,,,,,202.2847,202.9341,m,1,0.6258,,202.9343,202.9346,,0,64,64,132,1,133,modern,2326,105.6842,2031,0.222,6,notharmonic,1.85,word,m,,,,,,,
,,,,,,,,,,,levent,001,2023-11-07_16h32.41.460,vowel_harmony,2023.2.3,Win32,59.94485074,202.9355,203.9333,,,,,,,,,,,,,,,,,,,,,,,,,,203.9333,204.5328,m,1,0.5681,,204.5329,204.5332,,0,65,65,54,1,55,yedek,825,37.4847,732,0.08,5,harmonic,1.65,word,m,,,,,,,
,,,,,,,,,,,levent,001,2023-11-07_16h32.41.460,vowel_harmony,2023.2.3,Win32,59.94485074,204.5343,205.5317,,,,,,,,,,,,,,,,,,,,,,,,,,205.5318,206.1981,z,1,0.6478,,206.1983,206.1985,,0,66,66,354,1,355,taden,,,,,5,notharmonic,1.7,nw,z,,,,,,,
,,,,,,,,,,,levent,001,2023-11-07_16h32.41.460,vowel_harmony,2023.2.3,Win32,59.94485074,206.1994,207.1967,,,,,,,,,,,,,,,,,,,,,,,,,,207.1968,207.7961,m,1,0.5682,,207.7961,207.7963,,0,67,67,65,1,66,fikir,2552,115.9528,2413,0.2638,5,harmonic,1.9,word,m,,,,,,,
,,,,,,,,,,,levent,001,2023-11-07_16h32.41.460,vowel_harmony,2023.2.3,Win32,59.94485074,207.7969,208.7957,,,,,,,,,,,,,,,,,,,,,,,,,,208.7959,209.7783,m,1,0.958,,209.7784,209.7786,,0,68,68,113,1,114,model,1200,54.5232,1082,0.1183,5,notharmonic,1.75,word,m,,,,,,,
,,,,,,,,,,,levent,001,2023-11-07_16h32.41.460,vowel_harmony,2023.2.3,Win32,59.94485074,209.7795,210.7776,,,,,,,,,,,,,,,,,,,,,,,,,,210.7777,211.3273,z,1,0.5247,,211.3274,211.3277,,0,69,69,244,1,245,kaof,,,,,4,harmonic,1.9,nw,z,,,,,,,
,,,,,,,,,,,levent,001,2023-11-07_16h32.41.460,vowel_harmony,2023.2.3,Win32,59.94485074,211.3286,212.3262,,,,,,,,,,,,,,,,,,,,,,,,,,212.3263,213.1087,z,1,0.7588,,213.1088,213.1091,,0,70,70,315,1,316,takep,,,,,5,notharmonic,1.85,nw,z,,,,,,,
,,,,,,,,,,,levent,001,2023-11-07_16h32.41.460,vowel_harmony,2023.2.3,Win32,59.94485074,213.1102,214.1079,,,,,,,,,,,,,,,,,,,,,,,,,,214.1081,214.8583,z,1,0.7243,,214.8583,214.8585,,0,71,71,352,1,353,yılden,,,,,6,notharmonic,1.8,nw,z,,,,,,,
,,,,,,,,,,,levent,001,2023-11-07_16h32.41.460,vowel_harmony,2023.2.3,Win32,59.94485074,214.8595,215.8571,,,,,,,,,,,,,,,,,,,,,,,,,,215.8571,216.4899,m,1,0.6086,,216.49,216.4903,,0,72,72,171,1,172,reklam,1565,71.1074,1244,0.136,6,notharmonic,1.9,word,m,,,,,,,
,,,,,,,,,,,levent,001,2023-11-07_16h32.41.460,vowel_harmony,2023.2.3,Win32,59.94485074,216.4913,217.4892,,,,,,,,,,,,,,,,,,,,,,,,,,217.4893,218.2377,z,1,0.7071,,218.2378,218.2381,,0,73,73,190,1,191,reklen,,,,,6,harmonic,1.8,nw,z,,,,,,,
,,,,,,,,,,,levent,001,2023-11-07_16h32.41.460,vowel_harmony,2023.2.3,Win32,59.94485074,218.2391,219.2369,,,,,,,,,,,,,,,,,,,,,,,,,,219.2369,220.2027,m,1,0.9484,,220.2028,220.2033,,0,74,74,60,1,61,doğu,2105,95.6429,1823,0.1993,4,harmonic,1.05,word,m,,,,,,,
,,,,,,,,,,,levent,001,2023-11-07_16h32.41.460,vowel_harmony,2023.2.3,Win32,59.94485074,220.2043,221.2018,,,,,,,,,,,,,,,,,,,,,,,,,,221.2019,222.001,z,1,0.7661,,222.0011,222.0013,,0,75,75,217,1,218,sanfız,,,,,6,harmonic,1.85,nw,z,,,,,,,
,,,,,,,,,,,levent,001,2023-11-07_16h32.41.460,vowel_harmony,2023.2.3,Win32,59.94485074,222.0024,223.0004,,,,,,,,,,,,,,,,,,,,,,,,,,223.0004,223.5832,m,1,0.5589,,223.5833,223.5836,,0,76,76,23,1,24,kurum,986,44.7999,882,0.0964,5,harmonic,1.75,word,m,,,,,,,
,,,,,,,,,,,levent,001,2023-11-07_16h32.41.460,vowel_harmony,2023.2.3,Win32,59.94485074,223.5845,224.5824,,,,,,,,,,,,,,,,,,,,,,,,,,224.5824,225.1153,m,1,0.5032,,225.1154,225.1157,,0,77,77,86,1,87,gerçek,8983,408.1519,8058,0.8809,6,harmonic,1.7,word,m,,,,,,,
,,,,,,,,,,,levent,001,2023-11-07_16h32.41.460,vowel_harmony,2023.2.3,Win32,59.94485074,225.1166,226.1143,,,,,,,,,,,,,,,,,,,,,,,,,,226.1143,226.6309,m,1,0.4972,,226.6309,226.6312,,0,78,78,179,1,180,dakika,5891,267.6637,5207,0.5692,6,notharmonic,1.75,word,m,,,,,,,
,,,,,,,,,,,levent,001,2023-11-07_16h32.41.460,vowel_harmony,2023.2.3,Win32,59.94485074,226.6322,227.6299,,,,,,,,,,,,,,,,,,,,,,,,,,227.6299,228.3625,z,1,0.7001,,228.3625,228.3628,,0,79,79,209,1,210,sapor,,,,,5,harmonic,1.8,nw,z,,,,,,,
,,,,,,,,,,,levent,001,2023-11-07_16h32.41.460,vowel_harmony,2023.2.3,Win32,59.94485074,228.3638,229.3616,,,,,,,,,,,,,,,,,,,,,,,,,,229.3617,230.0778,z,1,0.6909,,230.078,230.0782,,0,80,80,311,1,312,dedya,,,,,5,notharmonic,1.9,nw,z,,,,,,,
,,,,,,,,,,,levent,001,2023-11-07_16h32.41.460,vowel_harmony,2023.2.3,Win32,59.94485074,230.0791,231.0768,,,,,,,,,,,,,,,,,,,,,,,,,,231.0769,231.66,z,1,0.5534,,231.6602,231.6605,,0,81,81,277,1,278,balsin,,,,,6,notharmonic,1.85,nw,z,,,,,,,
,,,,,,,,,,,levent,001,2023-11-07_16h32.41.460,vowel_harmony,2023.2.3,Win32,59.94485074,231.6617,232.6583,,,,,,,,,,,,,,,,,,,,,,,,,,232.6583,233.3581,z,1,0.6797,,233.3582,233.3585,,0,82,82,224,1,225,ertre,,,,,5,harmonic,1.95,nw,z,,,,,,,
,,,,,,,,,,,levent,001,2023-11-07_16h32.41.460,vowel_harmony,2023.2.3,Win32,59.94485074,233.3593,234.3574,,,,,,,,,,,,,,,,,,,,,,,,,,234.3574,235.0734,m,1,0.683,,235.0735,235.0737,,0,83,83,2,1,3,radyo,763,34.6677,636,0.0695,5,harmonic,1.85,word,m,,,,,,,
,,,,,,,,,,,levent,001,2023-11-07_16h32.41.460,vowel_harmony,2023.2.3,Win32,59.94485074,235.0746,236.0725,,,,,,,,,,,,,,,,,,,,,,,,,,236.0726,236.6887,m,1,0.5923,,236.6887,236.6889,,0,84,84,63,1,64,sultan,1756,79.7857,1368,0.1496,6,harmonic,1.55,word,m,,,,,,,
,,,,,,,,,,,levent,001,2023-11-07_16h32.41.460,vowel_harmony,2023.2.3,Win32,59.94485074,236.6899,237.6879,,,,,,,,,,,,,,,,,,,,,,,,,,237.6879,238.2872,m,1,0.5714,,238.2873,238.2876,,0,85,85,49,1,50,şeker,4708,213.9128,4170,0.4559,5,harmonic,1.6,word,m,,,,,,,
,,,,,,,,,,,levent,001,2023-11-07_16h32.41.460,vowel_harmony,2023.2.3,Win32,59.94485074,238.2885,239.2865,,,,,,,,,,,,,,,,,,,,,,,,,,239.2865,239.7702,z,1,0.4667,,239.7703,239.7707,,0,86,86,227,1,228,zekö,,,,,4,harmonic,1.9,nw,z,,,,,,,
,,,,,,,,,,,levent,001,2023-11-07_16h32.41.460,vowel_harmony,2023.2.3,Win32,59.94485074,239.7717,240.7686,,,,,,,,,,,,,,,,,,,,,,,,,,240.7687,241.6186,z,1,0.8163,,241.6187,241.6189,,0,87,87,356,1,357,mergun,,,,,6,notharmonic,1.95,nw,z,,,,,,,
,,,,,,,,,,,levent,001,2023-11-07_16h32.41.460,vowel_harmony,2023.2.3,Win32,59.94485074,241.6199,242.6178,,,,,,,,,,,,,,,,,,,,,,,,,,242.6178,243.6834,m,1,1.037,,243.6835,243.6838,,0,88,88,52,1,53,resim,2506,113.8627,2188,0.2392,5,harmonic,1.4,word,m,,,,,,,
,,,,,,,,,,,levent,001,2023-11-07_16h32.41.460,vowel_harmony,2023.2.3,Win32,59.94485074,243.6847,244.6825,,,,,,,,,,,,,,,,,,,,,,,,,,244.6826,245.3323,z,1,0.6203,,245.3324,245.3326,,0,89,89,247,1,248,hafgın,,,,,6,harmonic,2,nw,z,,,,,,,
,,,,,,,,,,,levent,001,2023-11-07_16h32.41.460,vowel_harmony,2023.2.3,Win32,59.94485074,245.3335,246.3312,,,,,,,,,,,,,,,,,,,,,,,,,,246.3313,247.0966,m,1,0.725,,247.0966,247.097,,0,90,90,96,1,97,dahil,3189,144.8955,3060,0.3345,5,notharmonic,1.7,word,m,,,,,,,
,,,,,,,,,,,levent,001,2023-11-07_16h32.41.460,vowel_harmony,2023.2.3,Win32,59.94485074,247.0979,248.0956,,,,,,,,,,,,,,,,,,,,,,,,,,248.0957,248.8117,z,1,0.6912,,248.8117,248.8119,,0,91,91,202,1,203,güvin,,,,,5,harmonic,1.95,nw,z,,,,,,,
,,,,,,,,,,,levent,001,2023-11-07_16h32.41.460,vowel_harmony,2023.2.3,Win32,59.94485074,248.8129,249.811,,,,,,,,,,,,,,,,,,,,,,,,,,249.8111,250.4285,m,1,0.5926,,250.4287,250.429,,0,92,92,174,1,175,bugün,13879,630.6067,12842,1.4039,5,notharmonic,1.85,word,m,,,,,,,
,,,,,,,,,,,levent,001,2023-11-07_16h32.41.460,vowel_harmony,2023.2.3,Win32,59.94485074,250.4297,251.4265,,,,,,,,,,,,,,,,,,,,,,,,,,251.4266,252.4758,z,1,1.0201,,252.4761,252.4765,,0,93,93,256,1,257,yaruza,,,,,6,harmonic,1.9,nw,z,,,,,,,
,,,,,,,,,,,levent,001,2023-11-07_16h32.41.460,vowel_harmony,2023.2.3,Win32,59.94485074,252.4774,253.4748,,,,,,,,,,,,,,,,,,,,,,,,,,253.4749,254.2075,m,1,0.7037,,254.2076,254.2082,,0,94,94,75,1,76,roman,1499,68.1086,1281,0.14,5,harmonic,1.6,word,m,,,,,,,
,,,,,,,,,,,levent,001,2023-11-07_16h32.41.460,vowel_harmony,2023.2.3,Win32,59.94485074,254.2091,255.2066,,,,,,,,,,,,,,,,,,,,,,,,,,255.2066,255.8059,m,1,0.559,,255.806,255.8063,,0,95,95,156,1,157,medya,1784,81.0579,1495,0.1634,5,notharmonic,1.35,word,m,,,,,,,
,,,,,,,,,,,levent,001,2023-11-07_16h32.41.460,vowel_harmony,2023.2.3,Win32,59.94485074,255.8072,256.8048,,,,,,,,,,,,,,,,,,,,,,,,,,256.8049,257.5211,z,1,0.6928,,257.5212,257.5214,,0,96,96,348,1,349,aife,,,,,4,notharmonic,1.75,nw,z,,,,,,,
,,,,,,,,,,,levent,001,2023-11-07_16h32.41.460,vowel_harmony,2023.2.3,Win32,59.94485074,257.5221,258.5199,,,,,,,,,,,,,,,,,,,,,,,,,,258.5199,259.1529,z,1,0.6027,,259.1529,259.1533,,0,97,97,336,1,337,diyam,,,,,5,notharmonic,1.85,nw,z,,,,,,,
,,,,,,,,,,,levent,001,2023-11-07_16h32.41.460,vowel_harmony,2023.2.3,Win32,59.94485074,259.1542,260.1519,,,,,,,,,,,,,,,,,,,,,,,,,,260.152,261.1511,z,1,0.9773,,261.1512,261.1515,,0,98,98,318,1,319,yorgün,,,,,6,notharmonic,1.9,nw,z,,,,,,,
,,,,,,,,,,,levent,001,2023-11-07_16h32.41.460,vowel_harmony,2023.2.3,Win32,59.94485074,261.1523,262.1505,,,,,,,,,,,,,,,,,,,,,,,,,,262.1505,262.933,z,1,0.7491,,262.9331,262.9334,,0,99,99,276,1,277,iptap,,,,,5,notharmonic,1.95,nw,z,,,,,,,
,,,,,,,,,,,levent,001,2023-11-07_16h32.41.460,vowel_harmony,2023.2.3,Win32,59.94485074,262.9343,263.9321,,,,,,,,,,,,,,,,,,,,,,,,,,263.9321,264.4979,z,1,0.5402,,264.498,264.4982,,0,100,100,238,1,239,kocı,,,,,4,harmonic,1.95,nw,z,,,,,,,
,,,,,,,,,,,levent,001,2023-11-07_16h32.41.460,vowel_harmony,2023.2.3,Win32,59.94485074,264.499,265.4975,,,,,,,,,,,,,,,,,,,,,,,,,,265.4976,266.53,z,1,1.001,,266.53,266.5305,,0,101,101,307,1,308,merbat,,,,,6,notharmonic,1.95,nw,z,,,,,,,
,,,,,,,,,,,levent,001,2023-11-07_16h32.41.460,vowel_harmony,2023.2.3,Win32,59.94485074,266.5313,267.5293,,,,,,,,,,,,,,,,,,,,,,,,,,267.5293,268.1452,z,1,0.5914,,268.1454,268.1456,,0,102,102,231,1,232,norgun,,,,,6,harmonic,1.75,nw,z,,,,,,,
,,,,,,,,,,,levent,001,2023-11-07_16h32.41.460,vowel_harmony,2023.2.3,Win32,59.94485074,268.1465,269.1445,,,,,,,,,,,,,,,,,,,,,,,,,,269.1445,269.8272,m,1,0.65,,269.8272,269.8274,,0,103,103,44,1,45,kayıt,1234,56.0681,1058,0.1157,5,harmonic,1.35,word,m,,,,,,,
,,,,,,,,,,,levent,001,2023-11-07_16h32.41.460,vowel_harmony,2023.2.3,Win32,59.94485074,269.8309,270.8262,,,,,,,,,,,,,,,,,,,,,,,,,,270.8263,271.5424,m,1,0.6923,,271.5425,271.5428,,0,104,104,124,1,125,ilan,1579,71.7435,1499,0.1639,4,notharmonic,1,word,m,,,,,,,
,,,,,,,,,,,levent,001,2023-11-07_16h32.41.460,vowel_harmony,2023.2.3,Win32,59.94485074,271.5436,272.5415,,,,,,,,,,,,,,,,,,,,,,,,,,272.5416,273.091,z,1,0.5164,,273.0911,273.0914,,0,105,105,331,1,332,ehun,,,,,4,notharmonic,1.95,nw,z,,,,,,,
,,,,,,,,,,,levent,001,2023-11-07_16h32.41.460,vowel_harmony,2023.2.3,Win32,59.94485074,273.0923,274.0903,,,,,,,,,,,,,,,,,,,,,,,,,,274.0904,274.6732,z,1,0.5589,,274.6733,274.6735,,0,106,106,206,1,207,bevek,,,,,5,harmonic,1.75,nw,z,,,,,,,
,,,,,,,,,,,levent,001,2023-11-07_16h32.41.460,vowel_harmony,2023.2.3,Win32,59.94485074,274.6745,275.6722,,,,,,,,,,,,,,,,,,,,,,,,,,275.6723,277.0043,z,1,1.2992,,277.0044,277.0046,,0,107,107,313,1,314,ikas,,,,,4,notharmonic,1.85,nw,z,,,,,,,
,,,,,,,,,,,levent,001,2023-11-07_16h32.41.460,vowel_harmony,2023.2.3,Win32,59.94485074,277.0056,278.0035,,,,,,,,,,,,,,,,,,,,,,,,,,278.0036,278.8863,z,1,0.858,,278.8865,278.8868,,0,108,108,337,1,338,bakem,,,,,5,notharmonic,1.7,nw,z,,,,,,,
,,,,,,,,,,,levent,001,2023-11-07_16h32.41.460,vowel_harmony,2023.2.3,Win32,59.94485074,278.8876,279.8853,,,,,,,,,,,,,,,,,,,,,,,,,,279.8854,280.6511,z,1,0.7365,,280.6512,280.6514,,0,109,109,225,1,226,düvem,,,,,5,harmonic,1.7,nw,z,,,,,,,
,,,,,,,,,,,levent,001,2023-11-07_16h32.41.460,vowel_harmony,2023.2.3,Win32,59.94485074,280.6524,281.6501,,,,,,,,,,,,,,,,,,,,,,,,,,281.6501,282.2827,m,1,0.6155,,282.2828,282.283,,0,110,110,59,1,60,köpek,1044,47.4352,901,0.0985,5,harmonic,1.75,word,m,,,,,,,
,,,,,,,,,,,levent,001,2023-11-07_16h32.41.460,vowel_harmony,2023.2.3,Win32,59.94485074,282.2835,283.2824,,,,,,,,,,,,,,,,,,,,,,,,,,283.2825,283.8652,m,1,0.5501,,283.8653,283.8656,,0,111,111,131,1,132,hakim,1677,76.1962,1559,0.1704,5,notharmonic,1,word,m,,,,,,,
,,,,,,,,,,,levent,001,2023-11-07_16h32.41.460,vowel_harmony,2023.2.3,Win32,59.94485074,283.8664,284.8641,,,,,,,,,,,,,,,,,,,,,,,,,,284.8641,285.5475,m,1,0.6709,,285.5475,285.5478,,0,112,112,106,1,107,esnaf,315,14.3124,284,0.031,5,notharmonic,1.55,word,m,,,,,,,
,,,,,,,,,,,levent,001,2023-11-07_16h32.41.460,vowel_harmony,2023.2.3,Win32,59.94485074,285.5488,286.5462,,,,,,,,,,,,,,,,,,,,,,,,,,286.5462,287.0626,m,1,0.4833,,287.0626,287.0629,,0,113,113,104,1,105,cevap,5232,237.7213,4822,0.5271,5,notharmonic,1.85,word,m,,,,,,,
,,,,,,,,,,,levent,001,2023-11-07_16h32.41.460,vowel_harmony,2023.2.3,Win32,59.94485074,287.0639,288.0616,,,,,,,,,,,,,,,,,,,,,,,,,,288.0617,288.5449,m,1,0.4625,,288.545,288.5452,,0,114,114,108,1,109,tarih,2806,127.4935,2483,0.2714,5,notharmonic,1.55,word,m,,,,,,,
,,,,,,,,,,,levent,001,2023-11-07_16h32.41.460,vowel_harmony,2023.2.3,Win32,59.94485074,288.5462,289.5437,,,,,,,,,,,,,,,,,,,,,,,,,,289.5437,290.2096,z,1,0.6401,,290.2097,290.21,,0,115,115,327,1,328,parkeş,,,,,6,notharmonic,1.9,nw,z,,,,,,,
,,,,,,,,,,,levent,001,2023-11-07_16h32.41.460,vowel_harmony,2023.2.3,Win32,59.94485074,290.211,291.2086,,,,,,,,,,,,,,,,,,,,,,,,,,291.2087,291.9415,z,1,0.7098,,291.9417,291.9418,,0,116,116,253,1,254,meslet,,,,,6,harmonic,1.85,nw,z,,,,,,,
,,,,,,,,,,,levent,001,2023-11-07_16h32.41.460,vowel_harmony,2023.2.3,Win32,59.94485074,291.9425,292.9408,,,,,,,,,,,,,,,,,,,,,,,,,,292.9408,293.5736,m,1,0.6001,,293.5736,293.5739,,0,117,117,98,1,99,paket,1532,69.608,1392,0.1522,5,notharmonic,1.55,word,m,,,,,,,
,,,,,,,,,,,levent,001,2023-11-07_16h32.41.460,vowel_harmony,2023.2.3,Win32,59.94485074,293.5748,294.5722,,,,,,,,,,,,,,,,,,,,,,,,,,294.5724,295.2222,m,1,0.6347,,295.2222,295.2225,,0,118,118,147,1,148,işaret,1888,85.7832,1787,0.1954,6,notharmonic,1,word,m,,,,,,,
,,,,,,,,,,,levent,001,2023-11-07_16h32.41.460,vowel_harmony,2023.2.3,Win32,59.94485074,295.2235,296.2215,,,,,,,,,,,,,,,,,,,,,,,,,,296.2215,296.8382,m,1,0.5911,,296.8383,296.8385,,0,119,119,100,1,101,düşman,1065,48.3894,962,0.1052,6,notharmonic,1.85,word,m,,,,,,,
,,,,,,,,,,,levent,001,2023-11-07_16h32.41.460,vowel_harmony,2023.2.3,Win32,59.94485074,296.8394,297.8366,,,,,,,,,,,,,,,,,,,,,,,,,,297.8366,298.5861,m,1,0.7272,,298.5862,316.0718,space,0,120,120,46,1,47,takım,4370,198.5555,3726,0.4073,5,harmonic,1.7,word,m,17.4698,,,,,,
,,,,,,,,,,,levent,001,2023-11-07_16h32.41.460,vowel_harmony,2023.2.3,Win32,59.94485074,316.0945,317.0875,,,,,,,,,,,,,,,,,,,,,,,,,,317.0877,317.6204,z,1,0.5082,,317.6208,317.6211,,0,121,121,320,1,321,finak,,,,,5,notharmonic,1.85,nw,z,,,,,,,
,,,,,,,,,,,levent,001,2023-11-07_16h32.41.460,vowel_harmony,2023.2.3,Win32,59.94485074,317.6219,318.6193,,,,,,,,,,,,,,,,,,,,,,,,,,318.6195,319.1353,m,1,0.4742,,319.1353,319.1355,,0,122,122,139,1,140,lira,1253,56.9314,947,0.1035,4,notharmonic,1.4,word,m,,,,,,,
,,,,,,,,,,,levent,001,2023-11-07_16h32.41.460,vowel_harmony,2023.2.3,Win32,59.94485074,319.1365,320.1342,,,,,,,,,,,,,,,,,,,,,,,,,,320.1342,320.9671,z,1,0.8078,,320.9672,320.9676,,0,123,123,275,1,276,tahçe,,,,,5,notharmonic,1.95,nw,z,,,,,,,
,,,,,,,,,,,levent,001,2023-11-07_16h32.41.460,vowel_harmony,2023.2.3,Win32,59.94485074,320.9684,321.9661,,,,,,,,,,,,,,,,,,,,,,,,,,321.9661,322.5157,m,1,0.5152,,322.5158,322.5161,,0,124,124,30,1,31,çevre,1662,75.5147,1409,0.154,5,harmonic,1.55,word,m,,,,,,,
,,,,,,,,,,,levent,001,2023-11-07_16h32.41.460,vowel_harmony,2023.2.3,Win32,59.94485074,322.517,323.5148,,,,,,,,,,,,,,,,,,,,,,,,,,323.5148,324.0642,z,1,0.5266,,324.0643,324.0646,,0,125,125,226,1,227,tefem,,,,,5,harmonic,1.75,nw,z,,,,,,,
,,,,,,,,,,,levent,001,2023-11-07_16h32.41.460,vowel_harmony,2023.2.3,Win32,59.94485074,324.0656,325.0634,,,,,,,,,,,,,,,,,,,,,,,,,,325.0635,325.7796,z,1,0.6836,,325.7797,325.78,,0,126,126,357,1,358,işarek,,,,,6,notharmonic,1.95,nw,z,,,,,,,
,,,,,,,,,,,levent,001,2023-11-07_16h32.41.460,vowel_harmony,2023.2.3,Win32,59.94485074,325.7809,326.7787,,,,,,,,,,,,,,,,,,,,,,,,,,326.7787,327.3615,m,1,0.5584,,327.3617,327.3619,,0,127,127,64,1,65,lise,888,40.3472,816,0.0892,4,harmonic,1.5,word,m,,,,,,,
,,,,,,,,,,,levent,001,2023-11-07_16h32.41.460,vowel_harmony,2023.2.3,Win32,59.94485074,327.3628,328.3608,,,,,,,,,,,,,,,,,,,,,,,,,,328.3608,328.8769,m,1,0.4891,,328.8769,328.8772,,0,128,128,74,1,75,başarı,1398,63.5196,1300,0.1421,6,harmonic,1.2,word,m,,,,,,,
,,,,,,,,,,,levent,001,2023-11-07_16h32.41.460,vowel_harmony,2023.2.3,Win32,59.94485074,328.8781,329.8762,,,,,,,,,,,,,,,,,,,,,,,,,,329.8763,330.3923,z,1,0.4912,,330.3924,330.3926,,0,129,129,215,1,216,aydo,,,,,4,harmonic,1.9,nw,z,,,,,,,
,,,,,,,,,,,levent,001,2023-11-07_16h32.41.460,vowel_harmony,2023.2.3,Win32,59.94485074,330.3937,331.3915,,,,,,,,,,,,,,,,,,,,,,,,,,331.3915,331.8743,z,1,0.4534,,331.8744,331.8747,,0,130,130,201,1,202,ergiy,,,,,5,harmonic,1.85,nw,z,,,,,,,
,,,,,,,,,,,levent,001,2023-11-07_16h32.41.460,vowel_harmony,2023.2.3,Win32,59.94485074,331.8756,332.8736,,,,,,,,,,,,,,,,,,,,,,,,,,332.8737,333.4232,m,1,0.5201,,333.4233,333.4237,,0,131,131,6,1,7,hayal,4498,204.3713,4079,0.4459,5,harmonic,1.45,word,m,,,,,,,
,,,,,,,,,,,levent,001,2023-11-07_16h32.41.460,vowel_harmony,2023.2.3,Win32,59.94485074,333.4246,334.4222,,,,,,,,,,,,,,,,,,,,,,,,,,334.4223,334.9882,m,1,0.5491,,334.9883,334.9885,,0,132,132,41,1,42,zengin,2193,99.6412,2015,0.2203,6,harmonic,1.65,word,m,,,,,,,
,,,,,,,,,,,levent,001,2023-11-07_16h32.41.460,vowel_harmony,2023.2.3,Win32,59.94485074,334.9918,335.9875,,,,,,,,,,,,,,,,,,,,,,,,,,335.9876,336.7868,z,1,0.7668,,336.7869,336.7871,,0,133,133,330,1,331,vahçe,,,,,5,notharmonic,1.9,nw,z,,,,,,,
,,,,,,,,,,,levent,001,2023-11-07_16h32.41.460,vowel_harmony,2023.2.3,Win32,59.94485074,336.7882,337.7859,,,,,,,,,,,,,,,,,,,,,,,,,,337.7859,338.4021,z,1,0.5905,,338.4022,338.4024,,0,134,134,221,1,222,yaypın,,,,,6,harmonic,1.75,nw,z,,,,,,,
,,,,,,,,,,,levent,001,2023-11-07_16h32.41.460,vowel_harmony,2023.2.3,Win32,59.94485074,338.4034,339.4012,,,,,,,,,,,,,,,,,,,,,,,,,,339.4013,340.0681,m,1,0.632,,340.0681,340.0683,,0,135,135,99,1,100,ilave,3173,144.1685,2619,0.2863,5,notharmonic,1.85,word,m,,,,,,,
,,,,,,,,,,,levent,001,2023-11-07_16h32.41.460,vowel_harmony,2023.2.3,Win32,59.94485074,340.069,341.0713,,,,,,,,,,,,,,,,,,,,,,,,,,341.0713,341.6668,z,1,0.5702,,341.6668,341.6669,,0,136,136,278,1,279,sekon,,,,,5,notharmonic,1.85,nw,z,,,,,,,
,,,,,,,,,,,levent,001,2023-11-07_16h32.41.460,vowel_harmony,2023.2.3,Win32,59.94485074,341.6678,342.6657,,,,,,,,,,,,,,,,,,,,,,,,,,342.6658,343.2479,m,1,0.5438,,343.248,343.2483,,0,137,137,11,1,12,umut,1988,90.3268,1818,0.1987,4,harmonic,1.55,word,m,,,,,,,
,,,,,,,,,,,levent,001,2023-11-07_16h32.41.460,vowel_harmony,2023.2.3,Win32,59.94485074,343.2491,344.2473,,,,,,,,,,,,,,,,,,,,,,,,,,344.2473,344.7803,m,1,0.5095,,344.7803,344.7806,,0,138,138,110,1,111,rüya,1062,48.2531,937,0.1024,4,notharmonic,1.75,word,m,,,,,,,
,,,,,,,,,,,levent,001,2023-11-07_16h32.41.460,vowel_harmony,2023.2.3,Win32,59.94485074,344.7816,345.7792,,,,,,,,,,,,,,,,,,,,,,,,,,345.7793,346.3953,z,1,0.5855,,346.3955,346.3957,,0,139,139,232,1,233,kanur,,,,,5,harmonic,1.7,nw,z,,,,,,,
,,,,,,,,,,,levent,001,2023-11-07_16h32.41.460,vowel_harmony,2023.2.3,Win32,59.94485074,346.3966,347.3944,,,,,,,,,,,,,,,,,,,,,,,,,,347.3945,348.0107,z,1,0.591,,348.0108,348.0111,,0,140,140,260,1,261,yarlam,,,,,6,harmonic,1.75,nw,z,,,,,,,
,,,,,,,,,,,levent,001,2023-11-07_16h32.41.460,vowel_harmony,2023.2.3,Win32,59.94485074,348.012,349.0096,,,,,,,,,,,,,,,,,,,,,,,,,,349.0096,349.6923,z,1,0.6493,,349.6924,349.6926,,0,141,141,290,1,291,aipa,,,,,4,notharmonic,1.95,nw,z,,,,,,,
,,,,,,,,,,,levent,001,2023-11-07_16h32.41.460,vowel_harmony,2023.2.3,Win32,59.94485074,349.6935,350.6915,,,,,,,,,,,,,,,,,,,,,,,,,,350.6915,351.4575,m,1,0.7434,,351.4577,351.4578,,0,142,142,24,1,25,yorgun,1153,52.3877,1108,0.1211,6,harmonic,1.55,word,m,,,,,,,
,,,,,,,,,,,levent,001,2023-11-07_16h32.41.460,vowel_harmony,2023.2.3,Win32,59.94485074,351.4587,352.4567,,,,,,,,,,,,,,,,,,,,,,,,,,352.4567,353.3229,z,1,0.8364,,353.323,353.3232,,0,143,143,194,1,195,rayna,,,,,5,harmonic,1.7,nw,z,,,,,,,
,,,,,,,,,,,levent,001,2023-11-07_16h32.41.460,vowel_harmony,2023.2.3,Win32,59.94485074,353.3241,354.3218,,,,,,,,,,,,,,,,,,,,,,,,,,354.3219,354.8713,m,1,0.5273,,354.8714,354.8717,,0,144,144,90,1,91,tarif,2834,128.7657,2611,0.2854,5,notharmonic,1.5,word,m,,,,,,,
,,,,,,,,,,,levent,001,2023-11-07_16h32.41.460,vowel_harmony,2023.2.3,Win32,59.94485074,354.8727,355.8707,,,,,,,,,,,,,,,,,,,,,,,,,,355.8708,356.4369,z,1,0.5385,,356.4369,356.4371,,0,145,145,272,1,273,daken,,,,,5,notharmonic,1.8,nw,z,,,,,,,
,,,,,,,,,,,levent,001,2023-11-07_16h32.41.460,vowel_harmony,2023.2.3,Win32,59.94485074,356.4382,357.4359,,,,,,,,,,,,,,,,,,,,,,,,,,357.4359,358.0355,z,1,0.5746,,358.0356,358.0359,,0,146,146,180,1,181,ayaro,,,,,5,harmonic,1.8,nw,z,,,,,,,
,,,,,,,,,,,levent,001,2023-11-07_16h32.41.460,vowel_harmony,2023.2.3,Win32,59.94485074,358.0367,359.0345,,,,,,,,,,,,,,,,,,,,,,,,,,359.0346,360.2728,z,1,1.213,,360.2729,360.273,,0,147,147,314,1,315,seral,,,,,5,notharmonic,1.7,nw,z,,,,,,,
,,,,,,,,,,,levent,001,2023-11-07_16h32.41.460,vowel_harmony,2023.2.3,Win32,59.94485074,360.2966,361.2827,,,,,,,,,,,,,,,,,,,,,,,,,,361.2828,361.7657,m,1,0.4636,,361.7658,361.7661,,0,148,148,94,1,95,final,876,39.802,778,0.0851,5,notharmonic,1,word,m,,,,,,,
,,,,,,,,,,,levent,001,2023-11-07_16h32.41.460,vowel_harmony,2023.2.3,Win32,59.94485074,361.767,362.7647,,,,,,,,,,,,,,,,,,,,,,,,,,362.7649,363.6807,z,1,0.8877,,363.6808,363.681,,0,149,149,236,1,237,toklam,,,,,6,harmonic,1.85,nw,z,,,,,,,
,,,,,,,,,,,levent,001,2023-11-07_16h32.41.460,vowel_harmony,2023.2.3,Win32,59.94485074,363.682,364.6795,,,,,,,,,,,,,,,,,,,,,,,,,,364.6795,365.4116,z,1,0.7154,,365.4117,365.4118,,0,150,150,198,1,199,yarbız,,,,,6,harmonic,1.95,nw,z,,,,,,,
,,,,,,,,,,,levent,001,2023-11-07_16h32.41.460,vowel_harmony,2023.2.3,Win32,59.94485074,365.4122,366.414,,,,,,,,,,,,,,,,,,,,,,,,,,366.4141,367.2608,z,1,0.8155,,367.261,367.2613,,0,151,151,196,1,197,bilön,,,,,5,harmonic,1.9,nw,z,,,,,,,
,,,,,,,,,,,levent,001,2023-11-07_16h32.41.460,vowel_harmony,2023.2.3,Win32,59.94485074,367.2623,368.2602,,,,,,,,,,,,,,,,,,,,,,,,,,368.2603,369.0595,z,1,0.7808,,369.0596,369.0599,,0,152,152,266,1,267,düştön,,,,,6,harmonic,1.9,nw,z,,,,,,,
,,,,,,,,,,,levent,001,2023-11-07_16h32.41.460,vowel_harmony,2023.2.3,Win32,59.94485074,369.0607,370.0586,,,,,,,,,,,,,,,,,,,,,,,,,,370.0586,370.741,z,1,0.6547,,370.7412,370.7414,,0,153,153,204,1,205,gerkez,,,,,6,harmonic,1.9,nw,z,,,,,,,
,,,,,,,,,,,levent,001,2023-11-07_16h32.41.460,vowel_harmony,2023.2.3,Win32,59.94485074,370.7424,371.7406,,,,,,,,,,,,,,,,,,,,,,,,,,371.7407,372.5231,m,1,0.7638,,372.5231,372.5234,,0,154,154,133,1,134,taze,2268,103.0489,2062,0.2254,4,notharmonic,1.65,word,m,,,,,,,
,,,,,,,,,,,levent,001,2023-11-07_16h32.41.460,vowel_harmony,2023.2.3,Win32,59.94485074,372.5243,373.5224,,,,,,,,,,,,,,,,,,,,,,,,,,373.5225,374.0215,m,1,0.4651,,374.0216,374.0218,,0,155,155,177,1,178,tekrar,10788,490.1639,9352,1.0224,6,notharmonic,1.85,word,m,,,,,,,
,,,,,,,,,,,levent,001,2023-11-07_16h32.41.460,vowel_harmony,2023.2.3,Win32,59.94485074,374.0225,375.021,,,,,,,,,,,,,,,,,,,,,,,,,,375.0211,375.7037,z,1,0.6585,,375.7038,375.7041,,0,156,156,214,1,215,vecü,,,,,4,harmonic,1.95,nw,z,,,,,,,
,,,,,,,,,,,levent,001,2023-11-07_16h32.41.460,vowel_harmony,2023.2.3,Win32,59.94485074,375.7049,376.7029,,,,,,,,,,,,,,,,,,,,,,,,,,376.7029,377.3205,m,1,0.5923,,377.3206,377.321,,0,157,157,53,1,54,gelir,7578,344.3143,7014,0.7668,5,harmonic,1.4,word,m,,,,,,,
,,,,,,,,,,,levent,001,2023-11-07_16h32.41.460,vowel_harmony,2023.2.3,Win32,59.94485074,377.3218,378.3229,,,,,,,,,,,,,,,,,,,,,,,,,,378.323,379.168,z,1,0.82,,379.1681,379.1683,,0,158,158,258,1,259,karıha,,,,,6,harmonic,1.75,nw,z,,,,,,,
,,,,,,,,,,,levent,001,2023-11-07_16h32.41.460,vowel_harmony,2023.2.3,Win32,59.94485074,379.169,380.1671,,,,,,,,,,,,,,,,,,,,,,,,,,380.1672,380.7827,m,1,0.577,,380.7827,380.7831,,0,159,159,120,1,121,ihmal,1002,45.5269,977,0.1068,5,notharmonic,1.65,word,m,,,,,,,
,,,,,,,,,,,levent,001,2023-11-07_16h32.41.460,vowel_harmony,2023.2.3,Win32,59.94485074,380.7839,381.7819,,,,,,,,,,,,,,,,,,,,,,,,,,381.7821,382.315,z,1,0.5192,,382.3151,382.3155,,0,160,160,245,1,246,bıyan,,,,,5,harmonic,1.7,nw,z,,,,,,,
,,,,,,,,,,,levent,001,2023-11-07_16h32.41.460,vowel_harmony,2023.2.3,Win32,59.94485074,382.3164,383.3139,,,,,,,,,,,,,,,,,,,,,,,,,,383.3139,384.08,z,1,0.7325,,384.0801,384.0804,,0,161,161,335,1,336,lilo,,,,,4,notharmonic,1.8,nw,z,,,,,,,
,,,,,,,,,,,levent,001,2023-11-07_16h32.41.460,vowel_harmony,2023.2.3,Win32,59.94485074,384.0813,385.0791,,,,,,,,,,,,,,,,,,,,,,,,,,385.0792,385.6785,z,1,0.5822,,385.6786,385.6788,,0,162,162,323,1,324,devak,,,,,5,notharmonic,1.75,nw,z,,,,,,,
,,,,,,,,,,,levent,001,2023-11-07_16h32.41.460,vowel_harmony,2023.2.3,Win32,59.94485074,385.6797,386.6776,,,,,,,,,,,,,,,,,,,,,,,,,,386.6777,387.3107,m,1,0.5996,,387.3107,387.311,,0,163,163,37,1,38,hayvan,2363,107.3653,1894,0.2071,6,harmonic,1.5,word,m,,,,,,,
,,,,,,,,,,,levent,001,2023-11-07_16h32.41.460,vowel_harmony,2023.2.3,Win32,59.94485074,387.3119,388.3097,,,,,,,,,,,,,,,,,,,,,,,,,,388.3098,389.0422,z,1,0.7151,,389.0424,389.0426,,0,164,164,358,1,359,yangin,,,,,6,notharmonic,1.9,nw,z,,,,,,,
,,,,,,,,,,,levent,001,2023-11-07_16h32.41.460,vowel_harmony,2023.2.3,Win32,59.94485074,389.0435,390.0415,,,,,,,,,,,,,,,,,,,,,,,,,,390.0416,390.7575,z,1,0.6837,,390.7577,390.7578,,0,165,165,261,1,262,kardok,,,,,6,harmonic,1.95,nw,z,,,,,,,
,,,,,,,,,,,levent,001,2023-11-07_16h32.41.460,vowel_harmony,2023.2.3,Win32,59.94485074,390.7588,391.756,,,,,,,,,,,,,,,,,,,,,,,,,,391.756,392.3895,m,1,0.6196,,392.3897,392.39,,0,166,166,144,1,145,garip,2567,116.6343,2355,0.2574,5,notharmonic,1.65,word,m,,,,,,,
,,,,,,,,,,,levent,001,2023-11-07_16h32.41.460,vowel_harmony,2023.2.3,Win32,59.94485074,392.3909,393.3881,,,,,,,,,,,,,,,,,,,,,,,,,,393.3882,394.0373,z,1,0.6172,,394.0374,394.0375,,0,167,167,263,1,264,duzur,,,,,5,harmonic,1.8,nw,z,,,,,,,
,,,,,,,,,,,levent,001,2023-11-07_16h32.41.460,vowel_harmony,2023.2.3,Win32,59.94485074,394.0378,395.0372,,,,,,,,,,,,,,,,,,,,,,,,,,395.0373,395.8358,m,1,0.7733,,395.8358,395.836,,0,168,168,81,1,82,üretim,1593,72.3796,1283,0.1403,6,harmonic,1.6,word,m,,,,,,,
,,,,,,,,,,,levent,001,2023-11-07_16h32.41.460,vowel_harmony,2023.2.3,Win32,59.94485074,395.8362,396.8353,,,,,,,,,,,,,,,,,,,,,,,,,,396.8353,397.3853,z,1,0.5213,,397.3854,397.3856,,0,169,169,233,1,234,devpi,,,,,5,harmonic,1.8,nw,z,,,,,,,
,,,,,,,,,,,levent,001,2023-11-07_16h32.41.460,vowel_harmony,2023.2.3,Win32,59.94485074,397.3865,398.3844,,,,,,,,,,,,,,,,,,,,,,,,,,398.3844,398.9838,m,1,0.5789,,398.9839,398.9842,,0,170,170,66,1,67,sanık,768,34.8949,699,0.0764,5,harmonic,1.85,word,m,,,,,,,
,,,,,,,,,,,levent,001,2023-11-07_16h32.41.460,vowel_harmony,2023.2.3,Win32,59.94485074,398.9852,399.983,,,,,,,,,,,,,,,,,,,,,,,,,,399.983,400.5327,z,1,0.5174,,400.5327,400.533,,0,171,171,288,1,289,molit,,,,,5,notharmonic,1.95,nw,z,,,,,,,
,,,,,,,,,,,levent,001,2023-11-07_16h32.41.460,vowel_harmony,2023.2.3,Win32,59.94485074,400.5339,401.5317,,,,,,,,,,,,,,,,,,,,,,,,,,401.5318,401.9814,m,1,0.4242,,401.9814,401.9817,,0,172,172,83,1,84,küçük,14048,638.2854,12467,1.3629,5,harmonic,1.75,word,m,,,,,,,
,,,,,,,,,,,levent,001,2023-11-07_16h32.41.460,vowel_harmony,2023.2.3,Win32,59.94485074,401.9825,402.9806,,,,,,,,,,,,,,,,,,,,,,,,,,402.9807,403.4641,z,1,0.4582,,403.4643,403.4646,,0,173,173,296,1,297,işban,,,,,5,notharmonic,1.95,nw,z,,,,,,,
,,,,,,,,,,,levent,001,2023-11-07_16h32.41.460,vowel_harmony,2023.2.3,Win32,59.94485074,403.4655,404.4625,,,,,,,,,,,,,,,,,,,,,,,,,,404.4626,405.0116,z,1,0.5149,,405.0117,405.0118,,0,174,174,229,1,230,tonam,,,,,5,harmonic,1.8,nw,z,,,,,,,
,,,,,,,,,,,levent,001,2023-11-07_16h32.41.460,vowel_harmony,2023.2.3,Win32,59.94485074,405.0124,406.0107,,,,,,,,,,,,,,,,,,,,,,,,,,406.0108,407.0771,z,1,1.0475,,407.0771,407.0774,,0,175,175,312,1,313,şahmin,,,,,6,notharmonic,1.8,nw,z,,,,,,,
,,,,,,,,,,,levent,001,2023-11-07_16h32.41.460,vowel_harmony,2023.2.3,Win32,59.94485074,407.0784,408.0756,,,,,,,,,,,,,,,,,,,,,,,,,,408.0756,408.709,m,1,0.6135,,408.7091,408.7095,,0,176,176,145,1,146,iddia,2430,110.4096,2295,0.2509,5,notharmonic,1.85,word,m,,,,,,,
,,,,,,,,,,,levent,001,2023-11-07_16h32.41.460,vowel_harmony,2023.2.3,Win32,59.94485074,408.7104,409.708,,,,,,,,,,,,,,,,,,,,,,,,,,409.7081,410.2576,z,1,0.5177,,410.2578,410.2581,,0,177,177,195,1,196,netüm,,,,,5,harmonic,1.95,nw,z,,,,,,,
,,,,,,,,,,,levent,001,2023-11-07_16h32.41.460,vowel_harmony,2023.2.3,Win32,59.94485074,410.259,411.2568,,,,,,,,,,,,,,,,,,,,,,,,,,411.2568,411.8063,m,1,0.5267,,411.8063,411.8066,,0,178,178,29,1,30,huzur,1911,86.8283,1799,0.1967,5,harmonic,1.8,word,m,,,,,,,
,,,,,,,,,,,levent,001,2023-11-07_16h32.41.460,vowel_harmony,2023.2.3,Win32,59.94485074,411.8075,412.8055,,,,,,,,,,,,,,,,,,,,,,,,,,412.8056,413.4219,m,1,0.5836,,413.422,413.4222,,0,179,179,159,1,160,vakit,3476,157.9357,3298,0.3605,5,notharmonic,1.65,word,m,,,,,,,
,,,,,,,,,,,levent,001,2023-11-07_16h32.41.460,vowel_harmony,2023.2.3,Win32,59.94485074,413.423,414.4207,,,,,,,,,,,,,,,,,,,,,,,,,,414.4208,414.9206,z,1,0.4812,,414.921,414.9212,,0,180,180,309,1,310,yorgen,,,,,6,notharmonic,1.9,nw,z,,,,,,,
,,,,,,,,,,,levent,001,2023-11-07_16h32.41.460,vowel_harmony,2023.2.3,Win32,59.94485074,414.9222,415.9194,,,,,,,,,,,,,,,,,,,,,,,,,,415.9194,416.619,z,1,0.6653,,416.6191,416.6195,,0,181,181,185,1,186,örtin,,,,,5,harmonic,1.9,nw,z,,,,,,,
,,,,,,,,,,,levent,001,2023-11-07_16h32.41.460,vowel_harmony,2023.2.3,Win32,59.94485074,416.6205,417.618,,,,,,,,,,,,,,,,,,,,,,,,,,417.6181,418.2841,z,1,0.6418,,418.2842,418.2844,,0,182,182,345,1,346,bardeş,,,,,6,notharmonic,1.95,nw,z,,,,,,,
,,,,,,,,,,,levent,001,2023-11-07_16h32.41.460,vowel_harmony,2023.2.3,Win32,59.94485074,418.2854,419.2833,,,,,,,,,,,,,,,,,,,,,,,,,,419.2833,419.9494,m,1,0.6336,,419.9495,419.9497,,0,183,183,178,1,179,dikkat,6230,283.0665,5888,0.6437,6,notharmonic,2.05,word,m,,,,,,,
,,,,,,,,,,,levent,001,2023-11-07_16h32.41.460,vowel_harmony,2023.2.3,Win32,59.94485074,419.9507,420.9485,,,,,,,,,,,,,,,,,,,,,,,,,,420.9486,421.5146,z,1,0.5468,,421.5148,421.5149,,0,184,184,212,1,213,ortat,,,,,5,harmonic,1.7,nw,z,,,,,,,
,,,,,,,,,,,levent,001,2023-11-07_16h32.41.460,vowel_harmony,2023.2.3,Win32,59.94485074,421.5159,422.5138,,,,,,,,,,,,,,,,,,,,,,,,,,422.5139,423.1134,m,1,0.5715,,423.1134,423.1137,,0,185,185,39,1,40,yaygın,1061,48.2076,1019,0.1114,6,harmonic,1.35,word,m,,,,,,,
,,,,,,,,,,,levent,001,2023-11-07_16h32.41.460,vowel_harmony,2023.2.3,Win32,59.94485074,423.1146,424.1119,,,,,,,,,,,,,,,,,,,,,,,,,,424.112,424.595,m,1,0.4641,,424.5951,424.5953,,0,186,186,93,1,94,siyah,2944,133.7637,2527,0.2763,5,notharmonic,1.6,word,m,,,,,,,
,,,,,,,,,,,levent,001,2023-11-07_16h32.41.460,vowel_harmony,2023.2.3,Win32,59.94485074,424.5958,425.5937,,,,,,,,,,,,,,,,,,,,,,,,,,425.5938,426.2441,m,1,0.6228,,426.2442,426.2445,,0,187,187,67,1,68,bayram,1948,88.5094,1648,0.1802,6,harmonic,1.85,word,m,,,,,,,
,,,,,,,,,,,levent,001,2023-11-07_16h32.41.460,vowel_harmony,2023.2.3,Win32,59.94485074,426.2454,427.2432,,,,,,,,,,,,,,,,,,,,,,,,,,427.2433,427.9755,z,1,0.7073,,427.9755,427.9759,,0,188,188,213,1,214,kaun,,,,,4,harmonic,1.7,nw,z,,,,,,,
,,,,,,,,,,,levent,001,2023-11-07_16h32.41.460,vowel_harmony,2023.2.3,Win32,59.94485074,427.9765,428.9742,,,,,,,,,,,,,,,,,,,,,,,,,,428.9743,429.6582,m,1,0.6566,,429.6583,429.6585,,0,189,189,12,1,13,konu,5400,245.3546,5110,0.5586,4,harmonic,1,word,m,,,,,,,
,,,,,,,,,,,levent,001,2023-11-07_16h32.41.460,vowel_harmony,2023.2.3,Win32,59.94485074,429.6593,430.6568,,,,,,,,,,,,,,,,,,,,,,,,,,430.6568,431.3066,z,1,0.6331,,431.3067,431.307,,0,190,190,310,1,311,yandeş,,,,,6,notharmonic,1.95,nw,z,,,,,,,
,,,,,,,,,,,levent,001,2023-11-07_16h32.41.460,vowel_harmony,2023.2.3,Win32,59.94485074,431.3078,432.3053,,,,,,,,,,,,,,,,,,,,,,,,,,432.3053,433.0884,z,1,0.7511,,433.0886,433.0889,,0,191,191,280,1,281,adalek,,,,,6,notharmonic,1.85,nw,z,,,,,,,
,,,,,,,,,,,levent,001,2023-11-07_16h32.41.460,vowel_harmony,2023.2.3,Win32,59.94485074,433.0901,434.0874,,,,,,,,,,,,,,,,,,,,,,,,,,434.0875,434.704,z,1,0.5995,,434.704,434.7043,,0,192,192,298,1,299,yelsın,,,,,6,notharmonic,1.95,nw,z,,,,,,,
,,,,,,,,,,,levent,001,2023-11-07_16h32.41.460,vowel_harmony,2023.2.3,Win32,59.94485074,434.7052,435.7026,,,,,,,,,,,,,,,,,,,,,,,,,,435.7027,436.3854,m,1,0.6498,,436.3854,436.3859,,0,193,193,127,1,128,şahane,1153,52.3877,1108,0.1211,6,notharmonic,1.8,word,m,,,,,,,
,,,,,,,,,,,levent,001,2023-11-07_16h32.41.460,vowel_harmony,2023.2.3,Win32,59.94485074,436.387,437.3845,,,,,,,,,,,,,,,,,,,,,,,,,,437.3846,437.9174,m,1,0.509,,437.9175,437.9178,,0,194,194,123,1,124,haber,4559,207.1429,4151,0.4538,5,notharmonic,1.85,word,m,,,,,,,
,,,,,,,,,,,levent,001,2023-11-07_16h32.41.460,vowel_harmony,2023.2.3,Win32,59.94485074,437.9187,438.9161,,,,,,,,,,,,,,,,,,,,,,,,,,438.9161,439.516,z,1,0.5719,,439.5162,439.5164,,0,195,195,197,1,198,ranar,,,,,5,harmonic,1.75,nw,z,,,,,,,
,,,,,,,,,,,levent,001,2023-11-07_16h32.41.460,vowel_harmony,2023.2.3,Win32,59.94485074,439.5174,440.5151,,,,,,,,,,,,,,,,,,,,,,,,,,440.5153,441.0981,m,1,0.5625,,441.0982,441.0985,,0,196,196,70,1,71,yarın,3440,156.3,3222,0.3522,5,harmonic,1.85,word,m,,,,,,,
,,,,,,,,,,,levent,001,2023-11-07_16h32.41.460,vowel_harmony,2023.2.3,Win32,59.94485074,441.0993,442.0972,,,,,,,,,,,,,,,,,,,,,,,,,,442.0972,442.68,m,1,0.5505,,442.6801,442.6804,,0,197,197,138,1,139,kardeş,1270,57.7038,1174,0.1283,6,notharmonic,1.9,word,m,,,,,,,
,,,,,,,,,,,levent,001,2023-11-07_16h32.41.460,vowel_harmony,2023.2.3,Win32,59.94485074,442.6813,443.6791,,,,,,,,,,,,,,,,,,,,,,,,,,443.6792,444.2788,z,1,0.5766,,444.2789,444.2792,,0,198,198,346,1,347,kidan,,,,,5,notharmonic,1.8,nw,z,,,,,,,
,,,,,,,,,,,levent,001,2023-11-07_16h32.41.460,vowel_harmony,2023.2.3,Win32,59.94485074,444.2801,445.2779,,,,,,,,,,,,,,,,,,,,,,,,,,445.278,445.7941,m,1,0.4826,,445.7942,445.7944,,0,199,199,141,1,142,madde,3793,172.3389,3389,0.3705,5,notharmonic,1.7,word,m,,,,,,,
,,,,,,,,,,,levent,001,2023-11-07_16h32.41.460,vowel_harmony,2023.2.3,Win32,59.94485074,445.7954,446.7933,,,,,,,,,,,,,,,,,,,,,,,,,,446.7934,447.4427,z,1,0.6267,,447.4428,447.4431,,0,200,200,199,1,200,movu,,,,,4,harmonic,1.9,nw,z,,,,,,,
,,,,,,,,,,,levent,001,2023-11-07_16h32.41.460,vowel_harmony,2023.2.3,Win32,59.94485074,447.444,448.442,,,,,,,,,,,,,,,,,,,,,,,,,,448.4421,449.0746,m,1,0.5994,,449.0746,449.075,,0,201,201,91,1,92,ifade,6177,280.6584,5726,0.626,5,notharmonic,1.7,word,m,,,,,,,
,,,,,,,,,,,levent,001,2023-11-07_16h32.41.460,vowel_harmony,2023.2.3,Win32,59.94485074,449.0758,450.0737,,,,,,,,,,,,,,,,,,,,,,,,,,450.0737,450.6732,z,1,0.5756,,450.6734,450.6738,,0,202,202,200,1,201,duşın,,,,,5,harmonic,1.9,nw,z,,,,,,,
,,,,,,,,,,,levent,001,2023-11-07_16h32.41.460,vowel_harmony,2023.2.3,Win32,59.94485074,450.6746,451.6726,,,,,,,,,,,,,,,,,,,,,,,,,,451.6726,452.2052,z,1,0.4981,,452.2053,452.2057,,0,203,203,243,1,244,korguf,,,,,6,harmonic,2,nw,z,,,,,,,
,,,,,,,,,,,levent,001,2023-11-07_16h32.41.460,vowel_harmony,2023.2.3,Win32,59.94485074,452.2066,453.2044,,,,,,,,,,,,,,,,,,,,,,,,,,453.2045,454.0036,m,1,0.7778,,454.0037,454.0041,,0,204,204,55,1,56,akıl,2208,100.3228,2004,0.2191,4,harmonic,1,word,m,,,,,,,
,,,,,,,,,,,levent,001,2023-11-07_16h32.41.460,vowel_harmony,2023.2.3,Win32,59.94485074,454.0049,455.003,,,,,,,,,,,,,,,,,,,,,,,,,,455.003,455.5689,z,1,0.5399,,455.5689,455.5694,,0,205,205,240,1,241,hoga,,,,,4,harmonic,1.75,nw,z,,,,,,,
,,,,,,,,,,,levent,001,2023-11-07_16h32.41.460,vowel_harmony,2023.2.3,Win32,59.94485074,455.5703,456.5682,,,,,,,,,,,,,,,,,,,,,,,,,,456.5683,457.3343,z,1,0.7465,,457.3343,457.3345,,0,206,206,299,1,300,fihal,,,,,5,notharmonic,1.95,nw,z,,,,,,,
,,,,,,,,,,,levent,001,2023-11-07_16h32.41.460,vowel_harmony,2023.2.3,Win32,59.94485074,457.3354,458.3334,,,,,,,,,,,,,,,,,,,,,,,,,,458.3335,459.0222,m,1,0.6635,,459.0222,459.0224,,0,207,207,35,1,36,hava,4975,226.0443,4398,0.4808,4,harmonic,1,word,m,,,,,,,
,,,,,,,,,,,levent,001,2023-11-07_16h32.41.460,vowel_harmony,2023.2.3,Win32,59.94485074,459.0231,460.02,,,,,,,,,,,,,,,,,,,,,,,,,,460.0201,460.6651,m,1,0.619,,460.6653,460.6658,,0,208,208,56,1,57,sağlam,1818,82.6027,1720,0.188,6,harmonic,1.6,word,m,,,,,,,
,,,,,,,,,,,levent,001,2023-11-07_16h32.41.460,vowel_harmony,2023.2.3,Win32,59.94485074,460.6667,461.6645,,,,,,,,,,,,,,,,,,,,,,,,,,461.6646,462.2966,z,1,0.5995,,462.2966,462.2968,,0,209,209,343,1,344,tarne,,,,,5,notharmonic,1.85,nw,z,,,,,,,
,,,,,,,,,,,levent,001,2023-11-07_16h32.41.460,vowel_harmony,2023.2.3,Win32,59.94485074,462.2973,463.2959,,,,,,,,,,,,,,,,,,,,,,,,,,463.296,464.0286,m,1,0.7082,,464.0287,464.029,,0,210,210,50,1,51,kanun,1198,54.4324,1010,0.1104,5,harmonic,1.6,word,m,,,,,,,
,,,,,,,,,,,levent,001,2023-11-07_16h32.41.460,vowel_harmony,2023.2.3,Win32,59.94485074,464.0299,465.0277,,,,,,,,,,,,,,,,,,,,,,,,,,465.0277,465.9434,z,1,0.8836,,465.9435,465.9438,,0,211,211,340,1,341,minya,,,,,5,notharmonic,1.95,nw,z,,,,,,,
,,,,,,,,,,,levent,001,2023-11-07_16h32.41.460,vowel_harmony,2023.2.3,Win32,59.94485074,465.9447,466.9427,,,,,,,,,,,,,,,,,,,,,,,,,,466.9428,467.8587,z,1,0.8913,,467.8588,467.8591,,0,212,212,302,1,303,işgar,,,,,5,notharmonic,1.9,nw,z,,,,,,,
,,,,,,,,,,,levent,001,2023-11-07_16h32.41.460,vowel_harmony,2023.2.3,Win32,59.94485074,467.86,468.857,,,,,,,,,,,,,,,,,,,,,,,,,,468.857,469.5904,m,1,0.7084,,469.5905,469.5909,,0,213,213,9,1,10,karar,8108,368.3954,7436,0.8129,5,harmonic,1.6,word,m,,,,,,,
,,,,,,,,,,,levent,001,2023-11-07_16h32.41.460,vowel_harmony,2023.2.3,Win32,59.94485074,469.5918,470.5896,,,,,,,,,,,,,,,,,,,,,,,,,,470.5897,471.1725,z,1,0.5645,,471.1726,471.1729,,0,214,214,308,1,309,hafer,,,,,5,notharmonic,1.85,nw,z,,,,,,,
,,,,,,,,,,,levent,001,2023-11-07_16h32.41.460,vowel_harmony,2023.2.3,Win32,59.94485074,471.1738,472.1714,,,,,,,,,,,,,,,,,,,,,,,,,,472.1715,472.7211,z,1,0.5136,,472.7212,472.7214,,0,215,215,262,1,263,sauk,,,,,4,harmonic,1.85,nw,z,,,,,,,
,,,,,,,,,,,levent,001,2023-11-07_16h32.41.460,vowel_harmony,2023.2.3,Win32,59.94485074,472.7224,473.7204,,,,,,,,,,,,,,,,,,,,,,,,,,473.7204,474.3524,m,1,0.6043,,474.3526,474.3527,,0,216,216,143,1,144,kitap,8359,379.7998,6786,0.7418,5,notharmonic,1.9,word,m,,,,,,,
,,,,,,,,,,,levent,001,2023-11-07_16h32.41.460,vowel_harmony,2023.2.3,Win32,59.94485074,474.3531,475.3522,,,,,,,,,,,,,,,,,,,,,,,,,,475.3522,475.8851,z,1,0.4978,,475.8852,475.8855,,0,217,217,188,1,189,tonık,,,,,5,harmonic,1.85,nw,z,,,,,,,
,,,,,,,,,,,levent,001,2023-11-07_16h32.41.460,vowel_harmony,2023.2.3,Win32,59.94485074,475.8864,476.8844,,,,,,,,,,,,,,,,,,,,,,,,,,476.8844,477.4338,m,1,0.5291,,477.4339,477.4343,,0,218,218,176,1,177,harika,4682,212.7315,4422,0.4834,6,notharmonic,1.9,word,m,,,,,,,
,,,,,,,,,,,levent,001,2023-11-07_16h32.41.460,vowel_harmony,2023.2.3,Win32,59.94485074,477.4352,478.4329,,,,,,,,,,,,,,,,,,,,,,,,,,478.4329,478.9834,m,1,0.522,,478.9835,478.9837,,0,219,219,87,1,88,mümkün,6604,300.0596,6264,0.6848,6,harmonic,1.9,word,m,,,,,,,
,,,,,,,,,,,levent,001,2023-11-07_16h32.41.460,vowel_harmony,2023.2.3,Win32,59.94485074,478.9846,479.9823,,,,,,,,,,,,,,,,,,,,,,,,,,479.9824,480.5539,m,0,0.5508,,480.554,480.5541,,0,220,220,294,1,295,mesap,,,,,5,notharmonic,1.8,nw,z,,,,,,,
,,,,,,,,,,,levent,001,2023-11-07_16h32.41.460,vowel_harmony,2023.2.3,Win32,59.94485074,480.5547,481.5475,,,,,,,,,,,,,,,,,,,,,,,,,,481.5475,482.2132,z,1,0.6323,,482.2134,482.2137,,0,221,221,300,1,301,nilgi,,,,,5,notharmonic,1.85,nw,z,,,,,,,
,,,,,,,,,,,levent,001,2023-11-07_16h32.41.460,vowel_harmony,2023.2.3,Win32,59.94485074,482.2146,483.2122,,,,,,,,,,,,,,,,,,,,,,,,,,483.2123,483.7115,z,1,0.4817,,483.7116,483.7119,,0,222,222,319,1,320,biho,,,,,4,notharmonic,2,nw,z,,,,,,,
,,,,,,,,,,,levent,001,2023-11-07_16h32.41.460,vowel_harmony,2023.2.3,Win32,59.94485074,483.7128,484.711,,,,,,,,,,,,,,,,,,,,,,,,,,484.7111,485.3105,m,1,0.5668,,485.3106,485.3109,,0,223,223,97,1,98,mevcut,3007,136.6262,2842,0.3107,6,notharmonic,1.95,word,m,,,,,,,
,,,,,,,,,,,levent,001,2023-11-07_16h32.41.460,vowel_harmony,2023.2.3,Win32,59.94485074,485.3119,486.3095,,,,,,,,,,,,,,,,,,,,,,,,,,486.3096,486.9589,m,1,0.6286,,486.959,486.9594,,0,224,224,25,1,26,rapor,703,31.9415,617,0.0675,5,harmonic,1.8,word,m,,,,,,,
,,,,,,,,,,,levent,001,2023-11-07_16h32.41.460,vowel_harmony,2023.2.3,Win32,59.94485074,486.9603,487.9581,,,,,,,,,,,,,,,,,,,,,,,,,,487.9582,489.9575,,0,,,489.9576,489.9579,,0,225,225,289,1,290,karmen,,,,,6,notharmonic,1.75,nw,z,,,,,,,
,,,,,,,,,,,levent,001,2023-11-07_16h32.41.460,vowel_harmony,2023.2.3,Win32,59.94485074,489.9589,490.956,,,,,,,,,,,,,,,,,,,,,,,,,,490.9562,491.6559,z,1,0.6715,,491.656,491.6563,,0,226,226,228,1,229,haytam,,,,,6,harmonic,1.75,nw,z,,,,,,,
,,,,,,,,,,,levent,001,2023-11-07_16h32.41.460,vowel_harmony,2023.2.3,Win32,59.94485074,491.6574,492.6545,,,,,,,,,,,,,,,,,,,,,,,,,,492.6546,493.3363,m,1,0.6503,,493.3364,493.3365,,0,227,227,152,1,153,tedavi,1865,84.7382,1597,0.1746,6,notharmonic,1.8,word,m,,,,,,,
,,,,,,,,,,,levent,001,2023-11-07_16h32.41.460,vowel_harmony,2023.2.3,Win32,59.94485074,493.3372,494.3371,,,,,,,,,,,,,,,,,,,,,,,,,,494.3371,495.0526,m,1,0.695,,495.0526,495.0529,,0,228,228,102,1,103,esas,1965,89.2818,1795,0.1962,4,notharmonic,1.75,word,m,,,,,,,
,,,,,,,,,,,levent,001,2023-11-07_16h32.41.460,vowel_harmony,2023.2.3,Win32,59.94485074,495.0538,496.0517,,,,,,,,,,,,,,,,,,,,,,,,,,496.0518,496.6515,z,1,0.5656,,496.6515,496.6517,,0,229,229,306,1,307,otet,,,,,4,notharmonic,1.95,nw,z,,,,,,,
,,,,,,,,,,,levent,001,2023-11-07_16h32.41.460,vowel_harmony,2023.2.3,Win32,59.94485074,496.6528,497.6504,,,,,,,,,,,,,,,,,,,,,,,,,,497.6504,498.3833,z,1,0.7089,,498.3833,498.3836,,0,230,230,230,1,231,bikir,,,,,5,harmonic,1.75,nw,z,,,,,,,
,,,,,,,,,,,levent,001,2023-11-07_16h32.41.460,vowel_harmony,2023.2.3,Win32,59.94485074,498.3844,499.3823,,,,,,,,,,,,,,,,,,,,,,,,,,499.3824,499.982,m,1,0.5661,,499.9821,499.9823,,0,231,231,109,1,110,milyon,3936,178.8362,2958,0.3234,6,notharmonic,1.75,word,m,,,,,,,
,,,,,,,,,,,levent,001,2023-11-07_16h32.41.460,vowel_harmony,2023.2.3,Win32,59.94485074,499.9832,500.981,,,,,,,,,,,,,,,,,,,,,,,,,,500.981,501.5304,m,1,0.5305,,501.5306,501.5308,,0,232,232,89,1,90,etki,1234,56.0681,1169,0.1278,4,harmonic,1.4,word,m,,,,,,,
,,,,,,,,,,,levent,001,2023-11-07_16h32.41.460,vowel_harmony,2023.2.3,Win32,59.94485074,501.5315,502.5297,,,,,,,,,,,,,,,,,,,,,,,,,,502.5298,503.1458,m,1,0.5876,,503.1458,503.1461,,0,233,233,130,1,131,hamile,1075,48.8437,877,0.0959,6,notharmonic,1.5,word,m,,,,,,,
,,,,,,,,,,,levent,001,2023-11-07_16h32.41.460,vowel_harmony,2023.2.3,Win32,59.94485074,503.1471,504.145,,,,,,,,,,,,,,,,,,,,,,,,,,504.145,504.6613,m,1,0.4912,,504.6616,504.6619,,0,234,234,115,1,116,saniye,1088,49.4344,984,0.1076,6,notharmonic,1.35,word,m,,,,,,,
,,,,,,,,,,,levent,001,2023-11-07_16h32.41.460,vowel_harmony,2023.2.3,Win32,59.94485074,504.6633,505.6604,,,,,,,,,,,,,,,,,,,,,,,,,,505.6605,506.2432,z,1,0.5513,,506.2432,506.2436,,0,235,235,325,1,326,garit,,,,,5,notharmonic,1.85,nw,z,,,,,,,
,,,,,,,,,,,levent,001,2023-11-07_16h32.41.460,vowel_harmony,2023.2.3,Win32,59.94485074,506.2447,507.2417,,,,,,,,,,,,,,,,,,,,,,,,,,507.2418,507.8086,z,1,0.5528,,507.8088,507.8091,,0,236,236,332,1,333,tahane,,,,,6,notharmonic,1.85,nw,z,,,,,,,
,,,,,,,,,,,levent,001,2023-11-07_16h32.41.460,vowel_harmony,2023.2.3,Win32,59.94485074,507.8102,508.8074,,,,,,,,,,,,,,,,,,,,,,,,,,508.8076,509.4411,z,1,0.6061,,509.4412,509.4415,,0,237,237,208,1,209,yayram,,,,,6,harmonic,1.85,nw,z,,,,,,,
,,,,,,,,,,,levent,001,2023-11-07_16h32.41.460,vowel_harmony,2023.2.3,Win32,59.94485074,509.4424,510.4396,,,,,,,,,,,,,,,,,,,,,,,,,,510.4397,511.1555,m,1,0.6916,,511.1555,511.1559,,0,238,238,77,1,78,ufak,3252,147.758,2980,0.3258,4,harmonic,1.5,word,m,,,,,,,
,,,,,,,,,,,levent,001,2023-11-07_16h32.41.460,vowel_harmony,2023.2.3,Win32,59.94485074,511.157,512.1547,,,,,,,,,,,,,,,,,,,,,,,,,,512.1548,512.7398,m,1,0.5533,,512.74,512.7401,,0,239,239,173,1,174,sade,1193,54.2052,1114,0.1218,4,notharmonic,1.55,word,m,,,,,,,
,,,,,,,,,,,levent,001,2023-11-07_16h32.41.460,vowel_harmony,2023.2.3,Win32,59.94485074,512.7407,513.7366,,,,,,,,,,,,,,,,,,,,,,,,,,513.7367,514.3362,m,1,0.5748,,514.3363,573.1033,space,0,240,240,92,1,93,sahne,1380,62.7017,1238,0.1353,5,notharmonic,1.65,word,m,58.7507,,,,,,
,,,,,,,,,,,levent,001,2023-11-07_16h32.41.460,vowel_harmony,2023.2.3,Win32,59.94485074,573.1304,574.1183,,,,,,,,,,,,,,,,,,,,,,,,,,574.1183,574.6011,m,1,0.4562,,574.6012,574.6015,,0,241,241,22,1,23,anlam,1730,78.6043,1617,0.1768,5,harmonic,1.25,word,m,,,,,,,
,,,,,,,,,,,levent,001,2023-11-07_16h32.41.460,vowel_harmony,2023.2.3,Win32,59.94485074,574.6024,575.6002,,,,,,,,,,,,,,,,,,,,,,,,,,575.6004,576.1996,m,1,0.5648,,576.1997,576.2,,0,242,242,32,1,33,temel,4231,192.2399,3851,0.421,5,harmonic,1.55,word,m,,,,,,,
,,,,,,,,,,,levent,001,2023-11-07_16h32.41.460,vowel_harmony,2023.2.3,Win32,59.94485074,576.2009,577.1989,,,,,,,,,,,,,,,,,,,,,,,,,,577.1989,577.8483,m,1,0.6251,,577.8484,577.8486,,0,243,243,48,1,49,teşvik,932,42.3464,867,0.0948,6,harmonic,1.8,word,m,,,,,,,
,,,,,,,,,,,levent,001,2023-11-07_16h32.41.460,vowel_harmony,2023.2.3,Win32,59.94485074,577.8496,578.8474,,,,,,,,,,,,,,,,,,,,,,,,,,578.8474,579.3636,m,1,0.4879,,579.3637,579.3639,,0,244,244,16,1,17,yavaş,5087,231.1331,2886,0.3155,5,harmonic,1.6,word,m,,,,,,,
,,,,,,,,,,,levent,001,2023-11-07_16h32.41.460,vowel_harmony,2023.2.3,Win32,59.94485074,579.3653,580.3629,,,,,,,,,,,,,,,,,,,,,,,,,,580.363,580.8625,m,1,0.4748,,580.8626,580.8629,,0,245,245,1,1,2,erkek,6188,281.1582,5195,0.5679,5,harmonic,1.65,word,m,,,,,,,
,,,,,,,,,,,levent,001,2023-11-07_16h32.41.460,vowel_harmony,2023.2.3,Win32,59.94485074,580.8638,581.8611,,,,,,,,,,,,,,,,,,,,,,,,,,581.8611,582.4939,m,1,0.6007,,582.494,582.4941,,0,246,246,103,1,104,tane,5623,255.4868,5075,0.5548,4,notharmonic,1.3,word,m,,,,,,,
,,,,,,,,,,,levent,001,2023-11-07_16h32.41.460,vowel_harmony,2023.2.3,Win32,59.94485074,582.4946,583.4931,,,,,,,,,,,,,,,,,,,,,,,,,,583.4931,584.0263,m,1,0.5129,,584.0264,584.0267,,0,247,247,57,1,58,bölüm,1910,86.7828,1605,0.1755,5,harmonic,1.45,word,m,,,,,,,
,,,,,,,,,,,levent,001,2023-11-07_16h32.41.460,vowel_harmony,2023.2.3,Win32,59.94485074,584.0278,585.0255,,,,,,,,,,,,,,,,,,,,,,,,,,585.0256,585.6416,z,1,0.5834,,585.6417,585.6421,,0,248,248,268,1,269,haldum,,,,,6,harmonic,2,nw,z,,,,,,,
,,,,,,,,,,,levent,001,2023-11-07_16h32.41.460,vowel_harmony,2023.2.3,Win32,59.94485074,585.643,586.641,,,,,,,,,,,,,,,,,,,,,,,,,,586.641,587.1906,m,1,0.5272,,587.1907,587.191,,0,249,249,84,1,85,ülke,3121,141.8059,2801,0.3062,4,harmonic,1.65,word,m,,,,,,,
,,,,,,,,,,,levent,001,2023-11-07_16h32.41.460,vowel_harmony,2023.2.3,Win32,59.94485074,587.1918,588.1896,,,,,,,,,,,,,,,,,,,,,,,,,,588.1897,588.7391,z,1,0.5153,,588.7392,588.7396,,0,250,250,220,1,221,denbi,,,,,5,harmonic,1.75,nw,z,,,,,,,
,,,,,,,,,,,levent,001,2023-11-07_16h32.41.460,vowel_harmony,2023.2.3,Win32,59.94485074,588.7406,589.7384,,,,,,,,,,,,,,,,,,,,,,,,,,589.7385,590.4206,z,1,0.661,,590.4206,590.4209,,0,251,251,297,1,298,sapet,,,,,5,notharmonic,1.85,nw,z,,,,,,,
,,,,,,,,,,,levent,001,2023-11-07_16h32.41.460,vowel_harmony,2023.2.3,Win32,59.94485074,590.4214,591.4197,,,,,,,,,,,,,,,,,,,,,,,,,,591.4198,591.9698,m,1,0.5197,,591.9699,591.9702,,0,252,252,158,1,159,klasik,1871,85.0108,1734,0.1896,6,notharmonic,2,word,m,,,,,,,
,,,,,,,,,,,levent,001,2023-11-07_16h32.41.460,vowel_harmony,2023.2.3,Win32,59.94485074,591.9712,592.9688,,,,,,,,,,,,,,,,,,,,,,,,,,592.9689,593.4851,m,1,0.4904,,593.4852,593.4854,,0,253,253,136,1,137,beyaz,5517,250.6706,4788,0.5234,5,notharmonic,1.85,word,m,,,,,,,
,,,,,,,,,,,levent,001,2023-11-07_16h32.41.460,vowel_harmony,2023.2.3,Win32,59.94485074,593.4862,594.484,,,,,,,,,,,,,,,,,,,,,,,,,,594.4841,595.0002,m,1,0.4835,,595.0003,595.0006,,0,254,254,40,1,41,tepki,1695,77.0141,1578,0.1725,5,harmonic,1.55,word,m,,,,,,,
,,,,,,,,,,,levent,001,2023-11-07_16h32.41.460,vowel_harmony,2023.2.3,Win32,59.94485074,595.0015,595.9995,,,,,,,,,,,,,,,,,,,,,,,,,,595.9995,596.549,m,1,0.5253,,596.5491,596.5495,,0,255,255,4,1,5,metre,1156,52.5241,1015,0.111,5,harmonic,1.7,word,m,,,,,,,
,,,,,,,,,,,levent,001,2023-11-07_16h32.41.460,vowel_harmony,2023.2.3,Win32,59.94485074,596.5504,597.5482,,,,,,,,,,,,,,,,,,,,,,,,,,597.5482,598.181,z,1,0.6003,,598.1811,598.1815,,0,256,256,223,1,224,kakon,,,,,5,harmonic,1.85,nw,z,,,,,,,
,,,,,,,,,,,levent,001,2023-11-07_16h32.41.460,vowel_harmony,2023.2.3,Win32,59.94485074,598.1824,599.1803,,,,,,,,,,,,,,,,,,,,,,,,,,599.1803,599.763,m,1,0.5579,,599.7632,599.7634,,0,257,257,160,1,161,hakem,603,27.3979,473,0.0517,5,notharmonic,1.3,word,m,,,,,,,
,,,,,,,,,,,levent,001,2023-11-07_16h32.41.460,vowel_harmony,2023.2.3,Win32,59.94485074,599.7644,600.7621,,,,,,,,,,,,,,,,,,,,,,,,,,600.7622,601.3617,m,1,0.5665,,601.3617,601.3621,,0,258,258,72,1,73,çorba,1674,76.0599,1513,0.1654,5,harmonic,1.75,word,m,,,,,,,
,,,,,,,,,,,levent,001,2023-11-07_16h32.41.460,vowel_harmony,2023.2.3,Win32,59.94485074,601.363,602.3607,,,,,,,,,,,,,,,,,,,,,,,,,,602.3607,602.9437,z,1,0.5592,,602.9438,602.9441,,0,259,259,328,1,329,kirul,,,,,5,notharmonic,1.95,nw,z,,,,,,,
,,,,,,,,,,,levent,001,2023-11-07_16h32.41.460,vowel_harmony,2023.2.3,Win32,59.94485074,602.9452,603.9428,,,,,,,,,,,,,,,,,,,,,,,,,,603.9428,604.4424,m,1,0.4667,,604.4426,604.4428,,0,260,260,31,1,32,fazla,18293,831.1614,16694,1.825,5,harmonic,1,word,m,,,,,,,
,,,,,,,,,,,levent,001,2023-11-07_16h32.41.460,vowel_harmony,2023.2.3,Win32,59.94485074,604.4438,605.4415,,,,,,,,,,,,,,,,,,,,,,,,,,605.4415,605.9244,m,1,0.461,,605.9245,605.9248,,0,261,261,155,1,156,ilaç,1366,62.0656,1215,0.1328,4,notharmonic,1.75,word,m,,,,,,,
,,,,,,,,,,,levent,001,2023-11-07_16h32.41.460,vowel_harmony,2023.2.3,Win32,59.94485074,605.9258,606.9236,,,,,,,,,,,,,,,,,,,,,,,,,,606.9237,607.5063,z,1,0.5495,,607.5064,607.5066,,0,262,262,193,1,194,yokın,,,,,5,harmonic,1.85,nw,z,,,,,,,
,,,,,,,,,,,levent,001,2023-11-07_16h32.41.460,vowel_harmony,2023.2.3,Win32,59.94485074,607.5076,608.5058,,,,,,,,,,,,,,,,,,,,,,,,,,608.5059,609.0395,m,1,0.5167,,609.0396,609.0399,,0,263,263,154,1,155,sakin,1855,84.2838,1635,0.1787,5,notharmonic,1.05,word,m,,,,,,,
,,,,,,,,,,,levent,001,2023-11-07_16h32.41.460,vowel_harmony,2023.2.3,Win32,59.94485074,609.0409,610.0376,,,,,,,,,,,,,,,,,,,,,,,,,,610.0376,610.637,z,1,0.5648,,610.6372,610.6375,,0,264,264,267,1,268,nokuma,,,,,6,harmonic,1.75,nw,z,,,,,,,
,,,,,,,,,,,levent,001,2023-11-07_16h32.41.460,vowel_harmony,2023.2.3,Win32,59.94485074,610.6383,611.6362,,,,,,,,,,,,,,,,,,,,,,,,,,611.6363,612.1853,z,1,0.5269,,612.1854,612.1855,,0,265,265,322,1,323,normin,,,,,6,notharmonic,1.95,nw,z,,,,,,,
,,,,,,,,,,,levent,001,2023-11-07_16h32.41.460,vowel_harmony,2023.2.3,Win32,59.94485074,612.1862,613.1848,,,,,,,,,,,,,,,,,,,,,,,,,,613.1849,613.8678,z,1,0.6535,,613.8678,613.8682,,0,266,266,293,1,294,esnan,,,,,5,notharmonic,1.85,nw,z,,,,,,,
,,,,,,,,,,,levent,001,2023-11-07_16h32.41.460,vowel_harmony,2023.2.3,Win32,59.94485074,613.8694,614.8668,,,,,,,,,,,,,,,,,,,,,,,,,,614.8668,615.8825,z,1,0.9899,,615.8826,615.883,,0,267,267,333,1,334,heyran,,,,,6,notharmonic,1.85,nw,z,,,,,,,
,,,,,,,,,,,levent,001,2023-11-07_16h32.41.460,vowel_harmony,2023.2.3,Win32,59.94485074,615.8839,616.8821,,,,,,,,,,,,,,,,,,,,,,,,,,616.8821,617.4641,z,1,0.5531,,617.4642,617.4644,,0,268,268,353,1,354,ikno,,,,,4,notharmonic,1.95,nw,z,,,,,,,
,,,,,,,,,,,levent,001,2023-11-07_16h32.41.460,vowel_harmony,2023.2.3,Win32,59.94485074,617.4649,618.4638,,,,,,,,,,,,,,,,,,,,,,,,,,618.464,619.1631,m,1,0.6633,,619.1633,619.1635,,0,269,269,42,1,43,ürün,2268,103.0489,1954,0.2136,4,harmonic,1.1,word,m,,,,,,,
,,,,,,,,,,,levent,001,2023-11-07_16h32.41.460,vowel_harmony,2023.2.3,Win32,59.94485074,619.1645,620.1625,,,,,,,,,,,,,,,,,,,,,,,,,,620.1625,621.0282,m,1,0.8402,,621.0283,621.0286,,0,270,270,13,1,14,nokta,2085,94.7341,1939,0.212,5,harmonic,1.5,word,m,,,,,,,
,,,,,,,,,,,levent,001,2023-11-07_16h32.41.460,vowel_harmony,2023.2.3,Win32,59.94485074,621.0295,622.0274,,,,,,,,,,,,,,,,,,,,,,,,,,622.0275,622.5602,m,1,0.5025,,622.5603,622.5607,,0,271,271,51,1,52,ilginç,2803,127.3572,2690,0.2941,6,harmonic,1.8,word,m,,,,,,,
,,,,,,,,,,,levent,001,2023-11-07_16h32.41.460,vowel_harmony,2023.2.3,Win32,59.94485074,622.5617,623.5594,,,,,,,,,,,,,,,,,,,,,,,,,,623.5594,624.109,m,1,0.5241,,624.1092,624.1094,,0,272,272,170,1,171,basit,3385,153.801,3177,0.3473,5,notharmonic,1.65,word,m,,,,,,,
,,,,,,,,,,,levent,001,2023-11-07_16h32.41.460,vowel_harmony,2023.2.3,Win32,59.94485074,624.1104,625.108,,,,,,,,,,,,,,,,,,,,,,,,,,625.108,625.6957,m,1,0.5618,,625.6957,625.6957,,0,273,273,151,1,152,ateş,2108,95.7792,1803,0.1971,4,notharmonic,1.65,word,m,,,,,,,
,,,,,,,,,,,levent,001,2023-11-07_16h32.41.460,vowel_harmony,2023.2.3,Win32,59.94485074,625.6961,626.6905,,,,,,,,,,,,,,,,,,,,,,,,,,626.6907,627.2402,z,1,0.5253,,627.2404,627.2408,,0,274,274,282,1,283,taöz,,,,,4,notharmonic,1.9,nw,z,,,,,,,
,,,,,,,,,,,levent,001,2023-11-07_16h32.41.460,vowel_harmony,2023.2.3,Win32,59.94485074,627.2416,628.2395,,,,,,,,,,,,,,,,,,,,,,,,,,628.2398,628.8216,m,1,0.5471,,628.8217,628.8221,,0,275,275,73,1,74,millet,1658,75.3329,1508,0.1649,6,harmonic,1.7,word,m,,,,,,,
,,,,,,,,,,,levent,001,2023-11-07_16h32.41.460,vowel_harmony,2023.2.3,Win32,59.94485074,628.8229,629.8208,,,,,,,,,,,,,,,,,,,,,,,,,,629.8209,630.4868,m,1,0.6428,,630.4869,630.4873,,0,276,276,47,1,48,kaza,740,33.6227,679,0.0742,4,harmonic,1.85,word,m,,,,,,,
,,,,,,,,,,,levent,001,2023-11-07_16h32.41.460,vowel_harmony,2023.2.3,Win32,59.94485074,630.4882,631.486,,,,,,,,,,,,,,,,,,,,,,,,,,631.4861,632.0526,z,1,0.5397,,632.0528,632.0532,,0,277,277,183,1,184,orkın,,,,,5,harmonic,1.9,nw,z,,,,,,,
,,,,,,,,,,,levent,001,2023-11-07_16h32.41.460,vowel_harmony,2023.2.3,Win32,59.94485074,632.0541,633.0513,,,,,,,,,,,,,,,,,,,,,,,,,,633.0513,633.5512,m,1,0.4747,,633.5514,633.5516,,0,278,278,5,1,6,bebek,3301,149.9843,2794,0.3054,5,harmonic,1.6,word,m,,,,,,,
,,,,,,,,,,,levent,001,2023-11-07_16h32.41.460,vowel_harmony,2023.2.3,Win32,59.94485074,633.5527,634.5501,,,,,,,,,,,,,,,,,,,,,,,,,,634.5501,635.1163,m,1,0.5368,,635.1165,635.1168,,0,279,279,8,1,9,güven,1433,65.1098,1300,0.1421,5,harmonic,1.35,word,m,,,,,,,
,,,,,,,,,,,levent,001,2023-11-07_16h32.41.460,vowel_harmony,2023.2.3,Win32,59.94485074,635.1176,636.1155,,,,,,,,,,,,,,,,,,,,,,,,,,636.1156,636.6815,z,1,0.5413,,636.6816,636.6819,,0,280,280,342,1,343,kulön,,,,,5,notharmonic,1.9,nw,z,,,,,,,
,,,,,,,,,,,levent,001,2023-11-07_16h32.41.460,vowel_harmony,2023.2.3,Win32,59.94485074,636.6828,637.6808,,,,,,,,,,,,,,,,,,,,,,,,,,637.6808,638.2968,z,1,0.588,,638.2969,638.2972,,0,281,281,250,1,251,kakuk,,,,,5,harmonic,1.9,nw,z,,,,,,,
,,,,,,,,,,,levent,001,2023-11-07_16h32.41.460,vowel_harmony,2023.2.3,Win32,59.94485074,638.2981,639.2961,,,,,,,,,,,,,,,,,,,,,,,,,,639.2961,639.8123,m,1,0.4928,,639.8124,639.8128,,0,282,282,164,1,165,sinema,1575,71.5618,1304,0.1426,6,notharmonic,1.8,word,m,,,,,,,
,,,,,,,,,,,levent,001,2023-11-07_16h32.41.460,vowel_harmony,2023.2.3,Win32,59.94485074,639.8137,640.8106,,,,,,,,,,,,,,,,,,,,,,,,,,640.8106,641.3777,m,1,0.5445,,641.3778,641.3781,,0,283,283,119,1,120,kulüp,649,29.488,467,0.0511,5,notharmonic,1.4,word,m,,,,,,,
,,,,,,,,,,,levent,001,2023-11-07_16h32.41.460,vowel_harmony,2023.2.3,Win32,59.94485074,641.379,642.3763,,,,,,,,,,,,,,,,,,,,,,,,,,642.3763,643.6088,z,1,1.219,,643.6089,643.6091,,0,284,284,184,1,185,yapor,,,,,5,harmonic,1.9,nw,z,,,,,,,
,,,,,,,,,,,levent,001,2023-11-07_16h32.41.460,vowel_harmony,2023.2.3,Win32,59.94485074,643.61,644.6078,,,,,,,,,,,,,,,,,,,,,,,,,,644.6079,645.274,z,1,0.6454,,645.274,645.2743,,0,285,285,246,1,247,orkın,,,,,5,harmonic,1.9,nw,z,,,,,,,
,,,,,,,,,,,levent,001,2023-11-07_16h32.41.460,vowel_harmony,2023.2.3,Win32,59.94485074,645.275,646.2733,,,,,,,,,,,,,,,,,,,,,,,,,,646.2734,646.8729,m,1,0.5727,,646.873,646.8732,,0,286,286,168,1,169,kilo,3389,153.9827,2646,0.2893,4,notharmonic,1.65,word,m,,,,,,,
,,,,,,,,,,,levent,001,2023-11-07_16h32.41.460,vowel_harmony,2023.2.3,Win32,59.94485074,646.8742,647.872,,,,,,,,,,,,,,,,,,,,,,,,,,647.8721,648.5048,m,1,0.6073,,648.5049,648.5054,,0,287,287,172,1,173,milyar,1496,67.9723,1078,0.1178,6,notharmonic,1.85,word,m,,,,,,,
,,,,,,,,,,,levent,001,2023-11-07_16h32.41.460,vowel_harmony,2023.2.3,Win32,59.94485074,648.5063,649.5041,,,,,,,,,,,,,,,,,,,,,,,,,,649.5042,650.0874,m,1,0.5576,,650.0875,650.0877,,0,288,288,162,1,163,hariç,1267,57.5675,1233,0.1348,5,notharmonic,1.75,word,m,,,,,,,
,,,,,,,,,,,levent,001,2023-11-07_16h32.41.460,vowel_harmony,2023.2.3,Win32,59.94485074,650.0889,651.086,,,,,,,,,,,,,,,,,,,,,,,,,,651.086,651.9352,m,1,0.8305,,651.9353,651.9356,,0,289,289,149,1,150,ceza,2611,118.6335,2169,0.2371,4,notharmonic,1.5,word,m,,,,,,,
,,,,,,,,,,,levent,001,2023-11-07_16h32.41.460,vowel_harmony,2023.2.3,Win32,59.94485074,651.9366,652.9343,,,,,,,,,,,,,,,,,,,,,,,,,,652.9344,653.6837,m,1,0.718,,653.6839,653.6842,,0,290,290,76,1,77,ilişki,1675,76.1054,1524,0.1666,6,harmonic,1.8,word,m,,,,,,,
,,,,,,,,,,,levent,001,2023-11-07_16h32.41.460,vowel_harmony,2023.2.3,Win32,59.94485074,653.6851,654.6832,,,,,,,,,,,,,,,,,,,,,,,,,,654.6833,655.2657,m,1,0.556,,655.2658,655.2663,,0,291,291,165,1,166,gazete,1402,63.7013,1270,0.1388,6,notharmonic,1.8,word,m,,,,,,,
,,,,,,,,,,,levent,001,2023-11-07_16h32.41.460,vowel_harmony,2023.2.3,Win32,59.94485074,655.2672,656.265,,,,,,,,,,,,,,,,,,,,,,,,,,656.2651,656.8643,z,1,0.5647,,656.8645,656.8648,,0,292,292,234,1,235,düzöt,,,,,5,harmonic,2.05,nw,z,,,,,,,
,,,,,,,,,,,levent,001,2023-11-07_16h32.41.460,vowel_harmony,2023.2.3,Win32,59.94485074,656.8657,657.8628,,,,,,,,,,,,,,,,,,,,,,,,,,657.8628,658.3959,m,1,0.5218,,658.396,658.3962,,0,293,293,137,1,138,parti,2613,118.7244,2059,0.2251,5,notharmonic,1.8,word,m,,,,,,,
,,,,,,,,,,,levent,001,2023-11-07_16h32.41.460,vowel_harmony,2023.2.3,Win32,59.94485074,658.3969,659.3956,,,,,,,,,,,,,,,,,,,,,,,,,,659.3957,659.8949,z,1,0.4726,,659.895,659.8953,,0,294,294,191,1,192,doab,,,,,4,harmonic,2,nw,z,,,,,,,
,,,,,,,,,,,levent,001,2023-11-07_16h32.41.460,vowel_harmony,2023.2.3,Win32,59.94485074,659.8963,660.8936,,,,,,,,,,,,,,,,,,,,,,,,,,660.8936,661.5437,m,1,0.6326,,661.5439,661.5441,,0,295,295,58,1,59,ayak,2143,97.3694,1931,0.2111,4,harmonic,1,word,m,,,,,,,
,,,,,,,,,,,levent,001,2023-11-07_16h32.41.460,vowel_harmony,2023.2.3,Win32,59.94485074,661.545,662.5422,,,,,,,,,,,,,,,,,,,,,,,,,,662.5423,663.0269,m,1,0.4641,,663.027,663.0274,,0,296,296,134,1,135,iptal,793,36.0308,725,0.0793,5,notharmonic,1.35,word,m,,,,,,,
,,,,,,,,,,,levent,001,2023-11-07_16h32.41.460,vowel_harmony,2023.2.3,Win32,59.94485074,663.0281,664.025,,,,,,,,,,,,,,,,,,,,,,,,,,664.025,664.5912,z,1,0.5413,,664.5913,664.5916,,0,297,297,210,1,211,şevci,,,,,5,harmonic,1.75,nw,z,,,,,,,
,,,,,,,,,,,levent,001,2023-11-07_16h32.41.460,vowel_harmony,2023.2.3,Win32,59.94485074,664.5925,665.5898,,,,,,,,,,,,,,,,,,,,,,,,,,665.5899,666.1727,z,1,0.5562,,666.1727,666.173,,0,298,298,241,1,242,porlam,,,,,6,harmonic,2,nw,z,,,,,,,
,,,,,,,,,,,levent,001,2023-11-07_16h32.41.460,vowel_harmony,2023.2.3,Win32,59.94485074,666.1736,667.1722,,,,,,,,,,,,,,,,,,,,,,,,,,667.1723,667.6386,z,1,0.4474,,667.6387,667.639,,0,299,299,286,1,287,cedan,,,,,5,notharmonic,1.8,nw,z,,,,,,,
,,,,,,,,,,,levent,001,2023-11-07_16h32.41.460,vowel_harmony,2023.2.3,Win32,59.94485074,667.64,668.6376,,,,,,,,,,,,,,,,,,,,,,,,,,668.6376,669.1887,z,1,0.5244,,669.1888,669.1891,,0,300,300,251,1,252,oştay,,,,,5,harmonic,1.95,nw,z,,,,,,,
,,,,,,,,,,,levent,001,2023-11-07_16h32.41.460,vowel_harmony,2023.2.3,Win32,59.94485074,669.19,670.1864,,,,,,,,,,,,,,,,,,,,,,,,,,670.1865,670.852,m,1,0.648,,670.8521,670.8522,,0,301,301,114,1,115,nisan,2321,105.457,2044,0.2235,5,notharmonic,1.6,word,m,,,,,,,
,,,,,,,,,,,levent,001,2023-11-07_16h32.41.460,vowel_harmony,2023.2.3,Win32,59.94485074,670.8528,671.8513,,,,,,,,,,,,,,,,,,,,,,,,,,671.8513,672.5674,z,1,0.6912,,672.5675,672.5677,,0,302,302,254,1,255,millek,,,,,6,harmonic,1.8,nw,z,,,,,,,
,,,,,,,,,,,levent,001,2023-11-07_16h32.41.460,vowel_harmony,2023.2.3,Win32,59.94485074,672.5683,673.5667,,,,,,,,,,,,,,,,,,,,,,,,,,673.5668,674.0832,m,1,0.4904,,674.0832,674.0834,,0,303,303,38,1,39,dönem,2820,128.1296,2437,0.2664,5,harmonic,1.4,word,m,,,,,,,
,,,,,,,,,,,levent,001,2023-11-07_16h32.41.460,vowel_harmony,2023.2.3,Win32,59.94485074,674.0843,675.0818,,,,,,,,,,,,,,,,,,,,,,,,,,675.0818,676.0978,z,1,0.9841,,676.098,676.0982,,0,304,304,344,1,345,barika,,,,,6,notharmonic,1.75,nw,z,,,,,,,
,,,,,,,,,,,levent,001,2023-11-07_16h32.41.460,vowel_harmony,2023.2.3,Win32,59.94485074,676.0991,677.0967,,,,,,,,,,,,,,,,,,,,,,,,,,677.0968,677.7628,m,1,0.6486,,677.7629,677.763,,0,305,305,69,1,70,forma,719,32.6685,597,0.0653,5,harmonic,1.8,word,m,,,,,,,
,,,,,,,,,,,levent,001,2023-11-07_16h32.41.460,vowel_harmony,2023.2.3,Win32,59.94485074,677.7637,678.7619,,,,,,,,,,,,,,,,,,,,,,,,,,678.762,679.3618,z,1,0.577,,679.3619,679.3623,,0,306,306,283,1,284,fahe,,,,,4,notharmonic,1.95,nw,z,,,,,,,
,,,,,,,,,,,levent,001,2023-11-07_16h32.41.460,vowel_harmony,2023.2.3,Win32,59.94485074,679.3632,680.3611,,,,,,,,,,,,,,,,,,,,,,,,,,680.3611,681.0438,z,1,0.6554,,681.0438,681.0441,,0,307,307,338,1,339,pardön,,,,,6,notharmonic,1.95,nw,z,,,,,,,
,,,,,,,,,,,levent,001,2023-11-07_16h32.41.460,vowel_harmony,2023.2.3,Win32,59.94485074,681.045,682.043,,,,,,,,,,,,,,,,,,,,,,,,,,682.0431,682.6425,m,1,0.5675,,682.6425,682.6428,,0,308,308,62,1,63,cümle,1911,86.8283,1765,0.193,5,harmonic,1.85,word,m,,,,,,,
,,,,,,,,,,,levent,001,2023-11-07_16h32.41.460,vowel_harmony,2023.2.3,Win32,59.94485074,682.6438,683.6415,,,,,,,,,,,,,,,,,,,,,,,,,,683.6416,684.2743,m,1,0.6081,,684.2745,684.2748,,0,309,309,20,1,21,nefes,2871,130.4469,2553,0.2791,5,harmonic,1.8,word,m,,,,,,,
,,,,,,,,,,,levent,001,2023-11-07_16h32.41.460,vowel_harmony,2023.2.3,Win32,59.94485074,684.2757,685.2735,,,,,,,,,,,,,,,,,,,,,,,,,,685.2736,686.3897,z,1,1.09,,686.3898,686.3902,,0,310,310,349,1,350,harten,,,,,6,notharmonic,1.85,nw,z,,,,,,,
,,,,,,,,,,,levent,001,2023-11-07_16h32.41.460,vowel_harmony,2023.2.3,Win32,59.94485074,686.3911,687.3884,,,,,,,,,,,,,,,,,,,,,,,,,,687.3885,688.0045,m,1,0.5909,,688.0046,688.005,,0,311,311,33,1,34,moda,1381,62.7472,1231,0.1346,4,harmonic,1.55,word,m,,,,,,,
,,,,,,,,,,,levent,001,2023-11-07_16h32.41.460,vowel_harmony,2023.2.3,Win32,59.94485074,688.0059,689.0038,,,,,,,,,,,,,,,,,,,,,,,,,,689.0038,689.6868,z,1,0.6557,,689.687,689.6873,,0,312,312,351,1,352,seğlık,,,,,6,notharmonic,1.9,nw,z,,,,,,,
,,,,,,,,,,,levent,001,2023-11-07_16h32.41.460,vowel_harmony,2023.2.3,Win32,59.94485074,689.6882,690.6857,,,,,,,,,,,,,,,,,,,,,,,,,,690.6857,691.2018,z,1,0.4925,,691.2019,691.2021,,0,313,313,192,1,193,vecö,,,,,4,harmonic,1.95,nw,z,,,,,,,
,,,,,,,,,,,levent,001,2023-11-07_16h32.41.460,vowel_harmony,2023.2.3,Win32,59.94485074,691.2031,692.2012,,,,,,,,,,,,,,,,,,,,,,,,,,692.2013,693.0836,z,1,0.8486,,693.0836,693.084,,0,314,314,347,1,348,tekram,,,,,6,notharmonic,1.95,nw,z,,,,,,,
,,,,,,,,,,,levent,001,2023-11-07_16h32.41.460,vowel_harmony,2023.2.3,Win32,59.94485074,693.0848,694.0829,,,,,,,,,,,,,,,,,,,,,,,,,,694.083,694.6157,z,1,0.5077,,694.6158,694.6161,,0,315,315,284,1,285,deval,,,,,5,notharmonic,1.75,nw,z,,,,,,,
,,,,,,,,,,,levent,001,2023-11-07_16h32.41.460,vowel_harmony,2023.2.3,Win32,59.94485074,694.6174,695.6148,,,,,,,,,,,,,,,,,,,,,,,,,,695.6149,696.0803,z,1,0.4329,,696.0805,696.0806,,0,316,316,329,1,330,taif,,,,,4,notharmonic,1.8,nw,z,,,,,,,
,,,,,,,,,,,levent,001,2023-11-07_16h32.41.460,vowel_harmony,2023.2.3,Win32,59.94485074,696.0811,697.0795,,,,,,,,,,,,,,,,,,,,,,,,,,697.0796,697.6797,m,1,0.5757,,697.6798,697.6801,,0,317,317,61,1,62,yıldız,1775,80.649,1532,0.1675,6,harmonic,1.6,word,m,,,,,,,
,,,,,,,,,,,levent,001,2023-11-07_16h32.41.460,vowel_harmony,2023.2.3,Win32,59.94485074,697.6811,698.6787,,,,,,,,,,,,,,,,,,,,,,,,,,698.6788,699.2787,m,1,0.5756,,699.2788,699.2791,,0,318,318,68,1,69,ücret,734,33.35,634,0.0693,5,harmonic,1.85,word,m,,,,,,,
,,,,,,,,,,,levent,001,2023-11-07_16h32.41.460,vowel_harmony,2023.2.3,Win32,59.94485074,699.28,700.2775,,,,,,,,,,,,,,,,,,,,,,,,,,700.2776,700.8436,m,1,0.5386,,700.8437,700.844,,0,319,319,163,1,164,limon,1658,75.3329,1481,0.1619,5,notharmonic,1.75,word,m,,,,,,,
,,,,,,,,,,,levent,001,2023-11-07_16h32.41.460,vowel_harmony,2023.2.3,Win32,59.94485074,700.8449,701.8428,,,,,,,,,,,,,,,,,,,,,,,,,,701.8428,702.3422,m,1,0.4809,,702.3422,702.3426,,0,320,320,146,1,147,mavi,2206,100.2319,1934,0.2114,4,notharmonic,1.45,word,m,,,,,,,
,,,,,,,,,,,levent,001,2023-11-07_16h32.41.460,vowel_harmony,2023.2.3,Win32,59.94485074,702.3434,703.3415,,,,,,,,,,,,,,,,,,,,,,,,,,703.3415,703.9077,z,1,0.5335,,703.9077,703.908,,0,321,321,219,1,220,barlum,,,,,6,harmonic,1.9,nw,z,,,,,,,
,,,,,,,,,,,levent,001,2023-11-07_16h32.41.460,vowel_harmony,2023.2.3,Win32,59.94485074,703.909,704.9068,,,,,,,,,,,,,,,,,,,,,,,,,,704.9069,705.4065,z,1,0.4793,,705.4066,705.4069,,0,322,322,242,1,243,kahon,,,,,5,harmonic,1.85,nw,z,,,,,,,
,,,,,,,,,,,levent,001,2023-11-07_16h32.41.460,vowel_harmony,2023.2.3,Win32,59.94485074,705.4078,706.4056,,,,,,,,,,,,,,,,,,,,,,,,,,706.4057,706.9384,z,1,0.502,,706.9384,706.9388,,0,323,323,255,1,256,yokın,,,,,5,harmonic,1.85,nw,z,,,,,,,
,,,,,,,,,,,levent,001,2023-11-07_16h32.41.460,vowel_harmony,2023.2.3,Win32,59.94485074,706.9397,707.9376,,,,,,,,,,,,,,,,,,,,,,,,,,707.9376,708.7204,m,1,0.7574,,708.7204,708.7208,,0,324,324,125,1,126,ikna,1276,57.9764,1173,0.1282,4,notharmonic,1.85,word,m,,,,,,,
,,,,,,,,,,,levent,001,2023-11-07_16h32.41.460,vowel_harmony,2023.2.3,Win32,59.94485074,708.7217,709.7195,,,,,,,,,,,,,,,,,,,,,,,,,,709.7195,710.4022,m,1,0.6508,,710.4023,710.4027,,0,325,325,95,1,96,takip,4996,226.9984,4651,0.5084,5,notharmonic,1.55,word,m,,,,,,,
,,,,,,,,,,,levent,001,2023-11-07_16h32.41.460,vowel_harmony,2023.2.3,Win32,59.94485074,710.4036,711.4013,,,,,,,,,,,,,,,,,,,,,,,,,,711.4013,712.2174,z,1,0.792,,712.2175,712.2178,,0,326,326,237,1,238,taşal,,,,,5,harmonic,1.8,nw,z,,,,,,,
,,,,,,,,,,,levent,001,2023-11-07_16h32.41.460,vowel_harmony,2023.2.3,Win32,59.94485074,712.2187,713.2164,,,,,,,,,,,,,,,,,,,,,,,,,,713.2165,713.7816,z,1,0.5391,,713.7816,713.7817,,0,327,327,248,1,249,şegim,,,,,5,harmonic,1.9,nw,z,,,,,,,
,,,,,,,,,,,levent,001,2023-11-07_16h32.41.460,vowel_harmony,2023.2.3,Win32,59.94485074,713.7821,714.7826,,,,,,,,,,,,,,,,,,,,,,,,,,714.7828,715.4481,m,1,0.6447,,715.4482,715.4484,,0,328,328,140,1,141,sahil,481,21.8547,443,0.0484,5,notharmonic,1.45,word,m,,,,,,,
,,,,,,,,,,,levent,001,2023-11-07_16h32.41.460,vowel_harmony,2023.2.3,Win32,59.94485074,715.4493,716.447,,,,,,,,,,,,,,,,,,,,,,,,,,716.4471,717.0132,m,1,0.5366,,717.0133,717.0137,,0,329,329,78,1,79,ulusal,1551,70.4713,1355,0.1481,6,harmonic,1.75,word,m,,,,,,,
,,,,,,,,,,,levent,001,2023-11-07_16h32.41.460,vowel_harmony,2023.2.3,Win32,59.94485074,717.0146,718.0118,,,,,,,,,,,,,,,,,,,,,,,,,,718.0119,718.5624,m,1,0.5369,,718.5626,718.5628,,0,330,330,112,1,113,sezon,2315,105.1844,1917,0.2096,5,notharmonic,1.8,word,m,,,,,,,
,,,,,,,,,,,levent,001,2023-11-07_16h32.41.460,vowel_harmony,2023.2.3,Win32,59.94485074,718.5636,719.5606,,,,,,,,,,,,,,,,,,,,,,,,,,719.5606,720.0773,m,1,0.4868,,720.0774,720.0778,,0,331,331,88,1,89,yalnız,5891,267.6637,5440,0.5947,6,harmonic,1.6,word,m,,,,,,,
,,,,,,,,,,,levent,001,2023-11-07_16h32.41.460,vowel_harmony,2023.2.3,Win32,59.94485074,720.0788,721.0764,,,,,,,,,,,,,,,,,,,,,,,,,,721.0767,721.526,m,1,0.4278,,721.526,721.5263,,0,332,332,105,1,106,sahip,10887,494.6621,9847,1.0765,5,notharmonic,1.25,word,m,,,,,,,
,,,,,,,,,,,levent,001,2023-11-07_16h32.41.460,vowel_harmony,2023.2.3,Win32,59.94485074,721.5271,722.5251,,,,,,,,,,,,,,,,,,,,,,,,,,722.5252,722.9915,m,1,0.4386,,722.9916,722.9919,,0,333,333,15,1,16,hayat,7922,359.9443,7314,0.7996,5,harmonic,1.9,word,m,,,,,,,
,,,,,,,,,,,levent,001,2023-11-07_16h32.41.460,vowel_harmony,2023.2.3,Win32,59.94485074,722.9927,723.9908,,,,,,,,,,,,,,,,,,,,,,,,,,723.9909,724.5235,m,1,0.5036,,724.5235,724.5238,,0,334,334,142,1,143,siyasi,2909,132.1734,2445,0.2673,6,notharmonic,1.8,word,m,,,,,,,
,,,,,,,,,,,levent,001,2023-11-07_16h32.41.460,vowel_harmony,2023.2.3,Win32,59.94485074,724.5248,725.5225,,,,,,,,,,,,,,,,,,,,,,,,,,725.5226,726.1723,m,1,0.6262,,726.1723,726.1726,,0,335,335,10,1,11,bardak,1728,78.5135,1569,0.1715,6,harmonic,1.6,word,m,,,,,,,
,,,,,,,,,,,levent,001,2023-11-07_16h32.41.460,vowel_harmony,2023.2.3,Win32,59.94485074,726.1736,727.1714,,,,,,,,,,,,,,,,,,,,,,,,,,727.1714,727.7373,z,1,0.531,,727.7374,727.7379,,0,336,336,218,1,219,tezöl,,,,,5,harmonic,2,nw,z,,,,,,,
,,,,,,,,,,,levent,001,2023-11-07_16h32.41.460,vowel_harmony,2023.2.3,Win32,59.94485074,727.7389,728.7367,,,,,,,,,,,,,,,,,,,,,,,,,,728.7367,729.2695,z,1,0.5076,,729.2695,729.2699,,0,337,337,273,1,274,nimal,,,,,5,notharmonic,1.9,nw,z,,,,,,,
,,,,,,,,,,,levent,001,2023-11-07_16h32.41.460,vowel_harmony,2023.2.3,Win32,59.94485074,729.2709,730.2686,,,,,,,,,,,,,,,,,,,,,,,,,,730.2687,731.0005,z,1,0.7041,,731.0005,731.0006,,0,338,338,301,1,302,mezak,,,,,5,notharmonic,1.8,nw,z,,,,,,,
,,,,,,,,,,,levent,001,2023-11-07_16h32.41.460,vowel_harmony,2023.2.3,Win32,59.94485074,731.0009,732.0006,,,,,,,,,,,,,,,,,,,,,,,,,,732.0007,732.4832,z,1,0.4578,,732.4834,732.4836,,0,339,339,305,1,306,tamü,,,,,4,notharmonic,1.75,nw,z,,,,,,,
,,,,,,,,,,,levent,001,2023-11-07_16h32.41.460,vowel_harmony,2023.2.3,Win32,59.94485074,732.4844,733.4824,,,,,,,,,,,,,,,,,,,,,,,,,,733.4824,734.2146,m,1,0.7041,,734.2146,734.2148,,0,340,340,3,1,4,minik,2916,132.4915,2594,0.2836,5,harmonic,1.6,word,m,,,,,,,
,,,,,,,,,,,levent,001,2023-11-07_16h32.41.460,vowel_harmony,2023.2.3,Win32,59.94485074,734.2153,735.2144,,,,,,,,,,,,,,,,,,,,,,,,,,735.2145,735.7136,z,1,0.4814,,735.7137,735.7139,,0,341,341,187,1,188,remrin,,,,,6,harmonic,1.9,nw,z,,,,,,,
,,,,,,,,,,,levent,001,2023-11-07_16h32.41.460,vowel_harmony,2023.2.3,Win32,59.94485074,735.7143,736.7129,,,,,,,,,,,,,,,,,,,,,,,,,,736.713,737.2962,m,1,0.5493,,737.2962,737.2965,,0,342,342,27,1,28,bölge,1283,58.2944,1123,0.1228,5,harmonic,1.65,word,m,,,,,,,
,,,,,,,,,,,levent,001,2023-11-07_16h32.41.460,vowel_harmony,2023.2.3,Win32,59.94485074,737.2974,738.295,,,,,,,,,,,,,,,,,,,,,,,,,,738.2951,738.9106,m,1,0.5881,,738.9107,738.9109,,0,343,343,135,1,136,hafif,3355,152.4379,3101,0.339,5,notharmonic,1.75,word,m,,,,,,,
,,,,,,,,,,,levent,001,2023-11-07_16h32.41.460,vowel_harmony,2023.2.3,Win32,59.94485074,738.9115,739.9105,,,,,,,,,,,,,,,,,,,,,,,,,,739.9106,740.4428,m,1,0.5016,,740.4428,740.443,,0,344,344,21,1,22,duygu,1877,85.2834,1760,0.1924,5,harmonic,1.8,word,m,,,,,,,
,,,,,,,,,,,levent,001,2023-11-07_16h32.41.460,vowel_harmony,2023.2.3,Win32,59.94485074,740.4435,741.4423,,,,,,,,,,,,,,,,,,,,,,,,,,741.4424,741.942,m,1,0.4804,,741.942,741.9424,,0,345,345,169,1,170,hikaye,1555,70.653,1405,0.1536,6,notharmonic,1.8,word,m,,,,,,,
,,,,,,,,,,,levent,001,2023-11-07_16h32.41.460,vowel_harmony,2023.2.3,Win32,59.94485074,741.9432,742.941,,,,,,,,,,,,,,,,,,,,,,,,,,742.9411,743.5572,z,1,0.5841,,743.5573,743.5577,,0,346,346,259,1,260,hayuk,,,,,5,harmonic,1.95,nw,z,,,,,,,
,,,,,,,,,,,levent,001,2023-11-07_16h32.41.460,vowel_harmony,2023.2.3,Win32,59.94485074,743.5587,744.5564,,,,,,,,,,,,,,,,,,,,,,,,,,744.5565,745.1393,m,1,0.5611,,745.1394,745.1398,,0,347,347,18,1,19,normal,4154,188.7413,3788,0.4141,6,harmonic,1.75,word,m,,,,,,,
,,,,,,,,,,,levent,001,2023-11-07_16h32.41.460,vowel_harmony,2023.2.3,Win32,59.94485074,745.1408,746.1382,,,,,,,,,,,,,,,,,,,,,,,,,,746.1383,746.6714,z,1,0.4987,,746.6715,746.672,,0,348,348,211,1,212,yarum,,,,,5,harmonic,1.75,nw,z,,,,,,,
,,,,,,,,,,,levent,001,2023-11-07_16h32.41.460,vowel_harmony,2023.2.3,Win32,59.94485074,746.6729,747.6705,,,,,,,,,,,,,,,,,,,,,,,,,,747.6706,748.1701,z,1,0.4792,,748.1702,748.1706,,0,349,349,181,1,182,rapkı,,,,,5,harmonic,1.85,nw,z,,,,,,,
,,,,,,,,,,,levent,001,2023-11-07_16h32.41.460,vowel_harmony,2023.2.3,Win32,59.94485074,748.1715,749.1692,,,,,,,,,,,,,,,,,,,,,,,,,,749.1692,749.7187,z,1,0.5139,,749.7188,749.7191,,0,350,350,274,1,275,pisan,,,,,5,notharmonic,1.75,nw,z,,,,,,,
,,,,,,,,,,,levent,001,2023-11-07_16h32.41.460,vowel_harmony,2023.2.3,Win32,59.94485074,749.72,750.7179,,,,,,,,,,,,,,,,,,,,,,,,,,750.7179,751.3008,m,1,0.5563,,751.301,751.3013,,0,351,351,175,1,176,aile,3655,166.0687,3126,0.3417,4,notharmonic,1,word,m,,,,,,,
,,,,,,,,,,,levent,001,2023-11-07_16h32.41.460,vowel_harmony,2023.2.3,Win32,59.94485074,751.3022,752.2999,,,,,,,,,,,,,,,,,,,,,,,,,,752.2999,752.8155,m,1,0.4819,,752.8156,752.8158,,0,352,352,14,1,15,yaşam,4348,197.5559,3918,0.4283,5,harmonic,1.4,word,m,,,,,,,
,,,,,,,,,,,levent,001,2023-11-07_16h32.41.460,vowel_harmony,2023.2.3,Win32,59.94485074,752.8163,753.8154,,,,,,,,,,,,,,,,,,,,,,,,,,753.8154,754.3316,m,1,0.4976,,754.3317,754.3322,,0,353,353,157,1,158,aktif,1062,48.2531,986,0.1078,5,notharmonic,1.9,word,m,,,,,,,
,,,,,,,,,,,levent,001,2023-11-07_16h32.41.460,vowel_harmony,2023.2.3,Win32,59.94485074,754.3331,755.3306,,,,,,,,,,,,,,,,,,,,,,,,,,755.3306,755.8968,m,0,0.5331,,755.8968,755.8971,,0,354,354,271,1,272,mimal,,,,,5,notharmonic,1.8,nw,z,,,,,,,
,,,,,,,,,,,levent,001,2023-11-07_16h32.41.460,vowel_harmony,2023.2.3,Win32,59.94485074,755.8982,756.8959,,,,,,,,,,,,,,,,,,,,,,,,,,756.896,757.4954,z,1,0.5734,,757.4955,757.496,,0,355,355,304,1,305,annö,,,,,4,notharmonic,1.95,nw,z,,,,,,,
,,,,,,,,,,,levent,001,2023-11-07_16h32.41.460,vowel_harmony,2023.2.3,Win32,59.94485074,757.4968,758.4945,,,,,,,,,,,,,,,,,,,,,,,,,,758.4945,759.1607,z,1,0.6317,,759.1607,759.161,,0,356,356,287,1,288,haköm,,,,,5,notharmonic,1.9,nw,z,,,,,,,
,,,,,,,,,,,levent,001,2023-11-07_16h32.41.460,vowel_harmony,2023.2.3,Win32,59.94485074,759.1619,760.1601,,,,,,,,,,,,,,,,,,,,,,,,,,760.1601,760.7762,m,1,0.594,,760.7762,760.7765,,0,357,357,161,1,162,komik,1617,73.4701,1506,0.1646,5,notharmonic,1.75,word,m,,,,,,,
,,,,,,,,,,,levent,001,2023-11-07_16h32.41.460,vowel_harmony,2023.2.3,Win32,59.94485074,760.7776,761.7752,,,,,,,,,,,,,,,,,,,,,,,,,,761.7753,762.3746,m,1,0.564,,762.3747,762.375,,0,358,358,167,1,168,adalet,1611,73.1975,1388,0.1517,6,notharmonic,1.65,word,m,,,,,,,
,,,,,,,,,,,levent,001,2023-11-07_16h32.41.460,vowel_harmony,2023.2.3,Win32,59.94485074,762.3759,763.3728,,,,,,,,,,,,,,,,,,,,,,,,,,763.3729,763.9397,z,1,0.5525,,763.9398,763.9399,,0,359,359,292,1,293,kinam,,,,,5,notharmonic,1.85,nw,z,,,,,,,
,,,,,,,,,,,levent,001,2023-11-07_16h32.41.460,vowel_harmony,2023.2.3,Win32,59.94485074,,,,,,,,,,,,,,,,,,,,,,,,,,,,,,,,,,,,,,,,,,,,,,,,,,,,,,,763.9414,765.9226,space,1.9537,