Welcome_screen.started,Welcome_screen.stopped,key_respwelcome.keys,key_respwelcome.rt,key_respwelcome.duration,intro_x.thisRepN,intro_x.thisTrialN,intro_x.thisN,intro_x.thisIndex,intro_x.ran,Introduction,participant,session,date,expName,psychopyVersion,OS,frameRate,Fixation.started,Fixation.stopped,Studypractice.started,Studypractice.stopped,key_respstudy.keys,key_respstudy.corr,key_respstudy.rt,key_respstudy.duration,rt,corr,Feedback.started,Feedback.stopped,practice_loop.thisRepN,practice_loop.thisTrialN,practice_loop.thisN,practice_loop.thisIndex,practice_loop.ran,item_nr_p,target_p,isHarmonic_p,target_cond_p,CorrAns_p,Instraction.started,Instraction.stopped,key_respınstraction.keys,key_respınstraction.rt,key_respınstraction.duration,TestTrial.started,TestTrial.stopped,key_respTest.keys,key_respTest.corr,key_respTest.rt,key_respTest.duration,Pause.started,Pause.stopped,key_resp_xx.keys,test_loop.thisRepN,test_loop.thisTrialN,test_loop.thisN,test_loop.thisIndex,test_loop.ran,item_nr,target,BlogFreq_A1,BlogFreqpm_A1,BlogCD_A1,BlogCDPc_A1,WordLength_A1,isHarmonic_A1,old20,target_cond,CorrAns,key_resp_xx.rt,key_resp_xx.duration,Goodbye_screen.started,Goodbye_screen.stopped,key_respgoodbye.keys,key_respgoodbye.rt,key_respgoodbye.duration
0.034,1.91,space,1.8529,,0,0,0,0,1,"Deneye hoş geldiniz,

Devam etmek için BOŞLUK tuşuna basınız.",,001,2023-11-07_15h54.24.300,vowel_harmony,2023.2.3,Win32,60.18295619,,,,,,,,,,,,,,,,,,,,,,,,,,,,,,,,,,,,,,,,,,,,,,,,,,,,,,,,,,,
1.9108,9.5731,space,7.6374,,0,1,1,1,1,"Bu çalışma Valencia Üniversitesi kapsamında yürütülmektedir. Deneydeki göreviniz, ekrana çıkacak Türkçe sözcüklerin kelime olup olmadığını belirlemenizdir. Eğer sözcük gerçek bir kelime ise ""m"" tuşuna, değil ise ""z"" tuşuna basınız.   

Devam etmek için BOŞLUK tuşuna basınız.",,001,2023-11-07_15h54.24.300,vowel_harmony,2023.2.3,Win32,60.18295619,,,,,,,,,,,,,,,,,,,,,,,,,,,,,,,,,,,,,,,,,,,,,,,,,,,,,,,,,,,
9.5734,16.3207,space,6.7304,,0,2,2,2,1,"Her sözcük için en fazla iki saniyede cevap vermeniz beklenmektedir. Aksi takdirde deney bir sonraki sözcük ile devam eder. 
Bu çalışmada oldukça hızlı ve doğru cevaplama yapmanız beklenmektedir.

Devam etmek için BOŞLUK tuşuna basınız.",,001,2023-11-07_15h54.24.300,vowel_harmony,2023.2.3,Win32,60.18295619,,,,,,,,,,,,,,,,,,,,,,,,,,,,,,,,,,,,,,,,,,,,,,,,,,,,,,,,,,,
16.3224,23.1057,space,6.7602,,0,3,3,3,1,"Çalışmaya başlamadan önce ufak bir pratik yer almaktadır.
Kelimedir: ""m""
Kelime değildir: ""z""

Pratik teste başlamak için BOŞLUK tuşuna basınız. ",,001,2023-11-07_15h54.24.300,vowel_harmony,2023.2.3,Win32,60.18295619,,,,,,,,,,,,,,,,,,,,,,,,,,,,,,,,,,,,,,,,,,,,,,,,,,,,,,,,,,,
,,,,,,,,,,,,001,2023-11-07_15h54.24.300,vowel_harmony,2023.2.3,Win32,60.18295619,23.1181,24.1163,24.1164,25.3137,m,1,1.1701,,1.1701,1,25.314,26.8098,0,0,0,1,1,2,veri,harmonic,word,m,,,,,,,,,,,,,,,,,,,,,,,,,,,,,,,,,,,,,
,,,,,,,,,,,,001,2023-11-07_15h54.24.300,vowel_harmony,2023.2.3,Win32,60.18295619,26.8103,27.8066,27.8066,28.7046,m,1,0.8808,,0.8808,1,28.7048,30.2001,0,1,1,5,1,6,bahçe,notharmonic,word,m,,,,,,,,,,,,,,,,,,,,,,,,,,,,,,,,,,,,,
,,,,,,,,,,,,001,2023-11-07_15h54.24.300,vowel_harmony,2023.2.3,Win32,60.18295619,30.2004,31.198,31.1981,31.9955,z,1,0.7813,,0.7813,1,31.9956,33.4916,0,2,2,15,1,16,mımal,harmonic,nw,z,,,,,,,,,,,,,,,,,,,,,,,,,,,,,,,,,,,,,
,,,,,,,,,,,,001,2023-11-07_15h54.24.300,vowel_harmony,2023.2.3,Win32,60.18295619,33.4919,34.489,34.4892,35.0706,m,1,0.5651,,0.5651,1,35.0706,36.5669,0,3,3,0,1,1,ihale,notharmonic,word,m,,,,,,,,,,,,,,,,,,,,,,,,,,,,,,,,,,,,,
,,,,,,,,,,,,001,2023-11-07_15h54.24.300,vowel_harmony,2023.2.3,Win32,60.18295619,36.5672,37.5633,37.5634,38.3786,z,1,0.8026,,0.8026,1,38.3787,39.8738,0,4,4,11,1,12,geki,harmonic,nw,z,,,,,,,,,,,,,,,,,,,,,,,,,,,,,,,,,,,,,
,,,,,,,,,,,,001,2023-11-07_15h54.24.300,vowel_harmony,2023.2.3,Win32,60.18295619,39.8741,40.8713,40.8713,41.7527,m,1,0.863,,0.863,1,41.7528,43.2485,0,5,5,3,1,4,ihlal,notharmonic,word,m,,,,,,,,,,,,,,,,,,,,,,,,,,,,,,,,,,,,,
,,,,,,,,,,,,001,2023-11-07_15h54.24.300,vowel_harmony,2023.2.3,Win32,60.18295619,43.2488,44.2459,44.246,44.8273,m,1,0.5704,,0.5704,1,44.8274,46.3235,0,6,6,4,1,5,mimar,notharmonic,word,m,,,,,,,,,,,,,,,,,,,,,,,,,,,,,,,,,,,,,
,,,,,,,,,,,,001,2023-11-07_15h54.24.300,vowel_harmony,2023.2.3,Win32,60.18295619,46.3238,47.3208,47.3208,47.8024,m,0,0.4723,,0.4723,0,47.8024,49.2987,0,7,7,8,1,9,tahip,notharmonic,nw,z,,,,,,,,,,,,,,,,,,,,,,,,,,,,,,,,,,,,,
,,,,,,,,,,,,001,2023-11-07_15h54.24.300,vowel_harmony,2023.2.3,Win32,60.18295619,49.2989,50.2965,50.2965,50.994,m,1,0.685,,0.685,1,50.9941,52.49,0,8,8,7,1,8,oran,harmonic,word,m,,,,,,,,,,,,,,,,,,,,,,,,,,,,,,,,,,,,,
,,,,,,,,,,,,001,2023-11-07_15h54.24.300,vowel_harmony,2023.2.3,Win32,60.18295619,52.4904,53.4874,53.4875,54.0351,z,0,0.5347,,0.5347,0,54.036,55.5312,0,9,9,6,1,7,pilot,notharmonic,word,m,,,,,,,,,,,,,,,,,,,,,,,,,,,,,,,,,,,,,
,,,,,,,,,,,,001,2023-11-07_15h54.24.300,vowel_harmony,2023.2.3,Win32,60.18295619,55.5316,56.5296,56.5296,57.427,z,1,0.8826,,0.8826,1,57.427,58.9231,0,10,10,10,1,11,mahne,notharmonic,nw,z,,,,,,,,,,,,,,,,,,,,,,,,,,,,,,,,,,,,,
,,,,,,,,,,,,001,2023-11-07_15h54.24.300,vowel_harmony,2023.2.3,Win32,60.18295619,58.9234,59.9194,59.9194,60.5682,m,1,0.6307,,0.6307,1,60.5682,62.0631,0,11,11,2,1,3,memur,notharmonic,word,m,,,,,,,,,,,,,,,,,,,,,,,,,,,,,,,,,,,,,
,,,,,,,,,,,,001,2023-11-07_15h54.24.300,vowel_harmony,2023.2.3,Win32,60.18295619,62.0634,63.0617,63.0617,63.8589,z,1,0.7808,,0.7808,1,63.8589,65.355,0,12,12,13,1,14,pilar,notharmonic,nw,z,,,,,,,,,,,,,,,,,,,,,,,,,,,,,,,,,,,,,
,,,,,,,,,,,,001,2023-11-07_15h54.24.300,vowel_harmony,2023.2.3,Win32,60.18295619,65.3553,66.3526,66.3526,67.2995,z,1,0.938,,0.938,1,67.2995,68.7952,0,13,13,12,1,13,ihlot,notharmonic,nw,z,,,,,,,,,,,,,,,,,,,,,,,,,,,,,,,,,,,,,
,,,,,,,,,,,,001,2023-11-07_15h54.24.300,vowel_harmony,2023.2.3,Win32,60.18295619,68.7956,69.7929,69.7929,70.4911,z,1,0.6877,,0.6877,1,70.4911,71.9874,0,14,14,9,1,10,orat,harmonic,nw,z,,,,,,,,,,,,,,,,,,,,,,,,,,,,,,,,,,,,,
,,,,,,,,,,,,001,2023-11-07_15h54.24.300,vowel_harmony,2023.2.3,Win32,60.18295619,71.9876,72.9846,72.9847,73.6832,z,1,0.6815,,0.6815,1,73.6833,75.1783,0,15,15,14,1,15,pimer,harmonic,nw,z,,,,,,,,,,,,,,,,,,,,,,,,,,,,,,,,,,,,,
,,,,,,,,,,,,001,2023-11-07_15h54.24.300,vowel_harmony,2023.2.3,Win32,60.18295619,,,,,,,,,,,,,,,,,,,,,,,75.1789,82.2106,space,7.0091,,,,,,,,,,,,,,,,,,,,,,,,,,,,,,,,,
,,,,,,,,,,,,001,2023-11-07_15h54.24.300,vowel_harmony,2023.2.3,Win32,60.18295619,82.2672,83.2234,,,,,,,,,,,,,,,,,,,,,,,,,,83.2238,83.9879,z,1,0.738,,83.9881,83.9895,,0,0,0,221,1,222,yaypın,,,,,6,harmonic,1.75,nw,z,,,,,,,
,,,,,,,,,,,,001,2023-11-07_15h54.24.300,vowel_harmony,2023.2.3,Win32,60.18295619,83.9898,84.985,,,,,,,,,,,,,,,,,,,,,,,,,,84.9851,85.6997,m,1,0.6809,,85.6998,85.6999,,0,1,1,23,1,24,kurum,986,44.7999,882,0.0964,5,harmonic,1.75,word,m,,,,,,,
,,,,,,,,,,,,001,2023-11-07_15h54.24.300,vowel_harmony,2023.2.3,Win32,60.18295619,85.7002,86.6972,,,,,,,,,,,,,,,,,,,,,,,,,,86.6972,87.4286,m,1,0.6989,,87.4286,87.4287,,0,2,2,44,1,45,kayıt,1234,56.0681,1058,0.1157,5,harmonic,1.35,word,m,,,,,,,
,,,,,,,,,,,,001,2023-11-07_15h54.24.300,vowel_harmony,2023.2.3,Win32,60.18295619,87.429,88.4258,,,,,,,,,,,,,,,,,,,,,,,,,,88.4259,89.0076,m,1,0.5489,,89.0076,89.0078,,0,3,3,7,1,8,hizmet,3023,137.3531,2689,0.294,6,harmonic,1.75,word,m,,,,,,,
,,,,,,,,,,,,001,2023-11-07_15h54.24.300,vowel_harmony,2023.2.3,Win32,60.18295619,89.0081,90.0049,,,,,,,,,,,,,,,,,,,,,,,,,,90.005,90.743,z,1,0.7155,,90.743,90.7431,,0,4,4,195,1,196,netüm,,,,,5,harmonic,1.95,nw,z,,,,,,,
,,,,,,,,,,,,001,2023-11-07_15h54.24.300,vowel_harmony,2023.2.3,Win32,60.18295619,90.7434,91.7335,,,,,,,,,,,,,,,,,,,,,,,,,,91.7336,92.4815,z,1,0.717,,92.4816,92.4816,,0,5,5,232,1,233,kanur,,,,,5,harmonic,1.7,nw,z,,,,,,,
,,,,,,,,,,,,001,2023-11-07_15h54.24.300,vowel_harmony,2023.2.3,Win32,60.18295619,92.482,93.4783,,,,,,,,,,,,,,,,,,,,,,,,,,93.4783,94.1437,m,1,0.6318,,94.1437,94.1438,,0,6,6,153,1,154,inşaat,432,19.6284,376,0.0411,6,notharmonic,1.6,word,m,,,,,,,
,,,,,,,,,,,,001,2023-11-07_15h54.24.300,vowel_harmony,2023.2.3,Win32,60.18295619,94.1442,95.1411,,,,,,,,,,,,,,,,,,,,,,,,,,95.1411,95.8227,z,1,0.6514,,95.8227,95.8229,,0,7,7,327,1,328,parkeş,,,,,6,notharmonic,1.9,nw,z,,,,,,,
,,,,,,,,,,,,001,2023-11-07_15h54.24.300,vowel_harmony,2023.2.3,Win32,60.18295619,95.8232,96.8198,,,,,,,,,,,,,,,,,,,,,,,,,,96.82,97.4515,m,1,0.6025,,97.4515,97.4516,,0,8,8,12,1,13,konu,5400,245.3546,5110,0.5586,4,harmonic,1,word,m,,,,,,,
,,,,,,,,,,,,001,2023-11-07_15h54.24.300,vowel_harmony,2023.2.3,Win32,60.18295619,97.4519,98.4485,,,,,,,,,,,,,,,,,,,,,,,,,,98.4486,98.9806,m,1,0.5003,,98.9806,98.9807,,0,9,9,16,1,17,yavaş,5087,231.1331,2886,0.3155,5,harmonic,1.6,word,m,,,,,,,
,,,,,,,,,,,,001,2023-11-07_15h54.24.300,vowel_harmony,2023.2.3,Win32,60.18295619,98.981,99.9806,,,,,,,,,,,,,,,,,,,,,,,,,,99.9806,100.6592,z,1,0.6539,,100.6592,100.6593,,0,10,10,199,1,200,movu,,,,,4,harmonic,1.9,nw,z,,,,,,,
,,,,,,,,,,,,001,2023-11-07_15h54.24.300,vowel_harmony,2023.2.3,Win32,60.18295619,100.6596,101.6566,,,,,,,,,,,,,,,,,,,,,,,,,,101.6567,102.2284,m,1,0.549,,102.2285,102.2286,,0,11,11,39,1,40,yaygın,1061,48.2076,1019,0.1114,6,harmonic,1.35,word,m,,,,,,,
,,,,,,,,,,,,001,2023-11-07_15h54.24.300,vowel_harmony,2023.2.3,Win32,60.18295619,102.2291,103.2187,,,,,,,,,,,,,,,,,,,,,,,,,,103.2187,103.9009,m,1,0.6535,,103.9009,103.9011,,0,12,12,81,1,82,üretim,1593,72.3796,1283,0.1403,6,harmonic,1.6,word,m,,,,,,,
,,,,,,,,,,,,001,2023-11-07_15h54.24.300,vowel_harmony,2023.2.3,Win32,60.18295619,103.9013,104.8978,,,,,,,,,,,,,,,,,,,,,,,,,,104.8978,105.5128,m,1,0.5858,,105.5128,105.5129,,0,13,13,88,1,89,yalnız,5891,267.6637,5440,0.5947,6,harmonic,1.6,word,m,,,,,,,
,,,,,,,,,,,,001,2023-11-07_15h54.24.300,vowel_harmony,2023.2.3,Win32,60.18295619,105.5131,106.5095,,,,,,,,,,,,,,,,,,,,,,,,,,106.5095,107.1915,m,1,0.6532,,107.1915,107.1917,,0,14,14,166,1,167,maden,402,18.2653,339,0.0371,5,notharmonic,1.45,word,m,,,,,,,
,,,,,,,,,,,,001,2023-11-07_15h54.24.300,vowel_harmony,2023.2.3,Win32,60.18295619,107.1919,108.1889,,,,,,,,,,,,,,,,,,,,,,,,,,108.1889,108.887,m,1,0.6688,,108.887,108.8871,,0,15,15,71,1,72,örnek,3463,157.345,3266,0.357,5,harmonic,1.85,word,m,,,,,,,
,,,,,,,,,,,,001,2023-11-07_15h54.24.300,vowel_harmony,2023.2.3,Win32,60.18295619,108.8874,109.8844,,,,,,,,,,,,,,,,,,,,,,,,,,109.8845,110.5658,z,1,0.6565,,110.5659,110.5659,,0,16,16,343,1,344,tarne,,,,,5,notharmonic,1.85,nw,z,,,,,,,
,,,,,,,,,,,,001,2023-11-07_15h54.24.300,vowel_harmony,2023.2.3,Win32,60.18295619,110.5663,111.5631,,,,,,,,,,,,,,,,,,,,,,,,,,111.5632,112.2611,z,1,0.6709,,112.2611,112.2613,,0,17,17,217,1,218,sanfız,,,,,6,harmonic,1.85,nw,z,,,,,,,
,,,,,,,,,,,,001,2023-11-07_15h54.24.300,vowel_harmony,2023.2.3,Win32,60.18295619,112.2616,113.2595,,,,,,,,,,,,,,,,,,,,,,,,,,113.2596,114.2059,z,1,0.9226,,114.2059,114.206,,0,18,18,213,1,214,kaun,,,,,4,harmonic,1.7,nw,z,,,,,,,
,,,,,,,,,,,,001,2023-11-07_15h54.24.300,vowel_harmony,2023.2.3,Win32,60.18295619,114.2063,115.2033,,,,,,,,,,,,,,,,,,,,,,,,,,115.2033,115.8848,z,1,0.6487,,115.8849,115.8849,,0,19,19,184,1,185,yapor,,,,,5,harmonic,1.9,nw,z,,,,,,,
,,,,,,,,,,,,001,2023-11-07_15h54.24.300,vowel_harmony,2023.2.3,Win32,60.18295619,115.8852,116.8822,,,,,,,,,,,,,,,,,,,,,,,,,,116.8823,117.5137,m,1,0.6022,,117.5138,117.5139,,0,20,20,158,1,159,klasik,1871,85.0108,1734,0.1896,6,notharmonic,2,word,m,,,,,,,
,,,,,,,,,,,,001,2023-11-07_15h54.24.300,vowel_harmony,2023.2.3,Win32,60.18295619,117.5142,118.5175,,,,,,,,,,,,,,,,,,,,,,,,,,118.5175,119.076,m,1,0.5362,,119.076,119.0762,,0,21,21,32,1,33,temel,4231,192.2399,3851,0.421,5,harmonic,1.55,word,m,,,,,,,
,,,,,,,,,,,,001,2023-11-07_15h54.24.300,vowel_harmony,2023.2.3,Win32,60.18295619,119.0765,120.0734,,,,,,,,,,,,,,,,,,,,,,,,,,120.0735,120.7048,z,1,0.5992,,120.7049,120.705,,0,22,22,350,1,351,resun,,,,,5,notharmonic,1.85,nw,z,,,,,,,
,,,,,,,,,,,,001,2023-11-07_15h54.24.300,vowel_harmony,2023.2.3,Win32,60.18295619,120.7054,121.7025,,,,,,,,,,,,,,,,,,,,,,,,,,121.7027,122.3203,z,1,0.5952,,122.3203,122.3204,,0,23,23,196,1,197,bilön,,,,,5,harmonic,1.9,nw,z,,,,,,,
,,,,,,,,,,,,001,2023-11-07_15h54.24.300,vowel_harmony,2023.2.3,Win32,60.18295619,122.3206,123.3146,,,,,,,,,,,,,,,,,,,,,,,,,,123.3147,123.8798,m,1,0.5373,,123.8799,123.88,,0,24,24,154,1,155,sakin,1855,84.2838,1635,0.1787,5,notharmonic,1.05,word,m,,,,,,,
,,,,,,,,,,,,001,2023-11-07_15h54.24.300,vowel_harmony,2023.2.3,Win32,60.18295619,123.8802,124.8771,,,,,,,,,,,,,,,,,,,,,,,,,,124.8771,125.6419,z,1,0.7377,,125.6419,125.6422,,0,25,25,353,1,354,ikno,,,,,4,notharmonic,1.95,nw,z,,,,,,,
,,,,,,,,,,,,001,2023-11-07_15h54.24.300,vowel_harmony,2023.2.3,Win32,60.18295619,125.6425,126.6391,,,,,,,,,,,,,,,,,,,,,,,,,,126.6392,127.387,z,1,0.7204,,127.387,127.3871,,0,26,26,180,1,181,ayaro,,,,,5,harmonic,1.8,nw,z,,,,,,,
,,,,,,,,,,,,001,2023-11-07_15h54.24.300,vowel_harmony,2023.2.3,Win32,60.18295619,127.3875,128.3844,,,,,,,,,,,,,,,,,,,,,,,,,,128.3844,129.4315,z,1,1.0164,,129.4316,129.4317,,0,27,27,218,1,219,tezöl,,,,,5,harmonic,2,nw,z,,,,,,,
,,,,,,,,,,,,001,2023-11-07_15h54.24.300,vowel_harmony,2023.2.3,Win32,60.18295619,129.432,130.4286,,,,,,,,,,,,,,,,,,,,,,,,,,130.4287,131.4259,z,1,0.9735,,131.426,131.4261,,0,28,28,296,1,297,işban,,,,,5,notharmonic,1.95,nw,z,,,,,,,
,,,,,,,,,,,,001,2023-11-07_15h54.24.300,vowel_harmony,2023.2.3,Win32,60.18295619,131.4264,132.4232,,,,,,,,,,,,,,,,,,,,,,,,,,132.4233,133.1216,m,1,0.6654,,133.1217,133.1217,,0,29,29,177,1,178,tekrar,10788,490.1639,9352,1.0224,6,notharmonic,1.85,word,m,,,,,,,
,,,,,,,,,,,,001,2023-11-07_15h54.24.300,vowel_harmony,2023.2.3,Win32,60.18295619,133.122,134.1189,,,,,,,,,,,,,,,,,,,,,,,,,,134.1189,134.8667,z,1,0.717,,134.8667,134.8668,,0,30,30,315,1,316,takep,,,,,5,notharmonic,1.85,nw,z,,,,,,,
,,,,,,,,,,,,001,2023-11-07_15h54.24.300,vowel_harmony,2023.2.3,Win32,60.18295619,134.8671,135.8639,,,,,,,,,,,,,,,,,,,,,,,,,,135.8639,136.6283,m,1,0.7318,,136.6283,136.6285,,0,31,31,106,1,107,esnaf,315,14.3124,284,0.031,5,notharmonic,1.55,word,m,,,,,,,
,,,,,,,,,,,,001,2023-11-07_15h54.24.300,vowel_harmony,2023.2.3,Win32,60.18295619,136.6288,137.6257,,,,,,,,,,,,,,,,,,,,,,,,,,137.6258,138.3075,z,1,0.6581,,138.3076,138.3078,,0,32,32,338,1,339,pardön,,,,,6,notharmonic,1.95,nw,z,,,,,,,
,,,,,,,,,,,,001,2023-11-07_15h54.24.300,vowel_harmony,2023.2.3,Win32,60.18295619,138.3081,139.3048,,,,,,,,,,,,,,,,,,,,,,,,,,139.3049,140.089,z,1,0.7617,,140.089,140.0891,,0,33,33,283,1,284,fahe,,,,,4,notharmonic,1.95,nw,z,,,,,,,
,,,,,,,,,,,,001,2023-11-07_15h54.24.300,vowel_harmony,2023.2.3,Win32,60.18295619,140.0892,141.0826,,,,,,,,,,,,,,,,,,,,,,,,,,141.0827,141.6816,m,1,0.5731,,141.6817,141.6817,,0,34,34,2,1,3,radyo,763,34.6677,636,0.0695,5,harmonic,1.85,word,m,,,,,,,
,,,,,,,,,,,,001,2023-11-07_15h54.24.300,vowel_harmony,2023.2.3,Win32,60.18295619,141.6822,142.6789,,,,,,,,,,,,,,,,,,,,,,,,,,142.679,143.3103,z,1,0.5989,,143.3103,143.3107,,0,35,35,305,1,306,tamü,,,,,4,notharmonic,1.75,nw,z,,,,,,,
,,,,,,,,,,,,001,2023-11-07_15h54.24.300,vowel_harmony,2023.2.3,Win32,60.18295619,143.3112,144.3081,,,,,,,,,,,,,,,,,,,,,,,,,,144.3082,145.0225,m,1,0.687,,145.0226,145.0227,,0,36,36,121,1,122,mesaj,1604,72.8794,1386,0.1515,5,notharmonic,1.8,word,m,,,,,,,
,,,,,,,,,,,,001,2023-11-07_15h54.24.300,vowel_harmony,2023.2.3,Win32,60.18295619,145.023,146.0199,,,,,,,,,,,,,,,,,,,,,,,,,,146.0199,146.7014,z,1,0.6487,,146.7014,146.7015,,0,37,37,297,1,298,sapet,,,,,5,notharmonic,1.85,nw,z,,,,,,,
,,,,,,,,,,,,001,2023-11-07_15h54.24.300,vowel_harmony,2023.2.3,Win32,60.18295619,146.7018,147.6987,,,,,,,,,,,,,,,,,,,,,,,,,,147.6987,148.4634,m,1,0.7319,,148.4635,148.4636,,0,38,38,155,1,156,ilaç,1366,62.0656,1215,0.1328,4,notharmonic,1.75,word,m,,,,,,,
,,,,,,,,,,,,001,2023-11-07_15h54.24.300,vowel_harmony,2023.2.3,Win32,60.18295619,148.4639,149.4606,,,,,,,,,,,,,,,,,,,,,,,,,,149.4607,150.0755,z,1,0.5861,,150.0755,150.0756,,0,39,39,263,1,264,duzur,,,,,5,harmonic,1.8,nw,z,,,,,,,
,,,,,,,,,,,,001,2023-11-07_15h54.24.300,vowel_harmony,2023.2.3,Win32,60.18295619,150.0759,151.079,,,,,,,,,,,,,,,,,,,,,,,,,,151.0791,151.6379,m,1,0.5323,,151.638,151.6381,,0,40,40,108,1,109,tarih,2806,127.4935,2483,0.2714,5,notharmonic,1.55,word,m,,,,,,,
,,,,,,,,,,,,001,2023-11-07_15h54.24.300,vowel_harmony,2023.2.3,Win32,60.18295619,151.6384,152.6353,,,,,,,,,,,,,,,,,,,,,,,,,,152.6353,153.1672,m,1,0.5069,,153.1672,153.1673,,0,41,41,174,1,175,bugün,13879,630.6067,12842,1.4039,5,notharmonic,1.85,word,m,,,,,,,
,,,,,,,,,,,,001,2023-11-07_15h54.24.300,vowel_harmony,2023.2.3,Win32,60.18295619,153.1677,154.1706,,,,,,,,,,,,,,,,,,,,,,,,,,154.1707,154.7126,m,1,0.5168,,154.7126,154.7127,,0,42,42,20,1,21,nefes,2871,130.4469,2553,0.2791,5,harmonic,1.8,word,m,,,,,,,
,,,,,,,,,,,,001,2023-11-07_15h54.24.300,vowel_harmony,2023.2.3,Win32,60.18295619,154.7129,155.7166,,,,,,,,,,,,,,,,,,,,,,,,,,155.7167,156.3086,m,1,0.5707,,156.3086,156.3088,,0,43,43,30,1,31,çevre,1662,75.5147,1409,0.154,5,harmonic,1.55,word,m,,,,,,,
,,,,,,,,,,,,001,2023-11-07_15h54.24.300,vowel_harmony,2023.2.3,Win32,60.18295619,156.3091,157.306,,,,,,,,,,,,,,,,,,,,,,,,,,157.306,158.5359,z,1,1.2037,,158.536,158.5361,,0,44,44,205,1,206,kahay,,,,,5,harmonic,1.9,nw,z,,,,,,,
,,,,,,,,,,,,001,2023-11-07_15h54.24.300,vowel_harmony,2023.2.3,Win32,60.18295619,158.5364,159.5333,,,,,,,,,,,,,,,,,,,,,,,,,,159.5333,160.2979,z,1,0.7319,,160.2979,160.298,,0,45,45,225,1,226,düvem,,,,,5,harmonic,1.7,nw,z,,,,,,,
,,,,,,,,,,,,001,2023-11-07_15h54.24.300,vowel_harmony,2023.2.3,Win32,60.18295619,160.2983,161.2953,,,,,,,,,,,,,,,,,,,,,,,,,,161.2954,162.1429,z,1,0.8211,,162.1429,162.143,,0,46,46,224,1,225,ertre,,,,,5,harmonic,1.95,nw,z,,,,,,,
,,,,,,,,,,,,001,2023-11-07_15h54.24.300,vowel_harmony,2023.2.3,Win32,60.18295619,162.1433,163.1404,,,,,,,,,,,,,,,,,,,,,,,,,,163.1405,163.8378,z,1,0.6675,,163.8379,163.8379,,0,47,47,341,1,342,işgan,,,,,5,notharmonic,1.95,nw,z,,,,,,,
,,,,,,,,,,,,001,2023-11-07_15h54.24.300,vowel_harmony,2023.2.3,Win32,60.18295619,163.8383,164.8356,,,,,,,,,,,,,,,,,,,,,,,,,,164.8357,165.4841,m,1,0.6202,,165.4842,165.4842,,0,48,48,47,1,48,kaza,740,33.6227,679,0.0742,4,harmonic,1.85,word,m,,,,,,,
,,,,,,,,,,,,001,2023-11-07_15h54.24.300,vowel_harmony,2023.2.3,Win32,60.18295619,165.4847,166.4812,,,,,,,,,,,,,,,,,,,,,,,,,,166.4812,167.2287,z,1,0.7151,,167.2288,167.2288,,0,49,49,321,1,322,makih,,,,,5,notharmonic,1.8,nw,z,,,,,,,
,,,,,,,,,,,,001,2023-11-07_15h54.24.300,vowel_harmony,2023.2.3,Win32,60.18295619,167.2292,168.2268,,,,,,,,,,,,,,,,,,,,,,,,,,168.2269,168.958,z,1,0.6988,,168.958,168.958,,0,50,50,295,1,296,haylin,,,,,6,notharmonic,1.8,nw,z,,,,,,,
,,,,,,,,,,,,001,2023-11-07_15h54.24.300,vowel_harmony,2023.2.3,Win32,60.18295619,168.9584,169.9552,,,,,,,,,,,,,,,,,,,,,,,,,,169.9552,170.7032,z,1,0.7151,,170.7033,170.7034,,0,51,51,258,1,259,karıha,,,,,6,harmonic,1.75,nw,z,,,,,,,
,,,,,,,,,,,,001,2023-11-07_15h54.24.300,vowel_harmony,2023.2.3,Win32,60.18295619,170.7038,171.7003,,,,,,,,,,,,,,,,,,,,,,,,,,171.7005,172.448,m,1,0.7155,,172.448,172.4481,,0,52,52,157,1,158,aktif,1062,48.2531,986,0.1078,5,notharmonic,1.9,word,m,,,,,,,
,,,,,,,,,,,,001,2023-11-07_15h54.24.300,vowel_harmony,2023.2.3,Win32,60.18295619,172.4485,173.4457,,,,,,,,,,,,,,,,,,,,,,,,,,173.4457,174.0439,m,1,0.5706,,174.0439,174.044,,0,53,53,0,1,1,sanat,3121,141.8059,2485,0.2717,5,harmonic,1.4,word,m,,,,,,,
,,,,,,,,,,,,001,2023-11-07_15h54.24.300,vowel_harmony,2023.2.3,Win32,60.18295619,174.0443,175.0408,,,,,,,,,,,,,,,,,,,,,,,,,,175.0409,176.0218,m,1,0.9478,,176.0219,176.0219,,0,54,54,24,1,25,yorgun,1153,52.3877,1108,0.1211,6,harmonic,1.55,word,m,,,,,,,
,,,,,,,,,,,,001,2023-11-07_15h54.24.300,vowel_harmony,2023.2.3,Win32,60.18295619,176.0223,177.0193,,,,,,,,,,,,,,,,,,,,,,,,,,177.0193,177.7341,z,1,0.6819,,177.7341,177.7342,,0,55,55,268,1,269,haldum,,,,,6,harmonic,2,nw,z,,,,,,,
,,,,,,,,,,,,001,2023-11-07_15h54.24.300,vowel_harmony,2023.2.3,Win32,60.18295619,177.7345,178.7316,,,,,,,,,,,,,,,,,,,,,,,,,,178.7316,179.5292,z,1,0.7702,,179.5293,179.5294,,0,56,56,240,1,241,hoga,,,,,4,harmonic,1.75,nw,z,,,,,,,
,,,,,,,,,,,,001,2023-11-07_15h54.24.300,vowel_harmony,2023.2.3,Win32,60.18295619,179.5297,180.5327,,,,,,,,,,,,,,,,,,,,,,,,,,180.5327,181.0652,m,1,0.5158,,181.0652,181.0653,,0,57,57,126,1,127,adet,4367,198.4192,3768,0.4119,4,notharmonic,1.4,word,m,,,,,,,
,,,,,,,,,,,,001,2023-11-07_15h54.24.300,vowel_harmony,2023.2.3,Win32,60.18295619,181.0655,182.0558,,,,,,,,,,,,,,,,,,,,,,,,,,182.0558,182.704,z,1,0.6155,,182.704,182.7042,,0,58,58,185,1,186,örtin,,,,,5,harmonic,1.9,nw,z,,,,,,,
,,,,,,,,,,,,001,2023-11-07_15h54.24.300,vowel_harmony,2023.2.3,Win32,60.18295619,182.7045,183.7012,,,,,,,,,,,,,,,,,,,,,,,,,,183.7013,184.4327,z,1,0.6988,,184.4327,184.4328,,0,59,59,326,1,327,ailo,,,,,4,notharmonic,1.75,nw,z,,,,,,,
,,,,,,,,,,,,001,2023-11-07_15h54.24.300,vowel_harmony,2023.2.3,Win32,60.18295619,184.4331,185.4296,,,,,,,,,,,,,,,,,,,,,,,,,,185.4296,186.1311,m,1,0.6774,,186.1311,186.1312,,0,60,60,25,1,26,rapor,703,31.9415,617,0.0675,5,harmonic,1.8,word,m,,,,,,,
,,,,,,,,,,,,001,2023-11-07_15h54.24.300,vowel_harmony,2023.2.3,Win32,60.18295619,186.1315,187.1251,,,,,,,,,,,,,,,,,,,,,,,,,,187.1252,187.6903,m,1,0.5413,,187.6904,187.6904,,0,61,61,168,1,169,kilo,3389,153.9827,2646,0.2893,4,notharmonic,1.65,word,m,,,,,,,
,,,,,,,,,,,,001,2023-11-07_15h54.24.300,vowel_harmony,2023.2.3,Win32,60.18295619,187.6907,188.6878,,,,,,,,,,,,,,,,,,,,,,,,,,188.6879,189.2694,m,1,0.5491,,189.2695,189.2695,,0,62,62,49,1,50,şeker,4708,213.9128,4170,0.4559,5,harmonic,1.6,word,m,,,,,,,
,,,,,,,,,,,,001,2023-11-07_15h54.24.300,vowel_harmony,2023.2.3,Win32,60.18295619,189.2699,190.2676,,,,,,,,,,,,,,,,,,,,,,,,,,190.2676,190.7885,m,1,0.4982,,190.7885,190.7886,,0,63,63,165,1,166,gazete,1402,63.7013,1270,0.1388,6,notharmonic,1.8,word,m,,,,,,,
,,,,,,,,,,,,001,2023-11-07_15h54.24.300,vowel_harmony,2023.2.3,Win32,60.18295619,190.7889,191.7794,,,,,,,,,,,,,,,,,,,,,,,,,,191.7794,192.3115,m,1,0.5034,,192.3116,192.3117,,0,64,64,26,1,27,sebze,1094,49.707,961,0.1051,5,harmonic,1.9,word,m,,,,,,,
,,,,,,,,,,,,001,2023-11-07_15h54.24.300,vowel_harmony,2023.2.3,Win32,60.18295619,192.3122,193.3084,,,,,,,,,,,,,,,,,,,,,,,,,,193.3084,193.9901,z,1,0.6488,,193.9902,193.9903,,0,65,65,182,1,183,orsın,,,,,5,harmonic,1.95,nw,z,,,,,,,
,,,,,,,,,,,,001,2023-11-07_15h54.24.300,vowel_harmony,2023.2.3,Win32,60.18295619,193.9906,194.9874,,,,,,,,,,,,,,,,,,,,,,,,,,194.9874,195.7352,z,1,0.7213,,195.7352,195.7353,,0,66,66,267,1,268,nokuma,,,,,6,harmonic,1.75,nw,z,,,,,,,
,,,,,,,,,,,,001,2023-11-07_15h54.24.300,vowel_harmony,2023.2.3,Win32,60.18295619,195.7356,196.7326,,,,,,,,,,,,,,,,,,,,,,,,,,196.7328,197.3476,m,1,0.5908,,197.3477,197.3478,,0,67,67,87,1,88,mümkün,6604,300.0596,6264,0.6848,6,harmonic,1.9,word,m,,,,,,,
,,,,,,,,,,,,001,2023-11-07_15h54.24.300,vowel_harmony,2023.2.3,Win32,60.18295619,197.348,198.3449,,,,,,,,,,,,,,,,,,,,,,,,,,198.345,198.9,m,1,0.5323,,198.9,198.9001,,0,68,68,31,1,32,fazla,18293,831.1614,16694,1.825,5,harmonic,1,word,m,,,,,,,
,,,,,,,,,,,,001,2023-11-07_15h54.24.300,vowel_harmony,2023.2.3,Win32,60.18295619,198.9003,199.8907,,,,,,,,,,,,,,,,,,,,,,,,,,199.8907,200.4559,m,1,0.5324,,200.456,200.456,,0,69,69,60,1,61,doğu,2105,95.6429,1823,0.1993,4,harmonic,1.05,word,m,,,,,,,
,,,,,,,,,,,,001,2023-11-07_15h54.24.300,vowel_harmony,2023.2.3,Win32,60.18295619,200.4563,201.4532,,,,,,,,,,,,,,,,,,,,,,,,,,201.4532,202.1015,z,1,0.6183,,202.1016,202.1016,,0,70,70,246,1,247,orkın,,,,,5,harmonic,1.9,nw,z,,,,,,,
,,,,,,,,,,,,001,2023-11-07_15h54.24.300,vowel_harmony,2023.2.3,Win32,60.18295619,202.1022,203.0982,,,,,,,,,,,,,,,,,,,,,,,,,,203.0983,203.9032,m,1,0.7813,,203.9033,203.9034,,0,71,71,94,1,95,final,876,39.802,778,0.0851,5,notharmonic,1,word,m,,,,,,,
,,,,,,,,,,,,001,2023-11-07_15h54.24.300,vowel_harmony,2023.2.3,Win32,60.18295619,203.9038,204.894,,,,,,,,,,,,,,,,,,,,,,,,,,204.894,205.4322,m,1,0.5156,,205.4324,205.4324,,0,72,72,129,1,130,tahmin,2353,106.911,2273,0.2485,6,notharmonic,1.6,word,m,,,,,,,
,,,,,,,,,,,,001,2023-11-07_15h54.24.300,vowel_harmony,2023.2.3,Win32,60.18295619,205.4327,206.4231,,,,,,,,,,,,,,,,,,,,,,,,,,206.4231,207.0112,m,1,0.5655,,207.0113,207.0113,,0,73,73,27,1,28,bölge,1283,58.2944,1123,0.1228,5,harmonic,1.65,word,m,,,,,,,
,,,,,,,,,,,,001,2023-11-07_15h54.24.300,vowel_harmony,2023.2.3,Win32,60.18295619,207.0116,208.0022,,,,,,,,,,,,,,,,,,,,,,,,,,208.0023,208.5844,m,1,0.5528,,208.5844,208.5847,,0,74,74,5,1,6,bebek,3301,149.9843,2794,0.3054,5,harmonic,1.6,word,m,,,,,,,
,,,,,,,,,,,,001,2023-11-07_15h54.24.300,vowel_harmony,2023.2.3,Win32,60.18295619,208.5853,209.5873,,,,,,,,,,,,,,,,,,,,,,,,,,209.5874,210.269,z,1,0.6652,,210.2691,210.2691,,0,75,75,235,1,236,oşup,,,,,4,harmonic,1.75,nw,z,,,,,,,
,,,,,,,,,,,,001,2023-11-07_15h54.24.300,vowel_harmony,2023.2.3,Win32,60.18295619,210.2694,211.26,,,,,,,,,,,,,,,,,,,,,,,,,,211.2601,211.8585,m,1,0.5655,,211.8585,211.8586,,0,76,76,77,1,78,ufak,3252,147.758,2980,0.3258,4,harmonic,1.5,word,m,,,,,,,
,,,,,,,,,,,,001,2023-11-07_15h54.24.300,vowel_harmony,2023.2.3,Win32,60.18295619,211.8588,212.8558,,,,,,,,,,,,,,,,,,,,,,,,,,212.8558,213.5531,z,1,0.6665,,213.5531,213.5532,,0,77,77,335,1,336,lilo,,,,,4,notharmonic,1.8,nw,z,,,,,,,
,,,,,,,,,,,,001,2023-11-07_15h54.24.300,vowel_harmony,2023.2.3,Win32,60.18295619,213.5534,214.5511,,,,,,,,,,,,,,,,,,,,,,,,,,214.5511,215.1162,m,1,0.5374,,215.1163,215.1164,,0,78,78,28,1,29,parlak,1142,51.888,1088,0.1189,6,harmonic,1.7,word,m,,,,,,,
,,,,,,,,,,,,001,2023-11-07_15h54.24.300,vowel_harmony,2023.2.3,Win32,60.18295619,215.1168,216.1136,,,,,,,,,,,,,,,,,,,,,,,,,,216.1137,216.7616,m,1,0.6224,,216.7617,216.7617,,0,79,79,45,1,46,bilgi,5981,271.7529,5353,0.5852,5,harmonic,1.5,word,m,,,,,,,
,,,,,,,,,,,,001,2023-11-07_15h54.24.300,vowel_harmony,2023.2.3,Win32,60.18295619,216.762,217.7591,,,,,,,,,,,,,,,,,,,,,,,,,,217.7592,218.424,m,1,0.6346,,218.424,218.4241,,0,80,80,55,1,56,akıl,2208,100.3228,2004,0.2191,4,harmonic,1,word,m,,,,,,,
,,,,,,,,,,,,001,2023-11-07_15h54.24.300,vowel_harmony,2023.2.3,Win32,60.18295619,218.4244,219.4214,,,,,,,,,,,,,,,,,,,,,,,,,,219.4215,219.9863,m,1,0.5375,,219.9864,219.9865,,0,81,81,22,1,23,anlam,1730,78.6043,1617,0.1768,5,harmonic,1.25,word,m,,,,,,,
,,,,,,,,,,,,001,2023-11-07_15h54.24.300,vowel_harmony,2023.2.3,Win32,60.18295619,219.9869,220.9836,,,,,,,,,,,,,,,,,,,,,,,,,,220.9837,221.6982,z,1,0.6821,,221.6982,221.6983,,0,82,82,316,1,317,misaf,,,,,5,notharmonic,1.85,nw,z,,,,,,,
,,,,,,,,,,,,001,2023-11-07_15h54.24.300,vowel_harmony,2023.2.3,Win32,60.18295619,221.6987,222.6954,,,,,,,,,,,,,,,,,,,,,,,,,,222.6954,223.36,z,1,0.6371,,223.36,223.3601,,0,83,83,188,1,189,tonık,,,,,5,harmonic,1.85,nw,z,,,,,,,
,,,,,,,,,,,,001,2023-11-07_15h54.24.300,vowel_harmony,2023.2.3,Win32,60.18295619,223.3604,224.358,,,,,,,,,,,,,,,,,,,,,,,,,,224.358,225.0227,z,1,0.6392,,225.0228,225.0229,,0,84,84,257,1,258,zerü,,,,,4,harmonic,1.8,nw,z,,,,,,,
,,,,,,,,,,,,001,2023-11-07_15h54.24.300,vowel_harmony,2023.2.3,Win32,60.18295619,225.0232,226.0201,,,,,,,,,,,,,,,,,,,,,,,,,,226.0201,226.5688,m,1,0.5194,,226.5688,226.5689,,0,85,85,134,1,135,iptal,793,36.0308,725,0.0793,5,notharmonic,1.35,word,m,,,,,,,
,,,,,,,,,,,,001,2023-11-07_15h54.24.300,vowel_harmony,2023.2.3,Win32,60.18295619,226.5693,227.5658,,,,,,,,,,,,,,,,,,,,,,,,,,227.5659,228.264,z,1,0.6653,,228.2641,228.2641,,0,86,86,265,1,266,parula,,,,,6,harmonic,1.75,nw,z,,,,,,,
,,,,,,,,,,,,001,2023-11-07_15h54.24.300,vowel_harmony,2023.2.3,Win32,60.18295619,228.2644,229.2613,,,,,,,,,,,,,,,,,,,,,,,,,,229.2613,229.9262,m,1,0.632,,229.9263,229.9263,,0,87,87,131,1,132,hakim,1677,76.1962,1559,0.1704,5,notharmonic,1,word,m,,,,,,,
,,,,,,,,,,,,001,2023-11-07_15h54.24.300,vowel_harmony,2023.2.3,Win32,60.18295619,229.9265,230.9298,,,,,,,,,,,,,,,,,,,,,,,,,,230.9298,231.5286,m,1,0.5826,,231.5286,231.5287,,0,88,88,110,1,111,rüya,1062,48.2531,937,0.1024,4,notharmonic,1.75,word,m,,,,,,,
,,,,,,,,,,,,001,2023-11-07_15h54.24.300,vowel_harmony,2023.2.3,Win32,60.18295619,231.529,232.5191,,,,,,,,,,,,,,,,,,,,,,,,,,232.5191,233.0843,m,1,0.5324,,233.0843,233.0843,,0,89,89,38,1,39,dönem,2820,128.1296,2437,0.2664,5,harmonic,1.4,word,m,,,,,,,
,,,,,,,,,,,,001,2023-11-07_15h54.24.300,vowel_harmony,2023.2.3,Win32,60.18295619,233.0846,234.0815,,,,,,,,,,,,,,,,,,,,,,,,,,234.0816,234.7464,z,1,0.6369,,234.7464,234.7466,,0,90,90,238,1,239,kocı,,,,,4,harmonic,1.95,nw,z,,,,,,,
,,,,,,,,,,,,001,2023-11-07_15h54.24.300,vowel_harmony,2023.2.3,Win32,60.18295619,234.7468,235.7438,,,,,,,,,,,,,,,,,,,,,,,,,,235.7439,236.2084,m,0,0.4385,,236.2084,236.2086,,0,91,91,245,1,246,bıyan,,,,,5,harmonic,1.7,nw,z,,,,,,,
,,,,,,,,,,,,001,2023-11-07_15h54.24.300,vowel_harmony,2023.2.3,Win32,60.18295619,236.2088,237.2058,,,,,,,,,,,,,,,,,,,,,,,,,,237.2059,237.9277,z,1,0.6985,,237.9277,237.9278,,0,92,92,215,1,216,aydo,,,,,4,harmonic,1.9,nw,z,,,,,,,
,,,,,,,,,,,,001,2023-11-07_15h54.24.300,vowel_harmony,2023.2.3,Win32,60.18295619,237.9281,238.9186,,,,,,,,,,,,,,,,,,,,,,,,,,238.9186,239.5004,m,1,0.5542,,239.5004,239.5005,,0,93,93,179,1,180,dakika,5891,267.6637,5207,0.5692,6,notharmonic,1.75,word,m,,,,,,,
,,,,,,,,,,,,001,2023-11-07_15h54.24.300,vowel_harmony,2023.2.3,Win32,60.18295619,239.5007,240.4977,,,,,,,,,,,,,,,,,,,,,,,,,,240.4977,241.0794,m,1,0.5537,,241.0794,241.0795,,0,94,94,161,1,162,komik,1617,73.4701,1506,0.1646,5,notharmonic,1.75,word,m,,,,,,,
,,,,,,,,,,,,001,2023-11-07_15h54.24.300,vowel_harmony,2023.2.3,Win32,60.18295619,241.0799,242.0769,,,,,,,,,,,,,,,,,,,,,,,,,,242.0769,242.7913,z,1,0.6874,,242.7913,242.7913,,0,95,95,198,1,199,yarbız,,,,,6,harmonic,1.95,nw,z,,,,,,,
,,,,,,,,,,,,001,2023-11-07_15h54.24.300,vowel_harmony,2023.2.3,Win32,60.18295619,242.7916,243.7884,,,,,,,,,,,,,,,,,,,,,,,,,,243.7884,244.9188,z,1,1.0997,,244.9189,244.919,,0,96,96,236,1,237,toklam,,,,,6,harmonic,1.85,nw,z,,,,,,,
,,,,,,,,,,,,001,2023-11-07_15h54.24.300,vowel_harmony,2023.2.3,Win32,60.18295619,244.9277,245.9162,,,,,,,,,,,,,,,,,,,,,,,,,,245.9162,246.5213,m,1,0.5825,,246.5213,246.5214,,0,97,97,82,1,83,aday,1028,46.7082,873,0.0954,4,harmonic,1.45,word,m,,,,,,,
,,,,,,,,,,,,001,2023-11-07_15h54.24.300,vowel_harmony,2023.2.3,Win32,60.18295619,246.5217,247.518,,,,,,,,,,,,,,,,,,,,,,,,,,247.518,248.0939,m,1,0.5497,,248.0939,248.094,,0,98,98,8,1,9,güven,1433,65.1098,1300,0.1421,5,harmonic,1.35,word,m,,,,,,,
,,,,,,,,,,,,001,2023-11-07_15h54.24.300,vowel_harmony,2023.2.3,Win32,60.18295619,248.0944,249.0972,,,,,,,,,,,,,,,,,,,,,,,,,,249.0973,249.912,z,1,0.7984,,249.912,249.9121,,0,99,99,333,1,334,heyran,,,,,6,notharmonic,1.85,nw,z,,,,,,,
,,,,,,,,,,,,001,2023-11-07_15h54.24.300,vowel_harmony,2023.2.3,Win32,60.18295619,249.9125,250.9026,,,,,,,,,,,,,,,,,,,,,,,,,,250.9026,251.7004,m,1,0.7681,,251.7005,251.7005,,0,100,100,169,1,170,hikaye,1555,70.653,1405,0.1536,6,notharmonic,1.8,word,m,,,,,,,
,,,,,,,,,,,,001,2023-11-07_15h54.24.300,vowel_harmony,2023.2.3,Win32,60.18295619,251.7009,252.6979,,,,,,,,,,,,,,,,,,,,,,,,,,252.6979,253.2131,m,1,0.4904,,253.2131,253.2132,,0,101,101,105,1,106,sahip,10887,494.6621,9847,1.0765,5,notharmonic,1.25,word,m,,,,,,,
,,,,,,,,,,,,001,2023-11-07_15h54.24.300,vowel_harmony,2023.2.3,Win32,60.18295619,253.2135,254.2105,,,,,,,,,,,,,,,,,,,,,,,,,,254.2105,254.845,z,1,0.6118,,254.845,254.845,,0,102,102,331,1,332,ehun,,,,,4,notharmonic,1.95,nw,z,,,,,,,
,,,,,,,,,,,,001,2023-11-07_15h54.24.300,vowel_harmony,2023.2.3,Win32,60.18295619,254.8453,255.8393,,,,,,,,,,,,,,,,,,,,,,,,,,255.8393,256.6538,z,1,0.7842,,256.6538,256.6539,,0,103,103,226,1,227,tefem,,,,,5,harmonic,1.75,nw,z,,,,,,,
,,,,,,,,,,,,001,2023-11-07_15h54.24.300,vowel_harmony,2023.2.3,Win32,60.18295619,256.6543,257.6505,,,,,,,,,,,,,,,,,,,,,,,,,,257.6505,258.7819,m,1,1.1074,,258.7819,258.7819,,0,104,104,70,1,71,yarın,3440,156.3,3222,0.3522,5,harmonic,1.85,word,m,,,,,,,
,,,,,,,,,,,,001,2023-11-07_15h54.24.300,vowel_harmony,2023.2.3,Win32,60.18295619,258.7824,259.7785,,,,,,,,,,,,,,,,,,,,,,,,,,259.7785,260.51,z,1,0.7009,,260.51,260.5101,,0,105,105,210,1,211,şevci,,,,,5,harmonic,1.75,nw,z,,,,,,,
,,,,,,,,,,,,001,2023-11-07_15h54.24.300,vowel_harmony,2023.2.3,Win32,60.18295619,260.5103,261.5076,,,,,,,,,,,,,,,,,,,,,,,,,,261.5076,262.5608,m,1,1.0305,,262.561,262.561,,0,106,106,119,1,120,kulüp,649,29.488,467,0.0511,5,notharmonic,1.4,word,m,,,,,,,
,,,,,,,,,,,,001,2023-11-07_15h54.24.300,vowel_harmony,2023.2.3,Win32,60.18295619,262.5613,263.5519,,,,,,,,,,,,,,,,,,,,,,,,,,263.5519,264.1669,z,1,0.5843,,264.1669,264.167,,0,107,107,231,1,232,norgun,,,,,6,harmonic,1.75,nw,z,,,,,,,
,,,,,,,,,,,,001,2023-11-07_15h54.24.300,vowel_harmony,2023.2.3,Win32,60.18295619,264.1673,265.1642,,,,,,,,,,,,,,,,,,,,,,,,,,265.1643,265.9019,m,1,0.7152,,265.902,265.9021,,0,108,108,95,1,96,takip,4996,226.9984,4651,0.5084,5,notharmonic,1.55,word,m,,,,,,,
,,,,,,,,,,,,001,2023-11-07_15h54.24.300,vowel_harmony,2023.2.3,Win32,60.18295619,265.9024,266.8994,,,,,,,,,,,,,,,,,,,,,,,,,,266.8994,267.461,m,1,0.5456,,267.461,267.4611,,0,109,109,72,1,73,çorba,1674,76.0599,1513,0.1654,5,harmonic,1.75,word,m,,,,,,,
,,,,,,,,,,,,001,2023-11-07_15h54.24.300,vowel_harmony,2023.2.3,Win32,60.18295619,267.4613,268.4554,,,,,,,,,,,,,,,,,,,,,,,,,,268.4555,269.1265,m,1,0.6486,,269.1266,269.1266,,0,110,110,79,1,80,durum,6783,308.1926,6431,0.703,5,harmonic,1.7,word,m,,,,,,,
,,,,,,,,,,,,001,2023-11-07_15h54.24.300,vowel_harmony,2023.2.3,Win32,60.18295619,269.1269,270.1174,,,,,,,,,,,,,,,,,,,,,,,,,,270.1174,271.6798,m,1,1.5297,,271.6798,271.6799,,0,111,111,117,1,118,nasip,1069,48.5711,1042,0.1139,5,notharmonic,1.8,word,m,,,,,,,
,,,,,,,,,,,,001,2023-11-07_15h54.24.300,vowel_harmony,2023.2.3,Win32,60.18295619,271.6802,272.677,,,,,,,,,,,,,,,,,,,,,,,,,,272.6771,273.2985,z,1,0.5987,,273.2985,273.2986,,0,112,112,287,1,288,haköm,,,,,5,notharmonic,1.9,nw,z,,,,,,,
,,,,,,,,,,,,001,2023-11-07_15h54.24.300,vowel_harmony,2023.2.3,Win32,60.18295619,273.2989,274.2891,,,,,,,,,,,,,,,,,,,,,,,,,,274.2892,274.8377,m,1,0.5237,,274.8377,274.8378,,0,113,113,128,1,129,tatil,2152,97.7783,1865,0.2039,5,notharmonic,1.7,word,m,,,,,,,
,,,,,,,,,,,,001,2023-11-07_15h54.24.300,vowel_harmony,2023.2.3,Win32,60.18295619,274.8381,275.8352,,,,,,,,,,,,,,,,,,,,,,,,,,275.8352,276.4169,m,1,0.558,,276.4169,276.4171,,0,114,114,138,1,139,kardeş,1270,57.7038,1174,0.1283,6,notharmonic,1.9,word,m,,,,,,,
,,,,,,,,,,,,001,2023-11-07_15h54.24.300,vowel_harmony,2023.2.3,Win32,60.18295619,276.4173,277.4142,,,,,,,,,,,,,,,,,,,,,,,,,,277.4142,278.0788,z,1,0.6323,,278.0788,278.0788,,0,115,115,233,1,234,devpi,,,,,5,harmonic,1.8,nw,z,,,,,,,
,,,,,,,,,,,,001,2023-11-07_15h54.24.300,vowel_harmony,2023.2.3,Win32,60.18295619,278.0791,279.0766,,,,,,,,,,,,,,,,,,,,,,,,,,279.0766,279.8078,z,1,0.7012,,279.8079,279.808,,0,116,116,324,1,325,pakeh,,,,,5,notharmonic,1.9,nw,z,,,,,,,
,,,,,,,,,,,,001,2023-11-07_15h54.24.300,vowel_harmony,2023.2.3,Win32,60.18295619,279.8083,280.8051,,,,,,,,,,,,,,,,,,,,,,,,,,280.8051,281.5262,m,1,0.6985,,281.5262,281.5264,,0,117,117,132,1,133,modern,2326,105.6842,2031,0.222,6,notharmonic,1.85,word,m,,,,,,,
,,,,,,,,,,,,001,2023-11-07_15h54.24.300,vowel_harmony,2023.2.3,Win32,60.18295619,281.5265,282.5172,,,,,,,,,,,,,,,,,,,,,,,,,,282.5172,283.2819,z,1,0.7336,,283.2819,283.282,,0,118,118,230,1,231,bikir,,,,,5,harmonic,1.75,nw,z,,,,,,,
,,,,,,,,,,,,001,2023-11-07_15h54.24.300,vowel_harmony,2023.2.3,Win32,60.18295619,283.2823,284.2791,,,,,,,,,,,,,,,,,,,,,,,,,,284.2791,284.9437,z,1,0.632,,284.9438,284.9439,,0,119,119,214,1,215,vecü,,,,,4,harmonic,1.95,nw,z,,,,,,,
,,,,,,,,,,,,001,2023-11-07_15h54.24.300,vowel_harmony,2023.2.3,Win32,60.18295619,284.9443,285.9412,,,,,,,,,,,,,,,,,,,,,,,,,,285.9412,286.5058,z,1,0.5399,,286.5059,311.8215,space,0,120,120,189,1,190,düvre,,,,,5,harmonic,1.85,nw,z,25.2819,,,,,,
,,,,,,,,,,,,001,2023-11-07_15h54.24.300,vowel_harmony,2023.2.3,Win32,60.18295619,311.8302,312.8185,,,,,,,,,,,,,,,,,,,,,,,,,,312.8186,313.583,m,1,0.736,,313.583,313.5831,,0,121,121,80,1,81,merkez,1445,65.6551,1255,0.1372,6,harmonic,1.8,word,m,,,,,,,
,,,,,,,,,,,,001,2023-11-07_15h54.24.300,vowel_harmony,2023.2.3,Win32,60.18295619,313.5834,314.5803,,,,,,,,,,,,,,,,,,,,,,,,,,314.5804,315.1456,m,1,0.5246,,315.1456,315.1456,,0,122,122,145,1,146,iddia,2430,110.4096,2295,0.2509,5,notharmonic,1.85,word,m,,,,,,,
,,,,,,,,,,,,001,2023-11-07_15h54.24.300,vowel_harmony,2023.2.3,Win32,60.18295619,315.1459,316.1429,,,,,,,,,,,,,,,,,,,,,,,,,,316.1429,316.8409,m,1,0.6617,,316.841,316.8411,,0,123,123,114,1,115,nisan,2321,105.457,2044,0.2235,5,notharmonic,1.6,word,m,,,,,,,
,,,,,,,,,,,,001,2023-11-07_15h54.24.300,vowel_harmony,2023.2.3,Win32,60.18295619,316.8414,317.8383,,,,,,,,,,,,,,,,,,,,,,,,,,317.8384,318.4529,m,1,0.5908,,318.4529,318.4531,,0,124,124,99,1,100,ilave,3173,144.1685,2619,0.2863,5,notharmonic,1.85,word,m,,,,,,,
,,,,,,,,,,,,001,2023-11-07_15h54.24.300,vowel_harmony,2023.2.3,Win32,60.18295619,318.4533,319.4503,,,,,,,,,,,,,,,,,,,,,,,,,,319.4503,320.1392,z,1,0.6656,,320.1393,320.1393,,0,125,125,211,1,212,yarum,,,,,5,harmonic,1.75,nw,z,,,,,,,
,,,,,,,,,,,,001,2023-11-07_15h54.24.300,vowel_harmony,2023.2.3,Win32,60.18295619,320.1397,321.1293,,,,,,,,,,,,,,,,,,,,,,,,,,321.1293,321.6446,m,1,0.492,,321.6446,321.6447,,0,126,126,141,1,142,madde,3793,172.3389,3389,0.3705,5,notharmonic,1.7,word,m,,,,,,,
,,,,,,,,,,,,001,2023-11-07_15h54.24.300,vowel_harmony,2023.2.3,Win32,60.18295619,321.6451,322.6413,,,,,,,,,,,,,,,,,,,,,,,,,,322.6414,323.2902,z,1,0.6227,,323.2902,323.2904,,0,127,127,284,1,285,deval,,,,,5,notharmonic,1.75,nw,z,,,,,,,
,,,,,,,,,,,,001,2023-11-07_15h54.24.300,vowel_harmony,2023.2.3,Win32,60.18295619,323.2906,324.2877,,,,,,,,,,,,,,,,,,,,,,,,,,324.2878,325.0689,m,1,0.7476,,325.069,325.0692,,0,128,128,43,1,44,geniş,3380,153.5738,3185,0.3482,5,harmonic,1.35,word,m,,,,,,,
,,,,,,,,,,,,001,2023-11-07_15h54.24.300,vowel_harmony,2023.2.3,Win32,60.18295619,325.0698,326.066,,,,,,,,,,,,,,,,,,,,,,,,,,326.066,326.6643,m,1,0.5741,,326.6644,326.6644,,0,129,129,130,1,131,hamile,1075,48.8437,877,0.0959,6,notharmonic,1.5,word,m,,,,,,,
,,,,,,,,,,,,001,2023-11-07_15h54.24.300,vowel_harmony,2023.2.3,Win32,60.18295619,326.6647,327.6618,,,,,,,,,,,,,,,,,,,,,,,,,,327.6619,328.2768,m,1,0.5818,,328.2768,328.2768,,0,130,130,135,1,136,hafif,3355,152.4379,3101,0.339,5,notharmonic,1.75,word,m,,,,,,,
,,,,,,,,,,,,001,2023-11-07_15h54.24.300,vowel_harmony,2023.2.3,Win32,60.18295619,328.2771,329.2801,,,,,,,,,,,,,,,,,,,,,,,,,,329.2801,329.8727,m,1,0.5657,,329.8728,329.8729,,0,131,131,160,1,161,hakem,603,27.3979,473,0.0517,5,notharmonic,1.3,word,m,,,,,,,
,,,,,,,,,,,,001,2023-11-07_15h54.24.300,vowel_harmony,2023.2.3,Win32,60.18295619,329.8736,330.8699,,,,,,,,,,,,,,,,,,,,,,,,,,330.8699,331.4908,z,1,0.5981,,331.4908,331.4909,,0,132,132,251,1,252,oştay,,,,,5,harmonic,1.95,nw,z,,,,,,,
,,,,,,,,,,,,001,2023-11-07_15h54.24.300,vowel_harmony,2023.2.3,Win32,60.18295619,331.4912,332.4821,,,,,,,,,,,,,,,,,,,,,,,,,,332.4822,332.9639,m,1,0.4491,,332.9639,332.964,,0,133,133,58,1,59,ayak,2143,97.3694,1931,0.2111,4,harmonic,1,word,m,,,,,,,
,,,,,,,,,,,,001,2023-11-07_15h54.24.300,vowel_harmony,2023.2.3,Win32,60.18295619,332.9644,333.9612,,,,,,,,,,,,,,,,,,,,,,,,,,333.9613,334.5826,m,0,0.5988,,334.5827,334.5827,,0,134,134,311,1,312,dedya,,,,,5,notharmonic,1.9,nw,z,,,,,,,
,,,,,,,,,,,,001,2023-11-07_15h54.24.300,vowel_harmony,2023.2.3,Win32,60.18295619,334.583,335.5735,,,,,,,,,,,,,,,,,,,,,,,,,,335.5736,336.222,z,1,0.6155,,336.2222,336.2222,,0,135,135,183,1,184,orkın,,,,,5,harmonic,1.9,nw,z,,,,,,,
,,,,,,,,,,,,001,2023-11-07_15h54.24.300,vowel_harmony,2023.2.3,Win32,60.18295619,336.2225,337.2189,,,,,,,,,,,,,,,,,,,,,,,,,,337.219,337.9172,z,1,0.6738,,337.9172,337.9172,,0,136,136,286,1,287,cedan,,,,,5,notharmonic,1.8,nw,z,,,,,,,
,,,,,,,,,,,,001,2023-11-07_15h54.24.300,vowel_harmony,2023.2.3,Win32,60.18295619,337.9176,338.9145,,,,,,,,,,,,,,,,,,,,,,,,,,338.9145,339.5128,m,1,0.5719,,339.5128,339.513,,0,137,137,101,1,102,imza,1358,61.7021,1253,0.137,4,notharmonic,1.65,word,m,,,,,,,
,,,,,,,,,,,,001,2023-11-07_15h54.24.300,vowel_harmony,2023.2.3,Win32,60.18295619,339.5133,340.5102,,,,,,,,,,,,,,,,,,,,,,,,,,340.5102,341.2084,m,1,0.6653,,341.2085,341.2085,,0,138,138,113,1,114,model,1200,54.5232,1082,0.1183,5,notharmonic,1.75,word,m,,,,,,,
,,,,,,,,,,,,001,2023-11-07_15h54.24.300,vowel_harmony,2023.2.3,Win32,60.18295619,341.2088,342.2056,,,,,,,,,,,,,,,,,,,,,,,,,,342.2056,342.8037,z,1,0.5656,,342.8037,342.8038,,0,139,139,247,1,248,hafgın,,,,,6,harmonic,2,nw,z,,,,,,,
,,,,,,,,,,,,001,2023-11-07_15h54.24.300,vowel_harmony,2023.2.3,Win32,60.18295619,342.8043,343.801,,,,,,,,,,,,,,,,,,,,,,,,,,343.801,345.0707,m,1,1.2467,,345.0707,345.0707,,0,140,140,6,1,7,hayal,4498,204.3713,4079,0.4459,5,harmonic,1.45,word,m,,,,,,,
,,,,,,,,,,,,001,2023-11-07_15h54.24.300,vowel_harmony,2023.2.3,Win32,60.18295619,345.071,346.0682,,,,,,,,,,,,,,,,,,,,,,,,,,346.0682,346.783,z,1,0.6986,,346.783,346.7832,,0,141,141,351,1,352,seğlık,,,,,6,notharmonic,1.9,nw,z,,,,,,,
,,,,,,,,,,,,001,2023-11-07_15h54.24.300,vowel_harmony,2023.2.3,Win32,60.18295619,346.7835,347.7734,,,,,,,,,,,,,,,,,,,,,,,,,,347.7735,348.3223,m,1,0.5211,,348.3223,348.3225,,0,142,142,146,1,147,mavi,2206,100.2319,1934,0.2114,4,notharmonic,1.45,word,m,,,,,,,
,,,,,,,,,,,,001,2023-11-07_15h54.24.300,vowel_harmony,2023.2.3,Win32,60.18295619,348.3227,349.3195,,,,,,,,,,,,,,,,,,,,,,,,,,349.3195,349.8682,m,1,0.5183,,349.8682,349.8683,,0,143,143,152,1,153,tedavi,1865,84.7382,1597,0.1746,6,notharmonic,1.8,word,m,,,,,,,
,,,,,,,,,,,,001,2023-11-07_15h54.24.300,vowel_harmony,2023.2.3,Win32,60.18295619,349.8686,350.872,,,,,,,,,,,,,,,,,,,,,,,,,,350.872,351.4641,z,1,0.5748,,351.4642,351.4643,,0,144,144,244,1,245,kaof,,,,,4,harmonic,1.9,nw,z,,,,,,,
,,,,,,,,,,,,001,2023-11-07_15h54.24.300,vowel_harmony,2023.2.3,Win32,60.18295619,351.4647,352.4614,,,,,,,,,,,,,,,,,,,,,,,,,,352.4614,353.2591,z,1,0.7722,,353.2591,353.2592,,0,145,145,277,1,278,balsin,,,,,6,notharmonic,1.85,nw,z,,,,,,,
,,,,,,,,,,,,001,2023-11-07_15h54.24.300,vowel_harmony,2023.2.3,Win32,60.18295619,353.2595,354.2564,,,,,,,,,,,,,,,,,,,,,,,,,,354.2564,354.8214,m,1,0.5323,,354.8215,354.8215,,0,146,146,136,1,137,beyaz,5517,250.6706,4788,0.5234,5,notharmonic,1.85,word,m,,,,,,,
,,,,,,,,,,,,001,2023-11-07_15h54.24.300,vowel_harmony,2023.2.3,Win32,60.18295619,354.8219,355.8188,,,,,,,,,,,,,,,,,,,,,,,,,,355.8189,356.4506,m,1,0.6001,,356.4506,356.4506,,0,147,147,35,1,36,hava,4975,226.0443,4398,0.4808,4,harmonic,1,word,m,,,,,,,
,,,,,,,,,,,,001,2023-11-07_15h54.24.300,vowel_harmony,2023.2.3,Win32,60.18295619,356.4512,357.4503,,,,,,,,,,,,,,,,,,,,,,,,,,357.4503,358.0023,m,1,0.532,,358.0023,358.0025,,0,148,148,84,1,85,ülke,3121,141.8059,2801,0.3062,4,harmonic,1.65,word,m,,,,,,,
,,,,,,,,,,,,001,2023-11-07_15h54.24.300,vowel_harmony,2023.2.3,Win32,60.18295619,358.0027,358.9935,,,,,,,,,,,,,,,,,,,,,,,,,,358.9935,359.7416,z,1,0.7151,,359.7416,359.7417,,0,149,149,359,1,360,kardez,,,,,6,notharmonic,1.95,nw,z,,,,,,,
,,,,,,,,,,,,001,2023-11-07_15h54.24.300,vowel_harmony,2023.2.3,Win32,60.18295619,359.7421,360.7388,,,,,,,,,,,,,,,,,,,,,,,,,,360.7388,361.4036,z,1,0.6351,,361.4036,361.4037,,0,150,150,291,1,292,mepan,,,,,5,notharmonic,1.75,nw,z,,,,,,,
,,,,,,,,,,,,001,2023-11-07_15h54.24.300,vowel_harmony,2023.2.3,Win32,60.18295619,361.404,362.4009,,,,,,,,,,,,,,,,,,,,,,,,,,362.4009,363.0057,m,1,0.5822,,363.0057,363.006,,0,151,151,124,1,125,ilan,1579,71.7435,1499,0.1639,4,notharmonic,1,word,m,,,,,,,
,,,,,,,,,,,,001,2023-11-07_15h54.24.300,vowel_harmony,2023.2.3,Win32,60.18295619,363.0064,363.9966,,,,,,,,,,,,,,,,,,,,,,,,,,363.9966,364.5845,z,1,0.5651,,364.5846,364.5846,,0,152,152,266,1,267,düştön,,,,,6,harmonic,1.9,nw,z,,,,,,,
,,,,,,,,,,,,001,2023-11-07_15h54.24.300,vowel_harmony,2023.2.3,Win32,60.18295619,364.5849,365.5753,,,,,,,,,,,,,,,,,,,,,,,,,,365.5754,366.3068,z,1,0.7045,,366.3069,366.307,,0,153,153,219,1,220,barlum,,,,,6,harmonic,1.9,nw,z,,,,,,,
,,,,,,,,,,,,001,2023-11-07_15h54.24.300,vowel_harmony,2023.2.3,Win32,60.18295619,366.3073,367.3044,,,,,,,,,,,,,,,,,,,,,,,,,,367.3045,368.0858,z,1,0.7483,,368.0858,368.086,,0,154,154,280,1,281,adalek,,,,,6,notharmonic,1.85,nw,z,,,,,,,
,,,,,,,,,,,,001,2023-11-07_15h54.24.300,vowel_harmony,2023.2.3,Win32,60.18295619,368.0863,369.0829,,,,,,,,,,,,,,,,,,,,,,,,,,369.0829,369.6646,z,1,0.5542,,369.6647,369.6648,,0,155,155,203,1,204,döves,,,,,5,harmonic,1.8,nw,z,,,,,,,
,,,,,,,,,,,,001,2023-11-07_15h54.24.300,vowel_harmony,2023.2.3,Win32,60.18295619,369.6651,370.6613,,,,,,,,,,,,,,,,,,,,,,,,,,370.6613,371.2603,z,1,0.5656,,371.2604,371.2604,,0,156,156,271,1,272,mimal,,,,,5,notharmonic,1.8,nw,z,,,,,,,
,,,,,,,,,,,,001,2023-11-07_15h54.24.300,vowel_harmony,2023.2.3,Win32,60.18295619,371.2607,372.2638,,,,,,,,,,,,,,,,,,,,,,,,,,372.2638,372.8727,z,1,0.5904,,372.8728,372.8728,,0,157,157,264,1,265,vepü,,,,,4,harmonic,2,nw,z,,,,,,,
,,,,,,,,,,,,001,2023-11-07_15h54.24.300,vowel_harmony,2023.2.3,Win32,60.18295619,372.8731,373.8761,,,,,,,,,,,,,,,,,,,,,,,,,,373.8761,374.4747,m,1,0.5821,,374.4747,374.4748,,0,158,158,86,1,87,gerçek,8983,408.1519,8058,0.8809,6,harmonic,1.7,word,m,,,,,,,
,,,,,,,,,,,,001,2023-11-07_15h54.24.300,vowel_harmony,2023.2.3,Win32,60.18295619,374.4751,375.4685,,,,,,,,,,,,,,,,,,,,,,,,,,375.4686,376.1803,z,1,0.6818,,376.1804,376.1805,,0,159,159,301,1,302,mezak,,,,,5,notharmonic,1.8,nw,z,,,,,,,
,,,,,,,,,,,,001,2023-11-07_15h54.24.300,vowel_harmony,2023.2.3,Win32,60.18295619,376.1808,377.1776,,,,,,,,,,,,,,,,,,,,,,,,,,377.1776,378.0088,z,1,0.7987,,378.0088,378.0089,,0,160,160,310,1,311,yandeş,,,,,6,notharmonic,1.95,nw,z,,,,,,,
,,,,,,,,,,,,001,2023-11-07_15h54.24.300,vowel_harmony,2023.2.3,Win32,60.18295619,378.0092,379.0063,,,,,,,,,,,,,,,,,,,,,,,,,,379.0063,379.5377,z,1,0.499,,379.5378,379.5379,,0,161,161,356,1,357,mergun,,,,,6,notharmonic,1.95,nw,z,,,,,,,
,,,,,,,,,,,,001,2023-11-07_15h54.24.300,vowel_harmony,2023.2.3,Win32,60.18295619,379.5383,380.5353,,,,,,,,,,,,,,,,,,,,,,,,,,380.5354,381.1835,m,1,0.6154,,381.1835,381.1836,,0,162,162,178,1,179,dikkat,6230,283.0665,5888,0.6437,6,notharmonic,2.05,word,m,,,,,,,
,,,,,,,,,,,,001,2023-11-07_15h54.24.300,vowel_harmony,2023.2.3,Win32,60.18295619,381.184,382.1872,,,,,,,,,,,,,,,,,,,,,,,,,,382.1873,383.0018,z,1,0.7983,,383.0018,383.0019,,0,163,163,317,1,318,mevul,,,,,5,notharmonic,1.95,nw,z,,,,,,,
,,,,,,,,,,,,001,2023-11-07_15h54.24.300,vowel_harmony,2023.2.3,Win32,60.18295619,383.0021,383.9926,,,,,,,,,,,,,,,,,,,,,,,,,,383.9927,384.7405,m,1,0.7235,,384.7406,384.7406,,0,164,164,109,1,110,milyon,3936,178.8362,2958,0.3234,6,notharmonic,1.75,word,m,,,,,,,
,,,,,,,,,,,,001,2023-11-07_15h54.24.300,vowel_harmony,2023.2.3,Win32,60.18295619,384.741,385.7376,,,,,,,,,,,,,,,,,,,,,,,,,,385.7376,386.2863,m,1,0.5158,,386.2863,386.2864,,0,165,165,52,1,53,resim,2506,113.8627,2188,0.2392,5,harmonic,1.4,word,m,,,,,,,
,,,,,,,,,,,,001,2023-11-07_15h54.24.300,vowel_harmony,2023.2.3,Win32,60.18295619,386.2866,387.2837,,,,,,,,,,,,,,,,,,,,,,,,,,387.2837,387.7555,m,1,0.4492,,387.7555,387.7556,,0,166,166,42,1,43,ürün,2268,103.0489,1954,0.2136,4,harmonic,1.1,word,m,,,,,,,
,,,,,,,,,,,,001,2023-11-07_15h54.24.300,vowel_harmony,2023.2.3,Win32,60.18295619,387.7559,388.7464,,,,,,,,,,,,,,,,,,,,,,,,,,388.7465,389.2285,m,0,0.4492,,389.2285,389.2285,,0,167,167,354,1,355,taden,,,,,5,notharmonic,1.7,nw,z,,,,,,,
,,,,,,,,,,,,001,2023-11-07_15h54.24.300,vowel_harmony,2023.2.3,Win32,60.18295619,389.229,390.2258,,,,,,,,,,,,,,,,,,,,,,,,,,390.2259,390.7575,m,1,0.5057,,390.7575,390.7577,,0,168,168,64,1,65,lise,888,40.3472,816,0.0892,4,harmonic,1.5,word,m,,,,,,,
,,,,,,,,,,,,001,2023-11-07_15h54.24.300,vowel_harmony,2023.2.3,Win32,60.18295619,390.758,391.7549,,,,,,,,,,,,,,,,,,,,,,,,,,391.7549,392.3531,z,1,0.5703,,392.3532,392.3532,,0,169,169,262,1,263,sauk,,,,,4,harmonic,1.85,nw,z,,,,,,,
,,,,,,,,,,,,001,2023-11-07_15h54.24.300,vowel_harmony,2023.2.3,Win32,60.18295619,392.3536,393.3507,,,,,,,,,,,,,,,,,,,,,,,,,,393.3507,393.9323,m,1,0.5489,,393.9324,393.9325,,0,170,170,37,1,38,hayvan,2363,107.3653,1894,0.2071,6,harmonic,1.5,word,m,,,,,,,
,,,,,,,,,,,,001,2023-11-07_15h54.24.300,vowel_harmony,2023.2.3,Win32,60.18295619,393.9328,394.9291,,,,,,,,,,,,,,,,,,,,,,,,,,394.9292,395.6448,z,1,0.6838,,395.6449,395.6451,,0,171,171,289,1,290,karmen,,,,,6,notharmonic,1.75,nw,z,,,,,,,
,,,,,,,,,,,,001,2023-11-07_15h54.24.300,vowel_harmony,2023.2.3,Win32,60.18295619,395.6454,396.6479,,,,,,,,,,,,,,,,,,,,,,,,,,396.648,397.2227,m,1,0.5539,,397.2227,397.2228,,0,172,172,107,1,108,merak,5806,263.8016,5524,0.6039,5,notharmonic,1.65,word,m,,,,,,,
,,,,,,,,,,,,001,2023-11-07_15h54.24.300,vowel_harmony,2023.2.3,Win32,60.18295619,397.2231,398.2207,,,,,,,,,,,,,,,,,,,,,,,,,,398.2207,399.0515,z,1,0.7982,,399.0515,399.0517,,0,173,173,279,1,280,tadde,,,,,5,notharmonic,1.8,nw,z,,,,,,,
,,,,,,,,,,,,001,2023-11-07_15h54.24.300,vowel_harmony,2023.2.3,Win32,60.18295619,399.0519,400.0542,,,,,,,,,,,,,,,,,,,,,,,,,,400.0542,400.5808,m,1,0.4991,,400.5809,400.581,,0,174,174,83,1,84,küçük,14048,638.2854,12467,1.3629,5,harmonic,1.75,word,m,,,,,,,
,,,,,,,,,,,,001,2023-11-07_15h54.24.300,vowel_harmony,2023.2.3,Win32,60.18295619,400.5812,401.5783,,,,,,,,,,,,,,,,,,,,,,,,,,401.5783,402.4259,m,1,0.8145,,402.426,402.4261,,0,175,175,69,1,70,forma,719,32.6685,597,0.0653,5,harmonic,1.8,word,m,,,,,,,
,,,,,,,,,,,,001,2023-11-07_15h54.24.300,vowel_harmony,2023.2.3,Win32,60.18295619,402.4263,403.4232,,,,,,,,,,,,,,,,,,,,,,,,,,403.4232,404.0448,m,1,0.5989,,404.0448,404.0449,,0,176,176,112,1,113,sezon,2315,105.1844,1917,0.2096,5,notharmonic,1.8,word,m,,,,,,,
,,,,,,,,,,,,001,2023-11-07_15h54.24.300,vowel_harmony,2023.2.3,Win32,60.18295619,404.0452,405.0356,,,,,,,,,,,,,,,,,,,,,,,,,,405.0356,405.767,z,1,0.6984,,405.7671,405.7672,,0,177,177,204,1,205,gerkez,,,,,6,harmonic,1.9,nw,z,,,,,,,
,,,,,,,,,,,,001,2023-11-07_15h54.24.300,vowel_harmony,2023.2.3,Win32,60.18295619,405.7675,406.7639,,,,,,,,,,,,,,,,,,,,,,,,,,406.7639,407.8012,m,1,1.0144,,407.8013,407.8013,,0,178,178,98,1,99,paket,1532,69.608,1392,0.1522,5,notharmonic,1.55,word,m,,,,,,,
,,,,,,,,,,,,001,2023-11-07_15h54.24.300,vowel_harmony,2023.2.3,Win32,60.18295619,407.8016,408.7981,,,,,,,,,,,,,,,,,,,,,,,,,,408.7981,409.7129,m,1,0.8981,,409.713,409.7131,,0,179,179,127,1,128,şahane,1153,52.3877,1108,0.1211,6,notharmonic,1.8,word,m,,,,,,,
,,,,,,,,,,,,001,2023-11-07_15h54.24.300,vowel_harmony,2023.2.3,Win32,60.18295619,409.7135,410.7034,,,,,,,,,,,,,,,,,,,,,,,,,,410.7034,411.6178,z,1,0.8812,,411.6179,411.6179,,0,180,180,318,1,319,yorgün,,,,,6,notharmonic,1.9,nw,z,,,,,,,
,,,,,,,,,,,,001,2023-11-07_15h54.24.300,vowel_harmony,2023.2.3,Win32,60.18295619,411.6183,412.615,,,,,,,,,,,,,,,,,,,,,,,,,,412.6151,413.6984,z,1,1.0607,,413.6984,413.6985,,0,181,181,256,1,257,yaruza,,,,,6,harmonic,1.9,nw,z,,,,,,,
,,,,,,,,,,,,001,2023-11-07_15h54.24.300,vowel_harmony,2023.2.3,Win32,60.18295619,413.6988,414.6929,,,,,,,,,,,,,,,,,,,,,,,,,,414.6929,415.823,m,1,1.1002,,415.823,415.823,,0,182,182,17,1,18,yakın,7990,363.0339,7595,0.8303,5,harmonic,1.8,word,m,,,,,,,
,,,,,,,,,,,,001,2023-11-07_15h54.24.300,vowel_harmony,2023.2.3,Win32,60.18295619,415.8235,416.82,,,,,,,,,,,,,,,,,,,,,,,,,,416.8201,417.5845,m,1,0.7398,,417.5846,417.5846,,0,183,183,76,1,77,ilişki,1675,76.1054,1524,0.1666,6,harmonic,1.8,word,m,,,,,,,
,,,,,,,,,,,,001,2023-11-07_15h54.24.300,vowel_harmony,2023.2.3,Win32,60.18295619,417.585,418.5823,,,,,,,,,,,,,,,,,,,,,,,,,,418.5823,419.1709,m,1,0.5658,,419.1709,419.171,,0,184,184,41,1,42,zengin,2193,99.6412,2015,0.2203,6,harmonic,1.65,word,m,,,,,,,
,,,,,,,,,,,,001,2023-11-07_15h54.24.300,vowel_harmony,2023.2.3,Win32,60.18295619,419.1713,420.1613,,,,,,,,,,,,,,,,,,,,,,,,,,420.1613,420.6332,m,1,0.4493,,420.6332,420.6333,,0,185,185,93,1,94,siyah,2944,133.7637,2527,0.2763,5,notharmonic,1.6,word,m,,,,,,,
,,,,,,,,,,,,001,2023-11-07_15h54.24.300,vowel_harmony,2023.2.3,Win32,60.18295619,420.6336,421.6304,,,,,,,,,,,,,,,,,,,,,,,,,,421.6304,422.2889,m,1,0.6326,,422.289,422.289,,0,186,186,4,1,5,metre,1156,52.5241,1015,0.111,5,harmonic,1.7,word,m,,,,,,,
,,,,,,,,,,,,001,2023-11-07_15h54.24.300,vowel_harmony,2023.2.3,Win32,60.18295619,422.2893,423.2854,,,,,,,,,,,,,,,,,,,,,,,,,,423.2855,424.001,z,1,0.6915,,424.001,424.001,,0,187,187,208,1,209,yayram,,,,,6,harmonic,1.85,nw,z,,,,,,,
,,,,,,,,,,,,001,2023-11-07_15h54.24.300,vowel_harmony,2023.2.3,Win32,60.18295619,424.0013,424.9982,,,,,,,,,,,,,,,,,,,,,,,,,,424.9983,425.653,z,1,0.632,,425.6531,425.6532,,0,188,188,306,1,307,otet,,,,,4,notharmonic,1.95,nw,z,,,,,,,
,,,,,,,,,,,,001,2023-11-07_15h54.24.300,vowel_harmony,2023.2.3,Win32,60.18295619,425.6538,426.6437,,,,,,,,,,,,,,,,,,,,,,,,,,426.6438,427.212,z,1,0.5455,,427.212,427.2121,,0,189,189,252,1,253,anlgı,,,,,5,harmonic,1.9,nw,z,,,,,,,
,,,,,,,,,,,,001,2023-11-07_15h54.24.300,vowel_harmony,2023.2.3,Win32,60.18295619,427.2125,428.2066,,,,,,,,,,,,,,,,,,,,,,,,,,428.2066,428.7878,m,1,0.552,,428.7879,428.7879,,0,190,190,46,1,47,takım,4370,198.5555,3726,0.4073,5,harmonic,1.7,word,m,,,,,,,
,,,,,,,,,,,,001,2023-11-07_15h54.24.300,vowel_harmony,2023.2.3,Win32,60.18295619,428.7882,429.7853,,,,,,,,,,,,,,,,,,,,,,,,,,429.7853,430.4834,z,1,0.6653,,430.4835,430.4836,,0,191,191,241,1,242,porlam,,,,,6,harmonic,2,nw,z,,,,,,,
,,,,,,,,,,,,001,2023-11-07_15h54.24.300,vowel_harmony,2023.2.3,Win32,60.18295619,430.484,431.4807,,,,,,,,,,,,,,,,,,,,,,,,,,431.4808,432.0193,m,1,0.5158,,432.0193,432.0194,,0,192,192,57,1,58,bölüm,1910,86.7828,1605,0.1755,5,harmonic,1.45,word,m,,,,,,,
,,,,,,,,,,,,001,2023-11-07_15h54.24.300,vowel_harmony,2023.2.3,Win32,60.18295619,432.0196,433.0099,,,,,,,,,,,,,,,,,,,,,,,,,,433.0099,433.6813,z,1,0.6488,,433.6814,433.6815,,0,193,193,201,1,202,ergiy,,,,,5,harmonic,1.85,nw,z,,,,,,,
,,,,,,,,,,,,001,2023-11-07_15h54.24.300,vowel_harmony,2023.2.3,Win32,60.18295619,433.6818,434.672,,,,,,,,,,,,,,,,,,,,,,,,,,434.672,435.3701,m,1,0.6654,,435.3701,435.3703,,0,194,194,91,1,92,ifade,6177,280.6584,5726,0.626,5,notharmonic,1.7,word,m,,,,,,,
,,,,,,,,,,,,001,2023-11-07_15h54.24.300,vowel_harmony,2023.2.3,Win32,60.18295619,435.3706,436.3736,,,,,,,,,,,,,,,,,,,,,,,,,,436.3737,436.9729,z,1,0.5825,,436.9729,436.973,,0,195,195,325,1,326,garit,,,,,5,notharmonic,1.85,nw,z,,,,,,,
,,,,,,,,,,,,001,2023-11-07_15h54.24.300,vowel_harmony,2023.2.3,Win32,60.18295619,436.9734,437.9628,,,,,,,,,,,,,,,,,,,,,,,,,,437.9628,439.1429,m,1,1.1523,,439.1429,439.1431,,0,196,196,123,1,124,haber,4559,207.1429,4151,0.4538,5,notharmonic,1.85,word,m,,,,,,,
,,,,,,,,,,,,001,2023-11-07_15h54.24.300,vowel_harmony,2023.2.3,Win32,60.18295619,439.1434,440.1405,,,,,,,,,,,,,,,,,,,,,,,,,,440.1405,440.7389,z,1,0.5728,,440.7391,440.7391,,0,197,197,243,1,244,korguf,,,,,6,harmonic,2,nw,z,,,,,,,
,,,,,,,,,,,,001,2023-11-07_15h54.24.300,vowel_harmony,2023.2.3,Win32,60.18295619,440.7395,441.7364,,,,,,,,,,,,,,,,,,,,,,,,,,441.7365,442.451,z,1,0.6847,,442.4511,442.4512,,0,198,198,334,1,335,işgan,,,,,5,notharmonic,1.95,nw,z,,,,,,,
,,,,,,,,,,,,001,2023-11-07_15h54.24.300,vowel_harmony,2023.2.3,Win32,60.18295619,442.4514,443.4483,,,,,,,,,,,,,,,,,,,,,,,,,,443.4484,444.6285,m,1,1.1487,,444.6286,444.6287,,0,199,199,90,1,91,tarif,2834,128.7657,2611,0.2854,5,notharmonic,1.5,word,m,,,,,,,
,,,,,,,,,,,,001,2023-11-07_15h54.24.300,vowel_harmony,2023.2.3,Win32,60.18295619,444.629,445.6259,,,,,,,,,,,,,,,,,,,,,,,,,,445.6259,446.2769,m,1,0.6284,,446.2769,446.277,,0,200,200,19,1,20,ödül,1063,48.2985,926,0.1012,4,harmonic,1.7,word,m,,,,,,,
,,,,,,,,,,,,001,2023-11-07_15h54.24.300,vowel_harmony,2023.2.3,Win32,60.18295619,446.2773,447.2712,,,,,,,,,,,,,,,,,,,,,,,,,,447.2712,447.9527,z,1,0.6568,,447.9528,447.9528,,0,201,201,253,1,254,meslet,,,,,6,harmonic,1.85,nw,z,,,,,,,
,,,,,,,,,,,,001,2023-11-07_15h54.24.300,vowel_harmony,2023.2.3,Win32,60.18295619,447.9531,448.95,,,,,,,,,,,,,,,,,,,,,,,,,,448.9501,449.5982,z,1,0.6154,,449.5982,449.5984,,0,202,202,309,1,310,yorgen,,,,,6,notharmonic,1.9,nw,z,,,,,,,
,,,,,,,,,,,,001,2023-11-07_15h54.24.300,vowel_harmony,2023.2.3,Win32,60.18295619,449.5986,450.5959,,,,,,,,,,,,,,,,,,,,,,,,,,450.596,451.3264,m,1,0.6986,,451.3265,451.3266,,0,203,203,50,1,51,kanun,1198,54.4324,1010,0.1104,5,harmonic,1.6,word,m,,,,,,,
,,,,,,,,,,,,001,2023-11-07_15h54.24.300,vowel_harmony,2023.2.3,Win32,60.18295619,451.3268,452.3243,,,,,,,,,,,,,,,,,,,,,,,,,,452.3243,453.2385,z,1,0.8815,,453.2386,453.2386,,0,204,204,344,1,345,barika,,,,,6,notharmonic,1.75,nw,z,,,,,,,
,,,,,,,,,,,,001,2023-11-07_15h54.24.300,vowel_harmony,2023.2.3,Win32,60.18295619,453.2389,454.2357,,,,,,,,,,,,,,,,,,,,,,,,,,454.2357,455.233,z,1,0.9727,,455.233,455.2331,,0,205,205,250,1,251,kakuk,,,,,5,harmonic,1.9,nw,z,,,,,,,
,,,,,,,,,,,,001,2023-11-07_15h54.24.300,vowel_harmony,2023.2.3,Win32,60.18295619,455.2334,456.2329,,,,,,,,,,,,,,,,,,,,,,,,,,456.2329,456.8455,m,1,0.5822,,456.8455,456.8456,,0,206,206,29,1,30,huzur,1911,86.8283,1799,0.1967,5,harmonic,1.8,word,m,,,,,,,
,,,,,,,,,,,,001,2023-11-07_15h54.24.300,vowel_harmony,2023.2.3,Win32,60.18295619,456.8459,457.8424,,,,,,,,,,,,,,,,,,,,,,,,,,457.8425,458.5411,m,1,0.6654,,458.5411,458.5412,,0,207,207,40,1,41,tepki,1695,77.0141,1578,0.1725,5,harmonic,1.55,word,m,,,,,,,
,,,,,,,,,,,,001,2023-11-07_15h54.24.300,vowel_harmony,2023.2.3,Win32,60.18295619,458.5416,459.5445,,,,,,,,,,,,,,,,,,,,,,,,,,459.5446,460.3923,z,1,0.8316,,460.3923,460.3925,,0,208,208,303,1,304,fisor,,,,,5,notharmonic,1.9,nw,z,,,,,,,
,,,,,,,,,,,,001,2023-11-07_15h54.24.300,vowel_harmony,2023.2.3,Win32,60.18295619,460.3927,461.3831,,,,,,,,,,,,,,,,,,,,,,,,,,461.3831,462.3036,z,1,0.8979,,462.3037,462.3038,,0,209,209,357,1,358,işarek,,,,,6,notharmonic,1.95,nw,z,,,,,,,
,,,,,,,,,,,,001,2023-11-07_15h54.24.300,vowel_harmony,2023.2.3,Win32,60.18295619,462.304,463.2948,,,,,,,,,,,,,,,,,,,,,,,,,,463.2948,463.8765,m,1,0.5525,,463.8766,463.8767,,0,210,210,75,1,76,roman,1499,68.1086,1281,0.14,5,harmonic,1.6,word,m,,,,,,,
,,,,,,,,,,,,001,2023-11-07_15h54.24.300,vowel_harmony,2023.2.3,Win32,60.18295619,463.8773,464.8735,,,,,,,,,,,,,,,,,,,,,,,,,,464.8735,465.5381,z,1,0.634,,465.5382,465.5383,,0,211,211,349,1,350,harten,,,,,6,notharmonic,1.85,nw,z,,,,,,,
,,,,,,,,,,,,001,2023-11-07_15h54.24.300,vowel_harmony,2023.2.3,Win32,60.18295619,465.5386,466.5356,,,,,,,,,,,,,,,,,,,,,,,,,,466.5357,467.0511,m,1,0.4839,,467.0512,467.0513,,0,212,212,118,1,119,meşhur,1092,49.6161,1057,0.1156,6,notharmonic,1.9,word,m,,,,,,,
,,,,,,,,,,,,001,2023-11-07_15h54.24.300,vowel_harmony,2023.2.3,Win32,60.18295619,467.0516,468.0484,,,,,,,,,,,,,,,,,,,,,,,,,,468.0484,468.5969,m,1,0.5235,,468.5969,468.597,,0,213,213,51,1,52,ilginç,2803,127.3572,2690,0.2941,6,harmonic,1.8,word,m,,,,,,,
,,,,,,,,,,,,001,2023-11-07_15h54.24.300,vowel_harmony,2023.2.3,Win32,60.18295619,468.5974,469.5942,,,,,,,,,,,,,,,,,,,,,,,,,,469.5942,470.1591,m,1,0.5326,,470.1591,470.1592,,0,214,214,36,1,37,meslek,1082,49.1618,976,0.1067,6,harmonic,1.9,word,m,,,,,,,
,,,,,,,,,,,,001,2023-11-07_15h54.24.300,vowel_harmony,2023.2.3,Win32,60.18295619,470.1595,471.1597,,,,,,,,,,,,,,,,,,,,,,,,,,471.1598,471.7056,z,1,0.5186,,471.7056,471.7057,,0,215,215,288,1,289,molit,,,,,5,notharmonic,1.95,nw,z,,,,,,,
,,,,,,,,,,,,001,2023-11-07_15h54.24.300,vowel_harmony,2023.2.3,Win32,60.18295619,471.7063,472.7032,,,,,,,,,,,,,,,,,,,,,,,,,,472.7033,473.2508,m,1,0.528,,473.2508,473.2509,,0,216,216,1,1,2,erkek,6188,281.1582,5195,0.5679,5,harmonic,1.65,word,m,,,,,,,
,,,,,,,,,,,,001,2023-11-07_15h54.24.300,vowel_harmony,2023.2.3,Win32,60.18295619,473.2512,474.2481,,,,,,,,,,,,,,,,,,,,,,,,,,474.2482,474.9967,z,1,0.7381,,474.9967,474.9968,,0,217,217,216,1,217,çeyret,,,,,6,harmonic,1.9,nw,z,,,,,,,
,,,,,,,,,,,,001,2023-11-07_15h54.24.300,vowel_harmony,2023.2.3,Win32,60.18295619,474.9971,475.9941,,,,,,,,,,,,,,,,,,,,,,,,,,475.9942,476.7086,z,1,0.7042,,476.7087,476.7088,,0,218,218,270,1,271,miyaj,,,,,5,notharmonic,1.9,nw,z,,,,,,,
,,,,,,,,,,,,001,2023-11-07_15h54.24.300,vowel_harmony,2023.2.3,Win32,60.18295619,476.7091,477.7052,,,,,,,,,,,,,,,,,,,,,,,,,,477.7052,478.3538,m,1,0.6323,,478.3538,478.3538,,0,219,219,162,1,163,hariç,1267,57.5675,1233,0.1348,5,notharmonic,1.75,word,m,,,,,,,
,,,,,,,,,,,,001,2023-11-07_15h54.24.300,vowel_harmony,2023.2.3,Win32,60.18295619,478.3542,479.3512,,,,,,,,,,,,,,,,,,,,,,,,,,479.3512,479.9828,m,1,0.6126,,479.9828,479.9829,,0,220,220,173,1,174,sade,1193,54.2052,1114,0.1218,4,notharmonic,1.55,word,m,,,,,,,
,,,,,,,,,,,,001,2023-11-07_15h54.24.300,vowel_harmony,2023.2.3,Win32,60.18295619,479.9833,480.9803,,,,,,,,,,,,,,,,,,,,,,,,,,480.9803,481.7448,z,1,0.7447,,481.7449,481.745,,0,221,221,290,1,291,aipa,,,,,4,notharmonic,1.95,nw,z,,,,,,,
,,,,,,,,,,,,001,2023-11-07_15h54.24.300,vowel_harmony,2023.2.3,Win32,60.18295619,481.7453,482.7422,,,,,,,,,,,,,,,,,,,,,,,,,,482.7422,483.3897,z,1,0.6317,,483.3897,483.3899,,0,222,222,207,1,208,örtre,,,,,5,harmonic,1.85,nw,z,,,,,,,
,,,,,,,,,,,,001,2023-11-07_15h54.24.300,vowel_harmony,2023.2.3,Win32,60.18295619,483.3901,484.3871,,,,,,,,,,,,,,,,,,,,,,,,,,484.3871,484.9369,z,1,0.5324,,484.937,484.937,,0,223,223,206,1,207,bevek,,,,,5,harmonic,1.75,nw,z,,,,,,,
,,,,,,,,,,,,001,2023-11-07_15h54.24.300,vowel_harmony,2023.2.3,Win32,60.18295619,484.9373,485.9342,,,,,,,,,,,,,,,,,,,,,,,,,,485.9343,486.4149,m,1,0.4626,,486.4149,486.415,,0,224,224,73,1,74,millet,1658,75.3329,1508,0.1649,6,harmonic,1.7,word,m,,,,,,,
,,,,,,,,,,,,001,2023-11-07_15h54.24.300,vowel_harmony,2023.2.3,Win32,60.18295619,486.4152,487.4122,,,,,,,,,,,,,,,,,,,,,,,,,,487.4122,487.9451,z,1,0.5149,,487.9452,487.9453,,0,225,225,234,1,235,düzöt,,,,,5,harmonic,2.05,nw,z,,,,,,,
,,,,,,,,,,,,001,2023-11-07_15h54.24.300,vowel_harmony,2023.2.3,Win32,60.18295619,487.9457,488.9423,,,,,,,,,,,,,,,,,,,,,,,,,,488.9424,489.4909,m,1,0.5362,,489.491,489.4911,,0,226,226,125,1,126,ikna,1276,57.9764,1173,0.1282,4,notharmonic,1.85,word,m,,,,,,,
,,,,,,,,,,,,001,2023-11-07_15h54.24.300,vowel_harmony,2023.2.3,Win32,60.18295619,489.4914,490.4873,,,,,,,,,,,,,,,,,,,,,,,,,,490.4873,491.2023,z,1,0.6953,,491.2024,491.2024,,0,227,227,194,1,195,rayna,,,,,5,harmonic,1.7,nw,z,,,,,,,
,,,,,,,,,,,,001,2023-11-07_15h54.24.300,vowel_harmony,2023.2.3,Win32,60.18295619,491.2028,492.2003,,,,,,,,,,,,,,,,,,,,,,,,,,492.2004,492.7816,z,1,0.564,,492.7817,492.7817,,0,228,228,298,1,299,yelsın,,,,,6,notharmonic,1.95,nw,z,,,,,,,
,,,,,,,,,,,,001,2023-11-07_15h54.24.300,vowel_harmony,2023.2.3,Win32,60.18295619,492.7821,493.7791,,,,,,,,,,,,,,,,,,,,,,,,,,493.7791,494.3608,z,1,0.5672,,494.3608,494.3609,,0,229,229,355,1,356,adül,,,,,4,notharmonic,1.85,nw,z,,,,,,,
,,,,,,,,,,,,001,2023-11-07_15h54.24.300,vowel_harmony,2023.2.3,Win32,60.18295619,494.3612,495.3581,,,,,,,,,,,,,,,,,,,,,,,,,,495.3581,496.1055,m,1,0.7322,,496.1056,496.1056,,0,230,230,48,1,49,teşvik,932,42.3464,867,0.0948,6,harmonic,1.8,word,m,,,,,,,
,,,,,,,,,,,,001,2023-11-07_15h54.24.300,vowel_harmony,2023.2.3,Win32,60.18295619,496.106,497.103,,,,,,,,,,,,,,,,,,,,,,,,,,497.103,497.6678,m,1,0.5461,,497.6678,497.6679,,0,231,231,59,1,60,köpek,1044,47.4352,901,0.0985,5,harmonic,1.75,word,m,,,,,,,
,,,,,,,,,,,,001,2023-11-07_15h54.24.300,vowel_harmony,2023.2.3,Win32,60.18295619,497.6682,498.666,,,,,,,,,,,,,,,,,,,,,,,,,,498.666,499.1977,m,1,0.5149,,499.1978,499.1979,,0,232,232,148,1,149,selam,1868,84.8745,1764,0.1928,5,notharmonic,1.35,word,m,,,,,,,
,,,,,,,,,,,,001,2023-11-07_15h54.24.300,vowel_harmony,2023.2.3,Win32,60.18295619,499.1982,500.1952,,,,,,,,,,,,,,,,,,,,,,,,,,500.1952,500.9098,m,0,0.6946,,500.9099,500.91,,0,233,233,229,1,230,tonam,,,,,5,harmonic,1.8,nw,z,,,,,,,
,,,,,,,,,,,,001,2023-11-07_15h54.24.300,vowel_harmony,2023.2.3,Win32,60.18295619,500.9107,501.9071,,,,,,,,,,,,,,,,,,,,,,,,,,501.9071,502.5546,z,1,0.6281,,502.5547,502.5548,,0,234,234,273,1,274,nimal,,,,,5,notharmonic,1.9,nw,z,,,,,,,
,,,,,,,,,,,,001,2023-11-07_15h54.24.300,vowel_harmony,2023.2.3,Win32,60.18295619,502.5553,503.552,,,,,,,,,,,,,,,,,,,,,,,,,,503.552,504.1176,m,1,0.5521,,504.1177,504.1177,,0,235,235,104,1,105,cevap,5232,237.7213,4822,0.5271,5,notharmonic,1.85,word,m,,,,,,,
,,,,,,,,,,,,001,2023-11-07_15h54.24.300,vowel_harmony,2023.2.3,Win32,60.18295619,504.118,505.1152,,,,,,,,,,,,,,,,,,,,,,,,,,505.1152,505.8294,z,1,0.6985,,505.8294,505.8295,,0,236,236,323,1,324,devak,,,,,5,notharmonic,1.75,nw,z,,,,,,,
,,,,,,,,,,,,001,2023-11-07_15h54.24.300,vowel_harmony,2023.2.3,Win32,60.18295619,505.8298,506.827,,,,,,,,,,,,,,,,,,,,,,,,,,506.827,507.3425,m,1,0.4953,,507.3426,507.3427,,0,237,237,78,1,79,ulusal,1551,70.4713,1355,0.1481,6,harmonic,1.75,word,m,,,,,,,
,,,,,,,,,,,,001,2023-11-07_15h54.24.300,vowel_harmony,2023.2.3,Win32,60.18295619,507.3431,508.3398,,,,,,,,,,,,,,,,,,,,,,,,,,508.3398,508.9873,z,1,0.6281,,508.9873,508.9875,,0,238,238,302,1,303,işgar,,,,,5,notharmonic,1.9,nw,z,,,,,,,
,,,,,,,,,,,,001,2023-11-07_15h54.24.300,vowel_harmony,2023.2.3,Win32,60.18295619,508.9879,509.9857,,,,,,,,,,,,,,,,,,,,,,,,,,509.9857,510.5662,z,1,0.5642,,510.5662,510.5663,,0,239,239,190,1,191,reklen,,,,,6,harmonic,1.8,nw,z,,,,,,,
,,,,,,,,,,,,001,2023-11-07_15h54.24.300,vowel_harmony,2023.2.3,Win32,60.18295619,510.5667,511.5638,,,,,,,,,,,,,,,,,,,,,,,,,,511.5638,512.1464,m,1,0.5621,,512.1464,528.5518,space,0,240,240,144,1,145,garip,2567,116.6343,2355,0.2574,5,notharmonic,1.65,word,m,16.3862,,,,,,
,,,,,,,,,,,,001,2023-11-07_15h54.24.300,vowel_harmony,2023.2.3,Win32,60.18295619,528.561,529.5491,,,,,,,,,,,,,,,,,,,,,,,,,,529.5491,530.1307,m,1,0.5606,,530.1308,530.1309,,0,241,241,167,1,168,adalet,1611,73.1975,1388,0.1517,6,notharmonic,1.65,word,m,,,,,,,
,,,,,,,,,,,,001,2023-11-07_15h54.24.300,vowel_harmony,2023.2.3,Win32,60.18295619,530.1313,531.1283,,,,,,,,,,,,,,,,,,,,,,,,,,531.1283,531.8596,z,1,0.7065,,531.8597,531.8598,,0,242,242,275,1,276,tahçe,,,,,5,notharmonic,1.95,nw,z,,,,,,,
,,,,,,,,,,,,001,2023-11-07_15h54.24.300,vowel_harmony,2023.2.3,Win32,60.18295619,531.8601,532.8561,,,,,,,,,,,,,,,,,,,,,,,,,,532.8561,533.5377,m,1,0.6541,,533.5378,533.5379,,0,243,243,156,1,157,medya,1784,81.0579,1495,0.1634,5,notharmonic,1.35,word,m,,,,,,,
,,,,,,,,,,,,001,2023-11-07_15h54.24.300,vowel_harmony,2023.2.3,Win32,60.18295619,533.5382,534.535,,,,,,,,,,,,,,,,,,,,,,,,,,534.535,535.1837,z,1,0.6294,,535.1838,535.1839,,0,244,244,346,1,347,kidan,,,,,5,notharmonic,1.8,nw,z,,,,,,,
,,,,,,,,,,,,001,2023-11-07_15h54.24.300,vowel_harmony,2023.2.3,Win32,60.18295619,535.1844,536.1809,,,,,,,,,,,,,,,,,,,,,,,,,,536.1809,536.7128,m,1,0.5128,,536.7128,536.7129,,0,245,245,85,1,86,geçmiş,4195,190.6042,4039,0.4415,6,harmonic,1.55,word,m,,,,,,,
,,,,,,,,,,,,001,2023-11-07_15h54.24.300,vowel_harmony,2023.2.3,Win32,60.18295619,536.7133,537.7102,,,,,,,,,,,,,,,,,,,,,,,,,,537.7102,538.3088,z,1,0.5799,,538.3088,538.3089,,0,246,246,192,1,193,vecö,,,,,4,harmonic,1.95,nw,z,,,,,,,
,,,,,,,,,,,,001,2023-11-07_15h54.24.300,vowel_harmony,2023.2.3,Win32,60.18295619,538.3092,539.3063,,,,,,,,,,,,,,,,,,,,,,,,,,539.3063,539.9207,z,1,0.5988,,539.9207,539.9208,,0,247,247,255,1,256,yokın,,,,,5,harmonic,1.85,nw,z,,,,,,,
,,,,,,,,,,,,001,2023-11-07_15h54.24.300,vowel_harmony,2023.2.3,Win32,60.18295619,539.9211,540.918,,,,,,,,,,,,,,,,,,,,,,,,,,540.918,541.5497,m,1,0.6206,,541.5498,541.5498,,0,248,248,97,1,98,mevcut,3007,136.6262,2842,0.3107,6,notharmonic,1.95,word,m,,,,,,,
,,,,,,,,,,,,001,2023-11-07_15h54.24.300,vowel_harmony,2023.2.3,Win32,60.18295619,541.5502,542.5472,,,,,,,,,,,,,,,,,,,,,,,,,,542.5472,543.1621,z,1,0.6041,,543.1621,543.1622,,0,249,249,348,1,349,aife,,,,,4,notharmonic,1.75,nw,z,,,,,,,
,,,,,,,,,,,,001,2023-11-07_15h54.24.300,vowel_harmony,2023.2.3,Win32,60.18295619,543.1625,544.1596,,,,,,,,,,,,,,,,,,,,,,,,,,544.1596,544.7072,z,1,0.5375,,544.7072,544.7074,,0,250,250,212,1,213,ortat,,,,,5,harmonic,1.7,nw,z,,,,,,,
,,,,,,,,,,,,001,2023-11-07_15h54.24.300,vowel_harmony,2023.2.3,Win32,60.18295619,544.7077,545.7059,,,,,,,,,,,,,,,,,,,,,,,,,,545.7059,546.1203,z,0,0.3991,,546.1204,546.1204,,0,251,251,14,1,15,yaşam,4348,197.5559,3918,0.4283,5,harmonic,1.4,word,m,,,,,,,
,,,,,,,,,,,,001,2023-11-07_15h54.24.300,vowel_harmony,2023.2.3,Win32,60.18295619,546.1206,547.1188,,,,,,,,,,,,,,,,,,,,,,,,,,547.1189,547.6495,m,1,0.512,,547.6496,547.6497,,0,252,252,13,1,14,nokta,2085,94.7341,1939,0.212,5,harmonic,1.5,word,m,,,,,,,
,,,,,,,,,,,,001,2023-11-07_15h54.24.300,vowel_harmony,2023.2.3,Win32,60.18295619,547.65,548.6473,,,,,,,,,,,,,,,,,,,,,,,,,,548.6474,549.1788,m,1,0.5118,,549.179,549.179,,0,253,253,164,1,165,sinema,1575,71.5618,1304,0.1426,6,notharmonic,1.8,word,m,,,,,,,
,,,,,,,,,,,,001,2023-11-07_15h54.24.300,vowel_harmony,2023.2.3,Win32,60.18295619,549.1793,550.1763,,,,,,,,,,,,,,,,,,,,,,,,,,550.1764,550.7749,m,1,0.5871,,550.775,550.7751,,0,254,254,172,1,173,milyar,1496,67.9723,1078,0.1178,6,notharmonic,1.85,word,m,,,,,,,
,,,,,,,,,,,,001,2023-11-07_15h54.24.300,vowel_harmony,2023.2.3,Win32,60.18295619,550.7754,551.7724,,,,,,,,,,,,,,,,,,,,,,,,,,551.7724,552.4368,z,1,0.6551,,552.4368,552.4369,,0,255,255,228,1,229,haytam,,,,,6,harmonic,1.75,nw,z,,,,,,,
,,,,,,,,,,,,001,2023-11-07_15h54.24.300,vowel_harmony,2023.2.3,Win32,60.18295619,552.4373,553.4344,,,,,,,,,,,,,,,,,,,,,,,,,,553.4344,554.2657,z,1,0.817,,554.2657,554.2658,,0,256,256,248,1,249,şegim,,,,,5,harmonic,1.9,nw,z,,,,,,,
,,,,,,,,,,,,001,2023-11-07_15h54.24.300,vowel_harmony,2023.2.3,Win32,60.18295619,554.2661,555.2625,,,,,,,,,,,,,,,,,,,,,,,,,,555.2625,556.0442,z,1,0.7729,,556.0443,556.0444,,0,257,257,209,1,210,sapor,,,,,5,harmonic,1.8,nw,z,,,,,,,
,,,,,,,,,,,,001,2023-11-07_15h54.24.300,vowel_harmony,2023.2.3,Win32,60.18295619,556.0447,557.0414,,,,,,,,,,,,,,,,,,,,,,,,,,557.0415,557.623,m,1,0.5648,,557.623,557.623,,0,258,258,62,1,63,cümle,1911,86.8283,1765,0.193,5,harmonic,1.85,word,m,,,,,,,
,,,,,,,,,,,,001,2023-11-07_15h54.24.300,vowel_harmony,2023.2.3,Win32,60.18295619,557.6234,558.6204,,,,,,,,,,,,,,,,,,,,,,,,,,558.6205,559.4679,z,1,0.8273,,559.468,559.4681,,0,259,259,322,1,323,normin,,,,,6,notharmonic,1.95,nw,z,,,,,,,
,,,,,,,,,,,,001,2023-11-07_15h54.24.300,vowel_harmony,2023.2.3,Win32,60.18295619,559.4684,560.4652,,,,,,,,,,,,,,,,,,,,,,,,,,560.4653,561.097,z,1,0.6135,,561.097,561.0971,,0,260,260,304,1,305,annö,,,,,4,notharmonic,1.95,nw,z,,,,,,,
,,,,,,,,,,,,001,2023-11-07_15h54.24.300,vowel_harmony,2023.2.3,Win32,60.18295619,561.0974,562.0943,,,,,,,,,,,,,,,,,,,,,,,,,,562.0945,562.8593,z,1,0.7452,,562.8593,562.8594,,0,261,261,342,1,343,kulön,,,,,5,notharmonic,1.9,nw,z,,,,,,,
,,,,,,,,,,,,001,2023-11-07_15h54.24.300,vowel_harmony,2023.2.3,Win32,60.18295619,562.8599,563.8563,,,,,,,,,,,,,,,,,,,,,,,,,,563.8563,564.4208,m,1,0.5495,,564.4208,564.4209,,0,262,262,65,1,66,fikir,2552,115.9528,2413,0.2638,5,harmonic,1.9,word,m,,,,,,,
,,,,,,,,,,,,001,2023-11-07_15h54.24.300,vowel_harmony,2023.2.3,Win32,60.18295619,564.4212,565.4182,,,,,,,,,,,,,,,,,,,,,,,,,,565.4182,566.0996,z,1,0.6667,,566.0997,566.0998,,0,263,263,313,1,314,ikas,,,,,4,notharmonic,1.85,nw,z,,,,,,,
,,,,,,,,,,,,001,2023-11-07_15h54.24.300,vowel_harmony,2023.2.3,Win32,60.18295619,566.1001,567.0971,,,,,,,,,,,,,,,,,,,,,,,,,,567.0971,567.6617,m,1,0.5494,,567.6618,567.6619,,0,264,264,116,1,117,daire,621,28.2158,503,0.055,5,notharmonic,1,word,m,,,,,,,
,,,,,,,,,,,,001,2023-11-07_15h54.24.300,vowel_harmony,2023.2.3,Win32,60.18295619,567.6622,568.6603,,,,,,,,,,,,,,,,,,,,,,,,,,568.6603,569.1089,m,1,0.4377,,569.1089,569.109,,0,265,265,137,1,138,parti,2613,118.7244,2059,0.2251,5,notharmonic,1.8,word,m,,,,,,,
,,,,,,,,,,,,001,2023-11-07_15h54.24.300,vowel_harmony,2023.2.3,Win32,60.18295619,569.1093,570.1053,,,,,,,,,,,,,,,,,,,,,,,,,,570.1053,570.9038,z,1,0.7854,,570.9039,570.9039,,0,266,266,332,1,333,tahane,,,,,6,notharmonic,1.85,nw,z,,,,,,,
,,,,,,,,,,,,001,2023-11-07_15h54.24.300,vowel_harmony,2023.2.3,Win32,60.18295619,570.9042,571.901,,,,,,,,,,,,,,,,,,,,,,,,,,571.9011,572.6994,z,1,0.7878,,572.6995,572.6995,,0,267,267,314,1,315,seral,,,,,5,notharmonic,1.7,nw,z,,,,,,,
,,,,,,,,,,,,001,2023-11-07_15h54.24.300,vowel_harmony,2023.2.3,Win32,60.18295619,572.6998,573.6958,,,,,,,,,,,,,,,,,,,,,,,,,,573.6959,574.6773,z,1,0.9618,,574.6773,574.6773,,0,268,268,276,1,277,iptap,,,,,5,notharmonic,1.95,nw,z,,,,,,,
,,,,,,,,,,,,001,2023-11-07_15h54.24.300,vowel_harmony,2023.2.3,Win32,60.18295619,574.6776,575.6735,,,,,,,,,,,,,,,,,,,,,,,,,,575.6735,576.2723,z,1,0.5786,,576.2723,576.2724,,0,269,269,274,1,275,pisan,,,,,5,notharmonic,1.75,nw,z,,,,,,,
,,,,,,,,,,,,001,2023-11-07_15h54.24.300,vowel_harmony,2023.2.3,Win32,60.18295619,576.2726,577.2696,,,,,,,,,,,,,,,,,,,,,,,,,,577.2697,577.9672,m,1,0.6795,,577.9674,577.9674,,0,270,270,103,1,104,tane,5623,255.4868,5075,0.5548,4,notharmonic,1.3,word,m,,,,,,,
,,,,,,,,,,,,001,2023-11-07_15h54.24.300,vowel_harmony,2023.2.3,Win32,60.18295619,577.9677,578.9645,,,,,,,,,,,,,,,,,,,,,,,,,,578.9646,579.7961,m,1,0.8137,,579.7962,579.7962,,0,271,271,53,1,54,gelir,7578,344.3143,7014,0.7668,5,harmonic,1.4,word,m,,,,,,,
,,,,,,,,,,,,001,2023-11-07_15h54.24.300,vowel_harmony,2023.2.3,Win32,60.18295619,579.7965,580.7934,,,,,,,,,,,,,,,,,,,,,,,,,,580.7935,581.375,m,1,0.5668,,581.3751,581.3752,,0,272,272,9,1,10,karar,8108,368.3954,7436,0.8129,5,harmonic,1.6,word,m,,,,,,,
,,,,,,,,,,,,001,2023-11-07_15h54.24.300,vowel_harmony,2023.2.3,Win32,60.18295619,581.3755,582.3724,,,,,,,,,,,,,,,,,,,,,,,,,,582.3725,582.971,z,1,0.5872,,582.971,582.9711,,0,273,273,282,1,283,taöz,,,,,4,notharmonic,1.9,nw,z,,,,,,,
,,,,,,,,,,,,001,2023-11-07_15h54.24.300,vowel_harmony,2023.2.3,Win32,60.18295619,582.9715,583.9686,,,,,,,,,,,,,,,,,,,,,,,,,,583.9686,584.567,m,1,0.5885,,584.567,584.5671,,0,274,274,56,1,57,sağlam,1818,82.6027,1720,0.188,6,harmonic,1.6,word,m,,,,,,,
,,,,,,,,,,,,001,2023-11-07_15h54.24.300,vowel_harmony,2023.2.3,Win32,60.18295619,584.5674,585.5637,,,,,,,,,,,,,,,,,,,,,,,,,,585.5638,586.1123,m,1,0.5288,,586.1124,586.1124,,0,275,275,34,1,35,hoca,1893,86.0104,1526,0.1668,4,harmonic,1.45,word,m,,,,,,,
,,,,,,,,,,,,001,2023-11-07_15h54.24.300,vowel_harmony,2023.2.3,Win32,60.18295619,586.1127,587.1096,,,,,,,,,,,,,,,,,,,,,,,,,,587.1097,587.7583,z,1,0.6291,,587.7584,587.7584,,0,276,276,187,1,188,remrin,,,,,6,harmonic,1.9,nw,z,,,,,,,
,,,,,,,,,,,,001,2023-11-07_15h54.24.300,vowel_harmony,2023.2.3,Win32,60.18295619,587.7587,588.7547,,,,,,,,,,,,,,,,,,,,,,,,,,588.7547,589.553,z,1,0.7817,,589.5531,589.5532,,0,277,277,227,1,228,zekö,,,,,4,harmonic,1.9,nw,z,,,,,,,
,,,,,,,,,,,,001,2023-11-07_15h54.24.300,vowel_harmony,2023.2.3,Win32,60.18295619,589.5534,590.5506,,,,,,,,,,,,,,,,,,,,,,,,,,590.5506,591.4151,z,1,0.8443,,591.4151,591.4152,,0,278,278,261,1,262,kardok,,,,,6,harmonic,1.95,nw,z,,,,,,,
,,,,,,,,,,,,001,2023-11-07_15h54.24.300,vowel_harmony,2023.2.3,Win32,60.18295619,591.4155,592.4125,,,,,,,,,,,,,,,,,,,,,,,,,,592.4125,593.1929,z,1,0.7612,,593.1929,593.193,,0,279,279,312,1,313,şahmin,,,,,6,notharmonic,1.8,nw,z,,,,,,,
,,,,,,,,,,,,001,2023-11-07_15h54.24.300,vowel_harmony,2023.2.3,Win32,60.18295619,593.1934,594.1902,,,,,,,,,,,,,,,,,,,,,,,,,,594.1903,594.7883,m,1,0.583,,594.7884,594.7885,,0,280,280,18,1,19,normal,4154,188.7413,3788,0.4141,6,harmonic,1.75,word,m,,,,,,,
,,,,,,,,,,,,001,2023-11-07_15h54.24.300,vowel_harmony,2023.2.3,Win32,60.18295619,594.7891,595.7867,,,,,,,,,,,,,,,,,,,,,,,,,,595.7868,596.5669,m,1,0.7674,,596.567,596.567,,0,281,281,133,1,134,taze,2268,103.0489,2062,0.2254,4,notharmonic,1.65,word,m,,,,,,,
,,,,,,,,,,,,001,2023-11-07_15h54.24.300,vowel_harmony,2023.2.3,Win32,60.18295619,596.5673,597.5649,,,,,,,,,,,,,,,,,,,,,,,,,,597.565,598.2636,m,1,0.6783,,598.2637,598.2639,,0,282,282,21,1,22,duygu,1877,85.2834,1760,0.1924,5,harmonic,1.8,word,m,,,,,,,
,,,,,,,,,,,,001,2023-11-07_15h54.24.300,vowel_harmony,2023.2.3,Win32,60.18295619,598.2644,599.2597,,,,,,,,,,,,,,,,,,,,,,,,,,599.2598,599.8594,m,1,0.5856,,599.8595,599.8595,,0,283,283,171,1,172,reklam,1565,71.1074,1244,0.136,6,notharmonic,1.9,word,m,,,,,,,
,,,,,,,,,,,,001,2023-11-07_15h54.24.300,vowel_harmony,2023.2.3,Win32,60.18295619,599.8598,600.8558,,,,,,,,,,,,,,,,,,,,,,,,,,600.8558,601.6203,m,1,0.7447,,601.6204,601.6205,,0,284,284,122,1,123,devam,17666,802.673,16284,1.7802,5,notharmonic,1.55,word,m,,,,,,,
,,,,,,,,,,,,001,2023-11-07_15h54.24.300,vowel_harmony,2023.2.3,Win32,60.18295619,601.6208,602.6178,,,,,,,,,,,,,,,,,,,,,,,,,,602.6178,603.1992,z,1,0.5684,,603.1994,603.1994,,0,285,285,202,1,203,güvin,,,,,5,harmonic,1.95,nw,z,,,,,,,
,,,,,,,,,,,,001,2023-11-07_15h54.24.300,vowel_harmony,2023.2.3,Win32,60.18295619,603.1997,604.1967,,,,,,,,,,,,,,,,,,,,,,,,,,604.1967,604.6284,m,1,0.4223,,604.6284,604.6285,,0,286,286,66,1,67,sanık,768,34.8949,699,0.0764,5,harmonic,1.85,word,m,,,,,,,
,,,,,,,,,,,,001,2023-11-07_15h54.24.300,vowel_harmony,2023.2.3,Win32,60.18295619,604.6288,605.6269,,,,,,,,,,,,,,,,,,,,,,,,,,605.6269,606.2584,z,1,0.6114,,606.2584,606.2585,,0,287,287,237,1,238,taşal,,,,,5,harmonic,1.8,nw,z,,,,,,,
,,,,,,,,,,,,001,2023-11-07_15h54.24.300,vowel_harmony,2023.2.3,Win32,60.18295619,606.2588,607.2558,,,,,,,,,,,,,,,,,,,,,,,,,,607.2559,607.8863,z,1,0.6153,,607.8864,607.8865,,0,288,288,220,1,221,denbi,,,,,5,harmonic,1.75,nw,z,,,,,,,
,,,,,,,,,,,,001,2023-11-07_15h54.24.300,vowel_harmony,2023.2.3,Win32,60.18295619,607.8868,608.8838,,,,,,,,,,,,,,,,,,,,,,,,,,608.8838,609.4324,m,1,0.5363,,609.4325,609.4325,,0,289,289,176,1,177,harika,4682,212.7315,4422,0.4834,6,notharmonic,1.9,word,m,,,,,,,
,,,,,,,,,,,,001,2023-11-07_15h54.24.300,vowel_harmony,2023.2.3,Win32,60.18295619,609.4328,610.4299,,,,,,,,,,,,,,,,,,,,,,,,,,610.4299,610.9614,m,1,0.5139,,610.9615,610.9615,,0,290,290,15,1,16,hayat,7922,359.9443,7314,0.7996,5,harmonic,1.9,word,m,,,,,,,
,,,,,,,,,,,,001,2023-11-07_15h54.24.300,vowel_harmony,2023.2.3,Win32,60.18295619,610.9618,611.959,,,,,,,,,,,,,,,,,,,,,,,,,,611.9591,612.5576,z,1,0.5836,,612.5578,612.5578,,0,291,291,186,1,187,habık,,,,,5,harmonic,1.9,nw,z,,,,,,,
,,,,,,,,,,,,001,2023-11-07_15h54.24.300,vowel_harmony,2023.2.3,Win32,60.18295619,612.5581,613.5541,,,,,,,,,,,,,,,,,,,,,,,,,,613.5541,614.0868,z,1,0.5172,,614.0868,614.087,,0,292,292,328,1,329,kirul,,,,,5,notharmonic,1.95,nw,z,,,,,,,
,,,,,,,,,,,,001,2023-11-07_15h54.24.300,vowel_harmony,2023.2.3,Win32,60.18295619,614.0874,615.0835,,,,,,,,,,,,,,,,,,,,,,,,,,615.0835,615.6662,m,1,0.5703,,615.6662,615.6664,,0,293,293,159,1,160,vakit,3476,157.9357,3298,0.3605,5,notharmonic,1.65,word,m,,,,,,,
,,,,,,,,,,,,001,2023-11-07_15h54.24.300,vowel_harmony,2023.2.3,Win32,60.18295619,615.6666,616.6626,,,,,,,,,,,,,,,,,,,,,,,,,,616.6627,617.1954,z,1,0.5123,,617.1954,617.1954,,0,294,294,352,1,353,yılden,,,,,6,notharmonic,1.8,nw,z,,,,,,,
,,,,,,,,,,,,001,2023-11-07_15h54.24.300,vowel_harmony,2023.2.3,Win32,60.18295619,617.1958,618.1916,,,,,,,,,,,,,,,,,,,,,,,,,,618.1916,618.7912,z,1,0.5865,,618.7913,618.7913,,0,295,295,200,1,201,duşın,,,,,5,harmonic,1.9,nw,z,,,,,,,
,,,,,,,,,,,,001,2023-11-07_15h54.24.300,vowel_harmony,2023.2.3,Win32,60.18295619,618.7916,619.7886,,,,,,,,,,,,,,,,,,,,,,,,,,619.7886,620.3693,m,1,0.5678,,620.3693,620.3694,,0,296,296,33,1,34,moda,1381,62.7472,1231,0.1346,4,harmonic,1.55,word,m,,,,,,,
,,,,,,,,,,,,001,2023-11-07_15h54.24.300,vowel_harmony,2023.2.3,Win32,60.18295619,620.3697,621.3673,,,,,,,,,,,,,,,,,,,,,,,,,,621.3673,622.0489,m,1,0.6697,,622.0489,622.049,,0,297,297,100,1,101,düşman,1065,48.3894,962,0.1052,6,notharmonic,1.85,word,m,,,,,,,
,,,,,,,,,,,,001,2023-11-07_15h54.24.300,vowel_harmony,2023.2.3,Win32,60.18295619,622.0493,623.0464,,,,,,,,,,,,,,,,,,,,,,,,,,623.0464,623.6608,z,1,0.5988,,623.6608,623.6609,,0,298,298,259,1,260,hayuk,,,,,5,harmonic,1.95,nw,z,,,,,,,
,,,,,,,,,,,,001,2023-11-07_15h54.24.300,vowel_harmony,2023.2.3,Win32,60.18295619,623.6611,624.6582,,,,,,,,,,,,,,,,,,,,,,,,,,624.6582,625.4058,z,1,0.7318,,625.4059,625.406,,0,299,299,260,1,261,yarlam,,,,,6,harmonic,1.75,nw,z,,,,,,,
,,,,,,,,,,,,001,2023-11-07_15h54.24.300,vowel_harmony,2023.2.3,Win32,60.18295619,625.4065,626.4041,,,,,,,,,,,,,,,,,,,,,,,,,,626.4042,626.9366,m,1,0.5233,,626.9366,626.9368,,0,300,300,170,1,171,basit,3385,153.801,3177,0.3473,5,notharmonic,1.65,word,m,,,,,,,
,,,,,,,,,,,,001,2023-11-07_15h54.24.300,vowel_harmony,2023.2.3,Win32,60.18295619,626.9373,627.9332,,,,,,,,,,,,,,,,,,,,,,,,,,627.9332,628.5809,z,1,0.628,,628.5809,628.581,,0,301,301,242,1,243,kahon,,,,,5,harmonic,1.85,nw,z,,,,,,,
,,,,,,,,,,,,001,2023-11-07_15h54.24.300,vowel_harmony,2023.2.3,Win32,60.18295619,628.5813,629.5782,,,,,,,,,,,,,,,,,,,,,,,,,,629.5782,630.1938,z,1,0.6011,,630.1938,630.1939,,0,302,302,191,1,192,doab,,,,,4,harmonic,2,nw,z,,,,,,,
,,,,,,,,,,,,001,2023-11-07_15h54.24.300,vowel_harmony,2023.2.3,Win32,60.18295619,630.1941,631.1904,,,,,,,,,,,,,,,,,,,,,,,,,,631.1906,631.8547,z,1,0.6549,,631.8548,631.8548,,0,303,303,345,1,346,bardeş,,,,,6,notharmonic,1.95,nw,z,,,,,,,
,,,,,,,,,,,,001,2023-11-07_15h54.24.300,vowel_harmony,2023.2.3,Win32,60.18295619,631.8551,632.8533,,,,,,,,,,,,,,,,,,,,,,,,,,632.8534,633.4348,m,1,0.5656,,633.4348,633.4349,,0,304,304,147,1,148,işaret,1888,85.7832,1787,0.1954,6,notharmonic,1,word,m,,,,,,,
,,,,,,,,,,,,001,2023-11-07_15h54.24.300,vowel_harmony,2023.2.3,Win32,60.18295619,633.4353,634.4315,,,,,,,,,,,,,,,,,,,,,,,,,,634.4315,634.9969,z,1,0.5492,,634.9969,634.997,,0,305,305,197,1,198,ranar,,,,,5,harmonic,1.75,nw,z,,,,,,,
,,,,,,,,,,,,001,2023-11-07_15h54.24.300,vowel_harmony,2023.2.3,Win32,60.18295619,634.9973,635.9945,,,,,,,,,,,,,,,,,,,,,,,,,,635.9945,636.5418,m,1,0.5363,,636.5419,636.5419,,0,306,306,151,1,152,ateş,2108,95.7792,1803,0.1971,4,notharmonic,1.65,word,m,,,,,,,
,,,,,,,,,,,,001,2023-11-07_15h54.24.300,vowel_harmony,2023.2.3,Win32,60.18295619,636.5422,637.5394,,,,,,,,,,,,,,,,,,,,,,,,,,637.5394,638.089,z,1,0.5376,,638.089,638.0891,,0,307,307,337,1,338,bakem,,,,,5,notharmonic,1.7,nw,z,,,,,,,
,,,,,,,,,,,,001,2023-11-07_15h54.24.300,vowel_harmony,2023.2.3,Win32,60.18295619,638.0894,639.0864,,,,,,,,,,,,,,,,,,,,,,,,,,639.0864,639.7011,z,1,0.5945,,639.7011,639.7011,,0,308,308,222,1,223,gelü,,,,,4,harmonic,1.75,nw,z,,,,,,,
,,,,,,,,,,,,001,2023-11-07_15h54.24.300,vowel_harmony,2023.2.3,Win32,60.18295619,639.7014,640.6983,,,,,,,,,,,,,,,,,,,,,,,,,,640.6983,641.3304,m,1,0.6118,,641.3304,641.3306,,0,309,309,89,1,90,etki,1234,56.0681,1169,0.1278,4,harmonic,1.4,word,m,,,,,,,
,,,,,,,,,,,,001,2023-11-07_15h54.24.300,vowel_harmony,2023.2.3,Win32,60.18295619,641.331,642.3275,,,,,,,,,,,,,,,,,,,,,,,,,,642.3275,643.4067,m,1,1.062,,643.4068,643.4069,,0,310,310,68,1,69,ücret,734,33.35,634,0.0693,5,harmonic,1.85,word,m,,,,,,,
,,,,,,,,,,,,001,2023-11-07_15h54.24.300,vowel_harmony,2023.2.3,Win32,60.18295619,643.4072,644.4041,,,,,,,,,,,,,,,,,,,,,,,,,,644.4041,644.9528,m,1,0.5372,,644.9529,644.9529,,0,311,311,120,1,121,ihmal,1002,45.5269,977,0.1068,5,notharmonic,1.65,word,m,,,,,,,
,,,,,,,,,,,,001,2023-11-07_15h54.24.300,vowel_harmony,2023.2.3,Win32,60.18295619,644.9532,645.9501,,,,,,,,,,,,,,,,,,,,,,,,,,645.9501,646.5319,m,1,0.5628,,646.5319,646.5319,,0,312,312,163,1,164,limon,1658,75.3329,1481,0.1619,5,notharmonic,1.75,word,m,,,,,,,
,,,,,,,,,,,,001,2023-11-07_15h54.24.300,vowel_harmony,2023.2.3,Win32,60.18295619,646.5322,647.5292,,,,,,,,,,,,,,,,,,,,,,,,,,647.5293,648.1608,z,1,0.6161,,648.1608,648.1609,,0,313,313,308,1,309,hafer,,,,,5,notharmonic,1.85,nw,z,,,,,,,
,,,,,,,,,,,,001,2023-11-07_15h54.24.300,vowel_harmony,2023.2.3,Win32,60.18295619,648.1613,649.1582,,,,,,,,,,,,,,,,,,,,,,,,,,649.1582,649.7569,z,1,0.5844,,649.7569,649.757,,0,314,314,278,1,279,sekon,,,,,5,notharmonic,1.85,nw,z,,,,,,,
,,,,,,,,,,,,001,2023-11-07_15h54.24.300,vowel_harmony,2023.2.3,Win32,60.18295619,649.7573,650.7543,,,,,,,,,,,,,,,,,,,,,,,,,,650.7543,651.2529,m,1,0.4822,,651.2529,651.2531,,0,315,315,11,1,12,umut,1988,90.3268,1818,0.1987,4,harmonic,1.55,word,m,,,,,,,
,,,,,,,,,,,,001,2023-11-07_15h54.24.300,vowel_harmony,2023.2.3,Win32,60.18295619,651.2533,652.2503,,,,,,,,,,,,,,,,,,,,,,,,,,652.2504,652.9309,z,1,0.6704,,652.931,652.931,,0,316,316,307,1,308,merbat,,,,,6,notharmonic,1.95,nw,z,,,,,,,
,,,,,,,,,,,,001,2023-11-07_15h54.24.300,vowel_harmony,2023.2.3,Win32,60.18295619,652.9314,653.9284,,,,,,,,,,,,,,,,,,,,,,,,,,653.9284,654.5768,z,1,0.6318,,654.5769,654.5769,,0,317,317,181,1,182,rapkı,,,,,5,harmonic,1.85,nw,z,,,,,,,
,,,,,,,,,,,,001,2023-11-07_15h54.24.300,vowel_harmony,2023.2.3,Win32,60.18295619,654.5772,655.5743,,,,,,,,,,,,,,,,,,,,,,,,,,655.5744,656.1889,z,1,0.599,,656.189,656.1891,,0,318,318,300,1,301,nilgi,,,,,5,notharmonic,1.85,nw,z,,,,,,,
,,,,,,,,,,,,001,2023-11-07_15h54.24.300,vowel_harmony,2023.2.3,Win32,60.18295619,656.1893,657.1862,,,,,,,,,,,,,,,,,,,,,,,,,,657.1863,657.7849,z,1,0.5829,,657.7849,657.785,,0,319,319,336,1,337,diyam,,,,,5,notharmonic,1.85,nw,z,,,,,,,
,,,,,,,,,,,,001,2023-11-07_15h54.24.300,vowel_harmony,2023.2.3,Win32,60.18295619,657.7853,658.7824,,,,,,,,,,,,,,,,,,,,,,,,,,658.7825,659.3638,z,1,0.5694,,659.3638,659.3639,,0,320,320,285,1,286,iklon,,,,,5,notharmonic,1.85,nw,z,,,,,,,
,,,,,,,,,,,,001,2023-11-07_15h54.24.300,vowel_harmony,2023.2.3,Win32,60.18295619,659.3642,660.3612,,,,,,,,,,,,,,,,,,,,,,,,,,660.3613,661.1928,m,1,0.8115,,661.1929,661.1929,,0,321,321,140,1,141,sahil,481,21.8547,443,0.0484,5,notharmonic,1.45,word,m,,,,,,,
,,,,,,,,,,,,001,2023-11-07_15h54.24.300,vowel_harmony,2023.2.3,Win32,60.18295619,661.1932,662.1892,,,,,,,,,,,,,,,,,,,,,,,,,,662.1892,662.9378,z,1,0.7281,,662.9378,662.9379,,0,322,322,299,1,300,fihal,,,,,5,notharmonic,1.95,nw,z,,,,,,,
,,,,,,,,,,,,001,2023-11-07_15h54.24.300,vowel_harmony,2023.2.3,Win32,60.18295619,662.9382,663.9351,,,,,,,,,,,,,,,,,,,,,,,,,,663.9352,664.5338,z,1,0.5821,,664.5339,664.5341,,0,323,323,269,1,270,vekü,,,,,4,harmonic,2,nw,z,,,,,,,
,,,,,,,,,,,,001,2023-11-07_15h54.24.300,vowel_harmony,2023.2.3,Win32,60.18295619,664.5346,665.5311,,,,,,,,,,,,,,,,,,,,,,,,,,665.5311,666.2286,m,1,0.6886,,666.2287,666.2288,,0,324,324,3,1,4,minik,2916,132.4915,2594,0.2836,5,harmonic,1.6,word,m,,,,,,,
,,,,,,,,,,,,001,2023-11-07_15h54.24.300,vowel_harmony,2023.2.3,Win32,60.18295619,666.2291,667.226,,,,,,,,,,,,,,,,,,,,,,,,,,667.226,667.8076,m,1,0.5622,,667.8077,667.8078,,0,325,325,54,1,55,yedek,825,37.4847,732,0.08,5,harmonic,1.65,word,m,,,,,,,
,,,,,,,,,,,,001,2023-11-07_15h54.24.300,vowel_harmony,2023.2.3,Win32,60.18295619,667.8081,668.8056,,,,,,,,,,,,,,,,,,,,,,,,,,668.8057,669.3041,m,1,0.479,,669.3042,669.3043,,0,326,326,67,1,68,bayram,1948,88.5094,1648,0.1802,6,harmonic,1.85,word,m,,,,,,,
,,,,,,,,,,,,001,2023-11-07_15h54.24.300,vowel_harmony,2023.2.3,Win32,60.18295619,669.3048,670.3013,,,,,,,,,,,,,,,,,,,,,,,,,,670.3014,671.016,z,1,0.7017,,671.016,671.016,,0,327,327,254,1,255,millek,,,,,6,harmonic,1.8,nw,z,,,,,,,
,,,,,,,,,,,,001,2023-11-07_15h54.24.300,vowel_harmony,2023.2.3,Win32,60.18295619,671.0164,672.0134,,,,,,,,,,,,,,,,,,,,,,,,,,672.0134,672.6949,z,1,0.6694,,672.6949,672.6951,,0,328,328,320,1,321,finak,,,,,5,notharmonic,1.85,nw,z,,,,,,,
,,,,,,,,,,,,001,2023-11-07_15h54.24.300,vowel_harmony,2023.2.3,Win32,60.18295619,672.6953,673.6923,,,,,,,,,,,,,,,,,,,,,,,,,,673.6923,674.3568,m,1,0.6506,,674.3568,674.3569,,0,329,329,10,1,11,bardak,1728,78.5135,1569,0.1715,6,harmonic,1.6,word,m,,,,,,,
,,,,,,,,,,,,001,2023-11-07_15h54.24.300,vowel_harmony,2023.2.3,Win32,60.18295619,674.3572,675.3543,,,,,,,,,,,,,,,,,,,,,,,,,,675.3543,675.9199,z,1,0.5458,,675.9199,675.9201,,0,330,330,339,1,340,asmel,,,,,5,notharmonic,1.95,nw,z,,,,,,,
,,,,,,,,,,,,001,2023-11-07_15h54.24.300,vowel_harmony,2023.2.3,Win32,60.18295619,675.9203,676.9161,,,,,,,,,,,,,,,,,,,,,,,,,,676.9162,677.5486,z,1,0.612,,677.5486,677.5487,,0,331,331,239,1,240,şekik,,,,,5,harmonic,1.7,nw,z,,,,,,,
,,,,,,,,,,,,001,2023-11-07_15h54.24.300,vowel_harmony,2023.2.3,Win32,60.18295619,677.549,678.5458,,,,,,,,,,,,,,,,,,,,,,,,,,678.5459,679.1942,m,1,0.6378,,679.1942,679.1944,,0,332,332,63,1,64,sultan,1756,79.7857,1368,0.1496,6,harmonic,1.55,word,m,,,,,,,
,,,,,,,,,,,,001,2023-11-07_15h54.24.300,vowel_harmony,2023.2.3,Win32,60.18295619,679.1947,680.1917,,,,,,,,,,,,,,,,,,,,,,,,,,680.1917,680.7393,z,1,0.5347,,680.7393,680.7393,,0,333,333,193,1,194,yokın,,,,,5,harmonic,1.85,nw,z,,,,,,,
,,,,,,,,,,,,001,2023-11-07_15h54.24.300,vowel_harmony,2023.2.3,Win32,60.18295619,680.7397,681.7378,,,,,,,,,,,,,,,,,,,,,,,,,,681.7378,682.2854,m,1,0.5312,,682.2855,682.2856,,0,334,334,102,1,103,esas,1965,89.2818,1795,0.1962,4,notharmonic,1.75,word,m,,,,,,,
,,,,,,,,,,,,001,2023-11-07_15h54.24.300,vowel_harmony,2023.2.3,Win32,60.18295619,682.2859,683.2834,,,,,,,,,,,,,,,,,,,,,,,,,,683.2834,683.848,m,1,0.5483,,683.8481,683.8482,,0,335,335,143,1,144,kitap,8359,379.7998,6786,0.7418,5,notharmonic,1.9,word,m,,,,,,,
,,,,,,,,,,,,001,2023-11-07_15h54.24.300,vowel_harmony,2023.2.3,Win32,60.18295619,683.8485,684.8453,,,,,,,,,,,,,,,,,,,,,,,,,,684.8453,685.3597,m,1,0.4992,,685.3597,685.3597,,0,336,336,139,1,140,lira,1253,56.9314,947,0.1035,4,notharmonic,1.4,word,m,,,,,,,
,,,,,,,,,,,,001,2023-11-07_15h54.24.300,vowel_harmony,2023.2.3,Win32,60.18295619,685.36,686.3583,,,,,,,,,,,,,,,,,,,,,,,,,,686.3583,686.94,z,1,0.5614,,686.94,686.9401,,0,337,337,249,1,250,hurıt,,,,,5,harmonic,1.95,nw,z,,,,,,,
,,,,,,,,,,,,001,2023-11-07_15h54.24.300,vowel_harmony,2023.2.3,Win32,60.18295619,686.9404,687.9363,,,,,,,,,,,,,,,,,,,,,,,,,,687.9363,688.7176,z,1,0.7649,,688.7177,688.7177,,0,338,338,330,1,331,vahçe,,,,,5,notharmonic,1.9,nw,z,,,,,,,
,,,,,,,,,,,,001,2023-11-07_15h54.24.300,vowel_harmony,2023.2.3,Win32,60.18295619,688.718,689.7151,,,,,,,,,,,,,,,,,,,,,,,,,,689.7151,690.3636,z,1,0.632,,690.3636,690.3637,,0,339,339,223,1,224,kakon,,,,,5,harmonic,1.85,nw,z,,,,,,,
,,,,,,,,,,,,001,2023-11-07_15h54.24.300,vowel_harmony,2023.2.3,Win32,60.18295619,690.3641,691.3611,,,,,,,,,,,,,,,,,,,,,,,,,,691.3612,691.9756,z,1,0.5983,,691.9757,691.9757,,0,340,340,329,1,330,taif,,,,,4,notharmonic,1.8,nw,z,,,,,,,
,,,,,,,,,,,,001,2023-11-07_15h54.24.300,vowel_harmony,2023.2.3,Win32,60.18295619,691.9761,692.9731,,,,,,,,,,,,,,,,,,,,,,,,,,692.9732,693.5217,z,1,0.5355,,693.5218,693.5219,,0,341,341,340,1,341,minya,,,,,5,notharmonic,1.95,nw,z,,,,,,,
,,,,,,,,,,,,001,2023-11-07_15h54.24.300,vowel_harmony,2023.2.3,Win32,60.18295619,693.5222,694.5192,,,,,,,,,,,,,,,,,,,,,,,,,,694.5192,695.0017,z,1,0.472,,695.0019,695.0019,,0,342,342,281,1,282,afel,,,,,4,notharmonic,1.8,nw,z,,,,,,,
,,,,,,,,,,,,001,2023-11-07_15h54.24.300,vowel_harmony,2023.2.3,Win32,60.18295619,695.0022,695.9983,,,,,,,,,,,,,,,,,,,,,,,,,,695.9984,696.6795,z,1,0.6643,,696.6795,696.6796,,0,343,343,294,1,295,mesap,,,,,5,notharmonic,1.8,nw,z,,,,,,,
,,,,,,,,,,,,001,2023-11-07_15h54.24.300,vowel_harmony,2023.2.3,Win32,60.18295619,696.6799,697.6769,,,,,,,,,,,,,,,,,,,,,,,,,,697.6769,698.3914,m,1,0.7016,,698.3915,698.3915,,0,344,344,150,1,151,sabit,1046,47.5261,915,0.1,5,notharmonic,1.75,word,m,,,,,,,
,,,,,,,,,,,,001,2023-11-07_15h54.24.300,vowel_harmony,2023.2.3,Win32,60.18295619,698.3919,699.3888,,,,,,,,,,,,,,,,,,,,,,,,,,699.3889,700.0535,z,1,0.6476,,700.0535,700.0536,,0,345,345,319,1,320,biho,,,,,4,notharmonic,2,nw,z,,,,,,,
,,,,,,,,,,,,001,2023-11-07_15h54.24.300,vowel_harmony,2023.2.3,Win32,60.18295619,700.0539,701.051,,,,,,,,,,,,,,,,,,,,,,,,,,701.051,701.7166,z,1,0.6453,,701.7166,701.7167,,0,346,346,293,1,294,esnan,,,,,5,notharmonic,1.85,nw,z,,,,,,,
,,,,,,,,,,,,001,2023-11-07_15h54.24.300,vowel_harmony,2023.2.3,Win32,60.18295619,701.717,702.714,,,,,,,,,,,,,,,,,,,,,,,,,,702.7141,703.3283,m,1,0.6003,,703.3284,703.3284,,0,347,347,111,1,112,kahve,2634,119.6785,2283,0.2496,5,notharmonic,1.85,word,m,,,,,,,
,,,,,,,,,,,,001,2023-11-07_15h54.24.300,vowel_harmony,2023.2.3,Win32,60.18295619,703.3287,704.3259,,,,,,,,,,,,,,,,,,,,,,,,,,704.3259,704.9404,m,1,0.5991,,704.9404,704.9405,,0,348,348,115,1,116,saniye,1088,49.4344,984,0.1076,6,notharmonic,1.35,word,m,,,,,,,
,,,,,,,,,,,,001,2023-11-07_15h54.24.300,vowel_harmony,2023.2.3,Win32,60.18295619,704.9408,705.9378,,,,,,,,,,,,,,,,,,,,,,,,,,705.9378,706.4864,m,1,0.5356,,706.4865,706.4866,,0,349,349,142,1,143,siyasi,2909,132.1734,2445,0.2673,6,notharmonic,1.8,word,m,,,,,,,
,,,,,,,,,,,,001,2023-11-07_15h54.24.300,vowel_harmony,2023.2.3,Win32,60.18295619,706.4869,707.4839,,,,,,,,,,,,,,,,,,,,,,,,,,707.484,708.2485,z,1,0.7461,,708.2485,708.2487,,0,350,350,347,1,348,tekram,,,,,6,notharmonic,1.95,nw,z,,,,,,,
,,,,,,,,,,,,001,2023-11-07_15h54.24.300,vowel_harmony,2023.2.3,Win32,60.18295619,708.2491,709.2459,,,,,,,,,,,,,,,,,,,,,,,,,,709.2459,709.8103,m,1,0.5489,,709.8103,709.8104,,0,351,351,175,1,176,aile,3655,166.0687,3126,0.3417,4,notharmonic,1,word,m,,,,,,,
,,,,,,,,,,,,001,2023-11-07_15h54.24.300,vowel_harmony,2023.2.3,Win32,60.18295619,709.8107,710.8077,,,,,,,,,,,,,,,,,,,,,,,,,,710.8077,711.4735,z,1,0.6493,,711.4735,711.4735,,0,352,352,272,1,273,daken,,,,,5,notharmonic,1.8,nw,z,,,,,,,
,,,,,,,,,,,,001,2023-11-07_15h54.24.300,vowel_harmony,2023.2.3,Win32,60.18295619,711.4739,712.4709,,,,,,,,,,,,,,,,,,,,,,,,,,712.4709,713.0354,m,1,0.5549,,713.0354,713.0355,,0,353,353,74,1,75,başarı,1398,63.5196,1300,0.1421,6,harmonic,1.2,word,m,,,,,,,
,,,,,,,,,,,,001,2023-11-07_15h54.24.300,vowel_harmony,2023.2.3,Win32,60.18295619,713.0358,714.0329,,,,,,,,,,,,,,,,,,,,,,,,,,714.033,714.5475,m,1,0.498,,714.5476,714.5476,,0,354,354,92,1,93,sahne,1380,62.7017,1238,0.1353,5,notharmonic,1.65,word,m,,,,,,,
,,,,,,,,,,,,001,2023-11-07_15h54.24.300,vowel_harmony,2023.2.3,Win32,60.18295619,714.5479,715.5458,,,,,,,,,,,,,,,,,,,,,,,,,,715.5459,716.1103,z,1,0.5534,,716.1105,716.1105,,0,355,355,292,1,293,kinam,,,,,5,notharmonic,1.85,nw,z,,,,,,,
,,,,,,,,,,,,001,2023-11-07_15h54.24.300,vowel_harmony,2023.2.3,Win32,60.18295619,716.1109,717.1078,,,,,,,,,,,,,,,,,,,,,,,,,,717.1079,717.6557,m,1,0.5326,,717.6557,717.6558,,0,356,356,61,1,62,yıldız,1775,80.649,1532,0.1675,6,harmonic,1.6,word,m,,,,,,,
,,,,,,,,,,,,001,2023-11-07_15h54.24.300,vowel_harmony,2023.2.3,Win32,60.18295619,717.6562,718.6539,,,,,,,,,,,,,,,,,,,,,,,,,,718.6539,719.3014,m,1,0.6312,,719.3014,719.3015,,0,357,357,149,1,150,ceza,2611,118.6335,2169,0.2371,4,notharmonic,1.5,word,m,,,,,,,
,,,,,,,,,,,,001,2023-11-07_15h54.24.300,vowel_harmony,2023.2.3,Win32,60.18295619,719.3019,720.2989,,,,,,,,,,,,,,,,,,,,,,,,,,720.2989,720.8147,m,1,0.4956,,720.8148,720.8149,,0,358,358,96,1,97,dahil,3189,144.8955,3060,0.3345,5,notharmonic,1.7,word,m,,,,,,,
,,,,,,,,,,,,001,2023-11-07_15h54.24.300,vowel_harmony,2023.2.3,Win32,60.18295619,720.8153,721.8112,,,,,,,,,,,,,,,,,,,,,,,,,,721.8112,722.3768,m,0,0.5536,,722.3768,722.3769,,0,359,359,358,1,359,yangin,,,,,6,notharmonic,1.9,nw,z,,,,,,,
,,,,,,,,,,,,001,2023-11-07_15h54.24.300,vowel_harmony,2023.2.3,Win32,60.18295619,,,,,,,,,,,,,,,,,,,,,,,,,,,,,,,,,,,,,,,,,,,,,,,,,,,,,,,722.3774,724.1889,space,1.7975,