Welcome_screen.started,Welcome_screen.stopped,key_respwelcome.keys,key_respwelcome.rt,key_respwelcome.duration,intro_x.thisRepN,intro_x.thisTrialN,intro_x.thisN,intro_x.thisIndex,intro_x.ran,Introduction,participant,session,date,expName,psychopyVersion,OS,frameRate,Fixation.started,Fixation.stopped,Studypractice.started,Studypractice.stopped,key_respstudy.keys,key_respstudy.corr,key_respstudy.rt,key_respstudy.duration,rt,corr,Feedback.started,Feedback.stopped,practice_loop.thisRepN,practice_loop.thisTrialN,practice_loop.thisN,practice_loop.thisIndex,practice_loop.ran,item_nr_p,target_p,isHarmonic_p,target_cond_p,CorrAns_p,Instraction.started,Instraction.stopped,key_respınstraction.keys,key_respınstraction.rt,key_respınstraction.duration,TestTrial.started,TestTrial.stopped,key_respTest.keys,key_respTest.corr,key_respTest.rt,key_respTest.duration,Pause.started,Pause.stopped,key_resp_xx.keys,test_loop.thisRepN,test_loop.thisTrialN,test_loop.thisN,test_loop.thisIndex,test_loop.ran,item_nr,target,BlogFreq_A1,BlogFreqpm_A1,BlogCD_A1,BlogCDPc_A1,WordLength_A1,isHarmonic_A1,old20,target_cond,CorrAns,key_resp_xx.rt,key_resp_xx.duration,Goodbye_screen.started,Goodbye_screen.stopped,key_respgoodbye.keys,key_respgoodbye.rt,key_respgoodbye.duration
0.0273,2.3072,space,2.2499,,0,0,0,0,1,"Deneye hoş geldiniz,

Devam etmek için BOŞLUK tuşuna basınız.",aksa,001,2023-11-08_11h25.55.393,vowel_harmony,2023.2.3,Win32,60.07088364,,,,,,,,,,,,,,,,,,,,,,,,,,,,,,,,,,,,,,,,,,,,,,,,,,,,,,,,,,,
2.3091,14.9757,space,12.639,,0,1,1,1,1,"Bu çalışma Valencia Üniversitesi kapsamında yürütülmektedir. Deneydeki göreviniz, ekrana çıkacak Türkçe sözcüklerin kelime olup olmadığını belirlemenizdir. Eğer sözcük gerçek bir kelime ise ""m"" tuşuna, değil ise ""z"" tuşuna basınız.   

Devam etmek için BOŞLUK tuşuna basınız.",aksa,001,2023-11-08_11h25.55.393,vowel_harmony,2023.2.3,Win32,60.07088364,,,,,,,,,,,,,,,,,,,,,,,,,,,,,,,,,,,,,,,,,,,,,,,,,,,,,,,,,,,
14.9761,22.6388,space,7.6383,,0,2,2,2,1,"Her sözcük için en fazla iki saniyede cevap vermeniz beklenmektedir. Aksi takdirde deney bir sonraki sözcük ile devam eder. 
Bu çalışmada oldukça hızlı ve doğru cevaplama yapmanız beklenmektedir.

Devam etmek için BOŞLUK tuşuna basınız.",aksa,001,2023-11-08_11h25.55.393,vowel_harmony,2023.2.3,Win32,60.07088364,,,,,,,,,,,,,,,,,,,,,,,,,,,,,,,,,,,,,,,,,,,,,,,,,,,,,,,,,,,
22.6393,27.5574,space,4.8853,,0,3,3,3,1,"Çalışmaya başlamadan önce ufak bir pratik yer almaktadır.
Kelimedir: ""m""
Kelime değildir: ""z""

Pratik teste başlamak için BOŞLUK tuşuna basınız. ",aksa,001,2023-11-08_11h25.55.393,vowel_harmony,2023.2.3,Win32,60.07088364,,,,,,,,,,,,,,,,,,,,,,,,,,,,,,,,,,,,,,,,,,,,,,,,,,,,,,,,,,,
,,,,,,,,,,,aksa,001,2023-11-08_11h25.55.393,vowel_harmony,2023.2.3,Win32,60.07088364,27.5742,28.5747,28.5751,30.2902,z,1,1.676,,1.676,1,30.2909,31.7834,0,0,0,14,1,15,pimer,harmonic,nw,z,,,,,,,,,,,,,,,,,,,,,,,,,,,,,,,,,,,,,
,,,,,,,,,,,aksa,001,2023-11-08_11h25.55.393,vowel_harmony,2023.2.3,Win32,60.07088364,31.7841,32.7725,32.7725,33.6339,m,1,0.8345,,0.8345,1,33.6342,35.1224,0,1,1,7,1,8,oran,harmonic,word,m,,,,,,,,,,,,,,,,,,,,,,,,,,,,,,,,,,,,,
,,,,,,,,,,,aksa,001,2023-11-08_11h25.55.393,vowel_harmony,2023.2.3,Win32,60.07088364,35.124,36.1209,36.121,36.9081,m,1,0.7616,,0.7616,1,36.9082,38.4032,0,2,2,3,1,4,ihlal,notharmonic,word,m,,,,,,,,,,,,,,,,,,,,,,,,,,,,,,,,,,,,,
,,,,,,,,,,,aksa,001,2023-11-08_11h25.55.393,vowel_harmony,2023.2.3,Win32,60.07088364,38.4048,39.4023,39.4025,40.2181,m,1,0.7889,,0.7889,1,40.2183,41.7285,0,3,3,0,1,1,ihale,notharmonic,word,m,,,,,,,,,,,,,,,,,,,,,,,,,,,,,,,,,,,,,
,,,,,,,,,,,aksa,001,2023-11-08_11h25.55.393,vowel_harmony,2023.2.3,Win32,60.07088364,41.729,42.7271,42.7271,43.2891,m,1,0.5454,,0.5454,1,43.2892,44.7824,0,4,4,4,1,5,mimar,notharmonic,word,m,,,,,,,,,,,,,,,,,,,,,,,,,,,,,,,,,,,,,
,,,,,,,,,,,aksa,001,2023-11-08_11h25.55.393,vowel_harmony,2023.2.3,Win32,60.07088364,44.7828,45.7817,45.7818,46.398,m,1,0.5976,,0.5976,1,46.3981,47.8975,0,5,5,1,1,2,veri,harmonic,word,m,,,,,,,,,,,,,,,,,,,,,,,,,,,,,,,,,,,,,
,,,,,,,,,,,aksa,001,2023-11-08_11h25.55.393,vowel_harmony,2023.2.3,Win32,60.07088364,47.8979,48.8967,48.8968,50.1462,z,1,1.2282,,1.2282,1,50.1464,51.6454,0,6,6,8,1,9,tahip,notharmonic,nw,z,,,,,,,,,,,,,,,,,,,,,,,,,,,,,,,,,,,,,
,,,,,,,,,,,aksa,001,2023-11-08_11h25.55.393,vowel_harmony,2023.2.3,Win32,60.07088364,51.6458,52.6456,52.6457,53.4953,z,1,0.8232,,0.8232,1,53.4954,54.9942,0,7,7,10,1,11,mahne,notharmonic,nw,z,,,,,,,,,,,,,,,,,,,,,,,,,,,,,,,,,,,,,
,,,,,,,,,,,aksa,001,2023-11-08_11h25.55.393,vowel_harmony,2023.2.3,Win32,60.07088364,54.9988,55.9937,55.9938,56.7274,z,1,0.7045,,0.7045,1,56.7276,58.226,0,8,8,13,1,14,pilar,notharmonic,nw,z,,,,,,,,,,,,,,,,,,,,,,,,,,,,,,,,,,,,,
,,,,,,,,,,,aksa,001,2023-11-08_11h25.55.393,vowel_harmony,2023.2.3,Win32,60.07088364,58.2269,59.2196,59.2196,59.8356,m,1,0.5987,,0.5987,1,59.8356,61.3248,0,9,9,2,1,3,memur,notharmonic,word,m,,,,,,,,,,,,,,,,,,,,,,,,,,,,,,,,,,,,,
,,,,,,,,,,,aksa,001,2023-11-08_11h25.55.393,vowel_harmony,2023.2.3,Win32,60.07088364,61.3259,62.3239,62.324,63.0402,z,1,0.689,,0.689,1,63.0405,64.5336,0,10,10,15,1,16,mımal,harmonic,nw,z,,,,,,,,,,,,,,,,,,,,,,,,,,,,,,,,,,,,,
,,,,,,,,,,,aksa,001,2023-11-08_11h25.55.393,vowel_harmony,2023.2.3,Win32,60.07088364,64.5339,65.5231,65.5232,66.2005,m,1,0.6506,,0.6506,1,66.2005,67.6885,0,11,11,6,1,7,pilot,notharmonic,word,m,,,,,,,,,,,,,,,,,,,,,,,,,,,,,,,,,,,,,
,,,,,,,,,,,aksa,001,2023-11-08_11h25.55.393,vowel_harmony,2023.2.3,Win32,60.07088364,67.69,68.6879,68.688,69.5709,z,1,0.8519,,0.8519,1,69.5711,71.0696,0,12,12,11,1,12,geki,harmonic,nw,z,,,,,,,,,,,,,,,,,,,,,,,,,,,,,,,,,,,,,
,,,,,,,,,,,aksa,001,2023-11-08_11h25.55.393,vowel_harmony,2023.2.3,Win32,60.07088364,71.0705,72.0703,72.0704,72.5575,m,1,0.4599,,0.4599,1,72.5577,74.0526,0,13,13,5,1,6,bahçe,notharmonic,word,m,,,,,,,,,,,,,,,,,,,,,,,,,,,,,,,,,,,,,
,,,,,,,,,,,aksa,001,2023-11-08_11h25.55.393,vowel_harmony,2023.2.3,Win32,60.07088364,74.0543,75.0519,75.0522,75.6685,z,1,0.5846,,0.5846,1,75.6687,77.1608,0,14,14,12,1,13,ihlot,notharmonic,nw,z,,,,,,,,,,,,,,,,,,,,,,,,,,,,,,,,,,,,,
,,,,,,,,,,,aksa,001,2023-11-08_11h25.55.393,vowel_harmony,2023.2.3,Win32,60.07088364,77.1612,78.1503,78.1505,78.8939,z,1,0.7172,,0.7172,1,78.894,80.3918,0,15,15,9,1,10,orat,harmonic,nw,z,,,,,,,,,,,,,,,,,,,,,,,,,,,,,,,,,,,,,
,,,,,,,,,,,aksa,001,2023-11-08_11h25.55.393,vowel_harmony,2023.2.3,Win32,60.07088364,,,,,,,,,,,,,,,,,,,,,,,80.3927,85.6147,space,5.1947,,,,,,,,,,,,,,,,,,,,,,,,,,,,,,,,,
,,,,,,,,,,,aksa,001,2023-11-08_11h25.55.393,vowel_harmony,2023.2.3,Win32,60.07088364,85.7104,86.6288,,,,,,,,,,,,,,,,,,,,,,,,,,86.6294,87.2127,m,1,0.529,,87.2131,87.2163,,0,0,0,156,1,157,medya,1784,81.0579,1495,0.1634,5,notharmonic,1.35,word,m,,,,,,,
,,,,,,,,,,,aksa,001,2023-11-08_11h25.55.393,vowel_harmony,2023.2.3,Win32,60.07088364,87.2166,88.2114,,,,,,,,,,,,,,,,,,,,,,,,,,88.2117,88.7786,m,1,0.5391,,88.7789,88.7793,,0,1,1,177,1,178,tekrar,10788,490.1639,9352,1.0224,6,notharmonic,1.85,word,m,,,,,,,
,,,,,,,,,,,aksa,001,2023-11-08_11h25.55.393,vowel_harmony,2023.2.3,Win32,60.07088364,88.7809,89.7701,,,,,,,,,,,,,,,,,,,,,,,,,,89.7701,90.237,m,1,0.4471,,90.2371,90.2372,,0,2,2,143,1,144,kitap,8359,379.7998,6786,0.7418,5,notharmonic,1.9,word,m,,,,,,,
,,,,,,,,,,,aksa,001,2023-11-08_11h25.55.393,vowel_harmony,2023.2.3,Win32,60.07088364,90.2376,91.2269,,,,,,,,,,,,,,,,,,,,,,,,,,91.2271,91.7593,z,1,0.4894,,91.7594,91.7596,,0,3,3,196,1,197,bilön,,,,,5,harmonic,1.9,nw,z,,,,,,,
,,,,,,,,,,,aksa,001,2023-11-08_11h25.55.393,vowel_harmony,2023.2.3,Win32,60.07088364,91.7603,92.7585,,,,,,,,,,,,,,,,,,,,,,,,,,92.7585,93.3424,m,1,0.5594,,93.3424,93.3428,,0,4,4,87,1,88,mümkün,6604,300.0596,6264,0.6848,6,harmonic,1.9,word,m,,,,,,,
,,,,,,,,,,,aksa,001,2023-11-08_11h25.55.393,vowel_harmony,2023.2.3,Win32,60.07088364,93.3437,94.3416,,,,,,,,,,,,,,,,,,,,,,,,,,94.3417,94.9689,z,1,0.6074,,94.969,94.9691,,0,5,5,266,1,267,düştön,,,,,6,harmonic,1.9,nw,z,,,,,,,
,,,,,,,,,,,aksa,001,2023-11-08_11h25.55.393,vowel_harmony,2023.2.3,Win32,60.07088364,94.9695,95.9579,,,,,,,,,,,,,,,,,,,,,,,,,,95.9582,96.5234,m,1,0.5287,,96.5235,96.5236,,0,6,6,126,1,127,adet,4367,198.4192,3768,0.4119,4,notharmonic,1.4,word,m,,,,,,,
,,,,,,,,,,,aksa,001,2023-11-08_11h25.55.393,vowel_harmony,2023.2.3,Win32,60.07088364,96.5241,97.5227,,,,,,,,,,,,,,,,,,,,,,,,,,97.5228,98.0726,m,1,0.5296,,98.0726,98.0728,,0,7,7,123,1,124,haber,4559,207.1429,4151,0.4538,5,notharmonic,1.85,word,m,,,,,,,
,,,,,,,,,,,aksa,001,2023-11-08_11h25.55.393,vowel_harmony,2023.2.3,Win32,60.07088364,98.0732,99.0721,,,,,,,,,,,,,,,,,,,,,,,,,,99.0721,99.5829,m,1,0.4887,,99.5829,99.5831,,0,8,8,65,1,66,fikir,2552,115.9528,2413,0.2638,5,harmonic,1.9,word,m,,,,,,,
,,,,,,,,,,,aksa,001,2023-11-08_11h25.55.393,vowel_harmony,2023.2.3,Win32,60.07088364,99.5834,100.5723,,,,,,,,,,,,,,,,,,,,,,,,,,100.5725,101.1071,z,1,0.5023,,101.1074,101.1093,,0,9,9,222,1,223,gelü,,,,,4,harmonic,1.75,nw,z,,,,,,,
,,,,,,,,,,,aksa,001,2023-11-08_11h25.55.393,vowel_harmony,2023.2.3,Win32,60.07088364,101.1098,102.1054,,,,,,,,,,,,,,,,,,,,,,,,,,102.1056,102.6037,m,1,0.4605,,102.6038,102.6039,,0,10,10,140,1,141,sahil,481,21.8547,443,0.0484,5,notharmonic,1.45,word,m,,,,,,,
,,,,,,,,,,,aksa,001,2023-11-08_11h25.55.393,vowel_harmony,2023.2.3,Win32,60.07088364,102.6043,103.6033,,,,,,,,,,,,,,,,,,,,,,,,,,103.6034,104.1696,m,1,0.5415,,104.1697,104.1698,,0,11,11,139,1,140,lira,1253,56.9314,947,0.1035,4,notharmonic,1.4,word,m,,,,,,,
,,,,,,,,,,,aksa,001,2023-11-08_11h25.55.393,vowel_harmony,2023.2.3,Win32,60.07088364,104.1703,105.1691,,,,,,,,,,,,,,,,,,,,,,,,,,105.1691,105.6883,m,1,0.4885,,105.6886,105.6896,,0,12,12,124,1,125,ilan,1579,71.7435,1499,0.1639,4,notharmonic,1,word,m,,,,,,,
,,,,,,,,,,,aksa,001,2023-11-08_11h25.55.393,vowel_harmony,2023.2.3,Win32,60.07088364,105.6916,106.685,,,,,,,,,,,,,,,,,,,,,,,,,,106.6851,107.368,z,1,0.6607,,107.3681,107.3682,,0,13,13,184,1,185,yapor,,,,,5,harmonic,1.9,nw,z,,,,,,,
,,,,,,,,,,,aksa,001,2023-11-08_11h25.55.393,vowel_harmony,2023.2.3,Win32,60.07088364,107.3688,108.3676,,,,,,,,,,,,,,,,,,,,,,,,,,108.3677,108.9175,z,1,0.5224,,108.9175,108.9177,,0,14,14,192,1,193,vecö,,,,,4,harmonic,1.95,nw,z,,,,,,,
,,,,,,,,,,,aksa,001,2023-11-08_11h25.55.393,vowel_harmony,2023.2.3,Win32,60.07088364,108.9182,109.9168,,,,,,,,,,,,,,,,,,,,,,,,,,109.9168,110.5832,z,1,0.6464,,110.5832,110.5833,,0,15,15,292,1,293,kinam,,,,,5,notharmonic,1.85,nw,z,,,,,,,
,,,,,,,,,,,aksa,001,2023-11-08_11h25.55.393,vowel_harmony,2023.2.3,Win32,60.07088364,110.5838,111.5831,,,,,,,,,,,,,,,,,,,,,,,,,,111.5833,112.184,m,1,0.5684,,112.1842,112.1847,,0,16,16,122,1,123,devam,17666,802.673,16284,1.7802,5,notharmonic,1.55,word,m,,,,,,,
,,,,,,,,,,,aksa,001,2023-11-08_11h25.55.393,vowel_harmony,2023.2.3,Win32,60.07088364,112.1864,113.1823,,,,,,,,,,,,,,,,,,,,,,,,,,113.1825,113.6987,m,1,0.4843,,113.6989,113.6991,,0,17,17,128,1,129,tatil,2152,97.7783,1865,0.2039,5,notharmonic,1.7,word,m,,,,,,,
,,,,,,,,,,,aksa,001,2023-11-08_11h25.55.393,vowel_harmony,2023.2.3,Win32,60.07088364,113.6999,114.7082,,,,,,,,,,,,,,,,,,,,,,,,,,114.7082,115.2974,z,1,0.5593,,115.2974,115.2976,,0,18,18,291,1,292,mepan,,,,,5,notharmonic,1.75,nw,z,,,,,,,
,,,,,,,,,,,aksa,001,2023-11-08_11h25.55.393,vowel_harmony,2023.2.3,Win32,60.07088364,115.298,116.2975,,,,,,,,,,,,,,,,,,,,,,,,,,116.2976,116.8466,m,1,0.5212,,116.8466,116.8467,,0,19,19,89,1,90,etki,1234,56.0681,1169,0.1278,4,harmonic,1.4,word,m,,,,,,,
,,,,,,,,,,,aksa,001,2023-11-08_11h25.55.393,vowel_harmony,2023.2.3,Win32,60.07088364,116.8471,117.8467,,,,,,,,,,,,,,,,,,,,,,,,,,117.8468,118.3802,m,1,0.5009,,118.3803,118.3808,,0,20,20,4,1,5,metre,1156,52.5241,1015,0.111,5,harmonic,1.7,word,m,,,,,,,
,,,,,,,,,,,aksa,001,2023-11-08_11h25.55.393,vowel_harmony,2023.2.3,Win32,60.07088364,118.3823,119.3792,,,,,,,,,,,,,,,,,,,,,,,,,,119.3794,119.8957,m,1,0.4844,,119.8957,119.896,,0,21,21,25,1,26,rapor,703,31.9415,617,0.0675,5,harmonic,1.8,word,m,,,,,,,
,,,,,,,,,,,aksa,001,2023-11-08_11h25.55.393,vowel_harmony,2023.2.3,Win32,60.07088364,119.8968,120.8955,,,,,,,,,,,,,,,,,,,,,,,,,,120.8955,121.4284,z,1,0.4911,,121.4284,121.4288,,0,22,22,212,1,213,ortat,,,,,5,harmonic,1.7,nw,z,,,,,,,
,,,,,,,,,,,aksa,001,2023-11-08_11h25.55.393,vowel_harmony,2023.2.3,Win32,60.07088364,121.4298,122.4279,,,,,,,,,,,,,,,,,,,,,,,,,,122.4279,122.9769,z,1,0.5249,,122.977,122.9771,,0,23,23,244,1,245,kaof,,,,,4,harmonic,1.9,nw,z,,,,,,,
,,,,,,,,,,,aksa,001,2023-11-08_11h25.55.393,vowel_harmony,2023.2.3,Win32,60.07088364,122.9774,123.9766,,,,,,,,,,,,,,,,,,,,,,,,,,123.9766,124.5928,z,1,0.5908,,124.5929,124.593,,0,24,24,199,1,200,movu,,,,,4,harmonic,1.9,nw,z,,,,,,,
,,,,,,,,,,,aksa,001,2023-11-08_11h25.55.393,vowel_harmony,2023.2.3,Win32,60.07088364,124.5935,125.5923,,,,,,,,,,,,,,,,,,,,,,,,,,125.5923,126.2093,m,1,0.5941,,126.2094,126.2098,,0,25,25,154,1,155,sakin,1855,84.2838,1635,0.1787,5,notharmonic,1.05,word,m,,,,,,,
,,,,,,,,,,,aksa,001,2023-11-08_11h25.55.393,vowel_harmony,2023.2.3,Win32,60.07088364,126.2109,127.2087,,,,,,,,,,,,,,,,,,,,,,,,,,127.2088,128.0427,m,1,0.8074,,128.0428,128.0433,,0,26,26,137,1,138,parti,2613,118.7244,2059,0.2251,5,notharmonic,1.8,word,m,,,,,,,
,,,,,,,,,,,aksa,001,2023-11-08_11h25.55.393,vowel_harmony,2023.2.3,Win32,60.07088364,128.0445,129.0417,,,,,,,,,,,,,,,,,,,,,,,,,,129.0419,129.6081,m,1,0.5387,,129.6087,129.6092,,0,27,27,153,1,154,inşaat,432,19.6284,376,0.0411,6,notharmonic,1.6,word,m,,,,,,,
,,,,,,,,,,,aksa,001,2023-11-08_11h25.55.393,vowel_harmony,2023.2.3,Win32,60.07088364,129.6113,130.6073,,,,,,,,,,,,,,,,,,,,,,,,,,130.6075,131.2905,z,1,0.6413,,131.2907,131.2911,,0,28,28,308,1,309,hafer,,,,,5,notharmonic,1.85,nw,z,,,,,,,
,,,,,,,,,,,aksa,001,2023-11-08_11h25.55.393,vowel_harmony,2023.2.3,Win32,60.07088364,131.292,132.2891,,,,,,,,,,,,,,,,,,,,,,,,,,132.2891,132.9221,z,1,0.6161,,132.9221,132.9222,,0,29,29,320,1,321,finak,,,,,5,notharmonic,1.85,nw,z,,,,,,,
,,,,,,,,,,,aksa,001,2023-11-08_11h25.55.393,vowel_harmony,2023.2.3,Win32,60.07088364,132.9226,133.9217,,,,,,,,,,,,,,,,,,,,,,,,,,133.9218,134.7723,z,1,0.8248,,134.7726,134.7729,,0,30,30,337,1,338,bakem,,,,,5,notharmonic,1.7,nw,z,,,,,,,
,,,,,,,,,,,aksa,001,2023-11-08_11h25.55.393,vowel_harmony,2023.2.3,Win32,60.07088364,134.7749,135.772,,,,,,,,,,,,,,,,,,,,,,,,,,135.7722,136.4878,m,1,0.6881,,136.488,136.4882,,0,31,31,12,1,13,konu,5400,245.3546,5110,0.5586,4,harmonic,1,word,m,,,,,,,
,,,,,,,,,,,aksa,001,2023-11-08_11h25.55.393,vowel_harmony,2023.2.3,Win32,60.07088364,136.4895,137.4879,,,,,,,,,,,,,,,,,,,,,,,,,,137.4881,138.1695,z,1,0.6436,,138.1696,138.1697,,0,32,32,293,1,294,esnan,,,,,5,notharmonic,1.85,nw,z,,,,,,,
,,,,,,,,,,,aksa,001,2023-11-08_11h25.55.393,vowel_harmony,2023.2.3,Win32,60.07088364,138.1703,139.169,,,,,,,,,,,,,,,,,,,,,,,,,,139.1692,139.852,z,1,0.6615,,139.8521,139.8523,,0,33,33,259,1,260,hayuk,,,,,5,harmonic,1.95,nw,z,,,,,,,
,,,,,,,,,,,aksa,001,2023-11-08_11h25.55.393,vowel_harmony,2023.2.3,Win32,60.07088364,139.8527,140.8515,,,,,,,,,,,,,,,,,,,,,,,,,,140.8515,141.5511,m,1,0.6667,,141.5512,141.5513,,0,34,34,120,1,121,ihmal,1002,45.5269,977,0.1068,5,notharmonic,1.65,word,m,,,,,,,
,,,,,,,,,,,aksa,001,2023-11-08_11h25.55.393,vowel_harmony,2023.2.3,Win32,60.07088364,141.5517,142.5513,,,,,,,,,,,,,,,,,,,,,,,,,,142.5513,143.2836,z,1,0.7081,,143.2837,143.2839,,0,35,35,238,1,239,kocı,,,,,4,harmonic,1.95,nw,z,,,,,,,
,,,,,,,,,,,aksa,001,2023-11-08_11h25.55.393,vowel_harmony,2023.2.3,Win32,60.07088364,143.2843,144.2832,,,,,,,,,,,,,,,,,,,,,,,,,,144.2832,144.8497,z,1,0.5395,,144.8497,144.8499,,0,36,36,241,1,242,porlam,,,,,6,harmonic,2,nw,z,,,,,,,
,,,,,,,,,,,aksa,001,2023-11-08_11h25.55.393,vowel_harmony,2023.2.3,Win32,60.07088364,144.8506,145.8497,,,,,,,,,,,,,,,,,,,,,,,,,,145.8497,146.3666,m,1,0.491,,146.3667,146.3671,,0,37,37,173,1,174,sade,1193,54.2052,1114,0.1218,4,notharmonic,1.55,word,m,,,,,,,
,,,,,,,,,,,aksa,001,2023-11-08_11h25.55.393,vowel_harmony,2023.2.3,Win32,60.07088364,146.3689,147.3659,,,,,,,,,,,,,,,,,,,,,,,,,,147.366,148.2651,m,1,0.8611,,148.2652,148.2655,,0,38,38,5,1,6,bebek,3301,149.9843,2794,0.3054,5,harmonic,1.6,word,m,,,,,,,
,,,,,,,,,,,aksa,001,2023-11-08_11h25.55.393,vowel_harmony,2023.2.3,Win32,60.07088364,148.2664,149.2642,,,,,,,,,,,,,,,,,,,,,,,,,,149.2642,149.881,m,1,0.5973,,149.8811,149.8813,,0,39,39,174,1,175,bugün,13879,630.6067,12842,1.4039,5,notharmonic,1.85,word,m,,,,,,,
,,,,,,,,,,,aksa,001,2023-11-08_11h25.55.393,vowel_harmony,2023.2.3,Win32,60.07088364,149.8821,150.8804,,,,,,,,,,,,,,,,,,,,,,,,,,150.8805,151.5355,z,1,0.6284,,151.5356,151.5357,,0,40,40,302,1,303,işgar,,,,,5,notharmonic,1.9,nw,z,,,,,,,
,,,,,,,,,,,aksa,001,2023-11-08_11h25.55.393,vowel_harmony,2023.2.3,Win32,60.07088364,151.5361,152.5299,,,,,,,,,,,,,,,,,,,,,,,,,,152.53,153.1128,m,1,0.5548,,153.113,153.1134,,0,41,41,161,1,162,komik,1617,73.4701,1506,0.1646,5,notharmonic,1.75,word,m,,,,,,,
,,,,,,,,,,,aksa,001,2023-11-08_11h25.55.393,vowel_harmony,2023.2.3,Win32,60.07088364,153.1147,154.113,,,,,,,,,,,,,,,,,,,,,,,,,,154.1132,154.8124,z,1,0.6579,,154.8126,154.8129,,0,42,42,281,1,282,afel,,,,,4,notharmonic,1.8,nw,z,,,,,,,
,,,,,,,,,,,aksa,001,2023-11-08_11h25.55.393,vowel_harmony,2023.2.3,Win32,60.07088364,154.8147,155.8112,,,,,,,,,,,,,,,,,,,,,,,,,,155.8114,156.4718,m,1,0.6341,,156.4719,156.472,,0,43,43,150,1,151,sabit,1046,47.5261,915,0.1,5,notharmonic,1.75,word,m,,,,,,,
,,,,,,,,,,,aksa,001,2023-11-08_11h25.55.393,vowel_harmony,2023.2.3,Win32,60.07088364,156.4725,157.4607,,,,,,,,,,,,,,,,,,,,,,,,,,157.4608,158.16,z,1,0.6608,,158.1601,158.1604,,0,44,44,208,1,209,yayram,,,,,6,harmonic,1.85,nw,z,,,,,,,
,,,,,,,,,,,aksa,001,2023-11-08_11h25.55.393,vowel_harmony,2023.2.3,Win32,60.07088364,158.1613,159.1598,,,,,,,,,,,,,,,,,,,,,,,,,,159.1598,159.842,z,1,0.6542,,159.8421,159.8422,,0,45,45,347,1,348,tekram,,,,,6,notharmonic,1.95,nw,z,,,,,,,
,,,,,,,,,,,aksa,001,2023-11-08_11h25.55.393,vowel_harmony,2023.2.3,Win32,60.07088364,159.8426,160.8417,,,,,,,,,,,,,,,,,,,,,,,,,,160.8417,161.3583,m,1,0.4887,,161.3584,161.3586,,0,46,46,135,1,136,hafif,3355,152.4379,3101,0.339,5,notharmonic,1.75,word,m,,,,,,,
,,,,,,,,,,,aksa,001,2023-11-08_11h25.55.393,vowel_harmony,2023.2.3,Win32,60.07088364,161.3592,162.3582,,,,,,,,,,,,,,,,,,,,,,,,,,162.3582,162.8907,m,1,0.504,,162.8908,162.8908,,0,47,47,108,1,109,tarih,2806,127.4935,2483,0.2714,5,notharmonic,1.55,word,m,,,,,,,
,,,,,,,,,,,aksa,001,2023-11-08_11h25.55.393,vowel_harmony,2023.2.3,Win32,60.07088364,162.8913,163.8901,,,,,,,,,,,,,,,,,,,,,,,,,,163.8901,164.4732,z,1,0.5582,,164.4732,164.4733,,0,48,48,248,1,249,şegim,,,,,5,harmonic,1.9,nw,z,,,,,,,
,,,,,,,,,,,aksa,001,2023-11-08_11h25.55.393,vowel_harmony,2023.2.3,Win32,60.07088364,164.4737,165.4728,,,,,,,,,,,,,,,,,,,,,,,,,,165.4728,166.0057,m,1,0.5139,,166.0059,166.006,,0,49,49,62,1,63,cümle,1911,86.8283,1765,0.193,5,harmonic,1.85,word,m,,,,,,,
,,,,,,,,,,,aksa,001,2023-11-08_11h25.55.393,vowel_harmony,2023.2.3,Win32,60.07088364,166.0063,167.0054,,,,,,,,,,,,,,,,,,,,,,,,,,167.0054,167.4885,m,1,0.4513,,167.4885,167.4887,,0,50,50,22,1,23,anlam,1730,78.6043,1617,0.1768,5,harmonic,1.25,word,m,,,,,,,
,,,,,,,,,,,aksa,001,2023-11-08_11h25.55.393,vowel_harmony,2023.2.3,Win32,60.07088364,167.4891,168.488,,,,,,,,,,,,,,,,,,,,,,,,,,168.488,168.9212,m,1,0.4137,,168.9213,168.9215,,0,51,51,83,1,84,küçük,14048,638.2854,12467,1.3629,5,harmonic,1.75,word,m,,,,,,,
,,,,,,,,,,,aksa,001,2023-11-08_11h25.55.393,vowel_harmony,2023.2.3,Win32,60.07088364,168.922,169.9205,,,,,,,,,,,,,,,,,,,,,,,,,,169.9205,170.4036,m,1,0.4584,,170.4036,170.4037,,0,52,52,11,1,12,umut,1988,90.3268,1818,0.1987,4,harmonic,1.55,word,m,,,,,,,
,,,,,,,,,,,aksa,001,2023-11-08_11h25.55.393,vowel_harmony,2023.2.3,Win32,60.07088364,170.4041,171.4033,,,,,,,,,,,,,,,,,,,,,,,,,,171.4034,171.8203,m,1,0.3863,,171.8203,171.8205,,0,53,53,49,1,50,şeker,4708,213.9128,4170,0.4559,5,harmonic,1.6,word,m,,,,,,,
,,,,,,,,,,,aksa,001,2023-11-08_11h25.55.393,vowel_harmony,2023.2.3,Win32,60.07088364,171.8215,172.8196,,,,,,,,,,,,,,,,,,,,,,,,,,172.8198,173.4764,z,1,0.6359,,173.4766,173.4767,,0,54,54,213,1,214,kaun,,,,,4,harmonic,1.7,nw,z,,,,,,,
,,,,,,,,,,,aksa,001,2023-11-08_11h25.55.393,vowel_harmony,2023.2.3,Win32,60.07088364,173.4773,174.4692,,,,,,,,,,,,,,,,,,,,,,,,,,174.4694,175.1685,z,1,0.6561,,175.1686,175.1689,,0,55,55,205,1,206,kahay,,,,,5,harmonic,1.9,nw,z,,,,,,,
,,,,,,,,,,,aksa,001,2023-11-08_11h25.55.393,vowel_harmony,2023.2.3,Win32,60.07088364,175.1698,176.1679,,,,,,,,,,,,,,,,,,,,,,,,,,176.1681,176.7678,m,1,0.5734,,176.7679,176.7681,,0,56,56,43,1,44,geniş,3380,153.5738,3185,0.3482,5,harmonic,1.35,word,m,,,,,,,
,,,,,,,,,,,aksa,001,2023-11-08_11h25.55.393,vowel_harmony,2023.2.3,Win32,60.07088364,176.769,177.7671,,,,,,,,,,,,,,,,,,,,,,,,,,177.7672,178.484,m,1,0.6866,,178.4842,178.4845,,0,57,57,105,1,106,sahip,10887,494.6621,9847,1.0765,5,notharmonic,1.25,word,m,,,,,,,
,,,,,,,,,,,aksa,001,2023-11-08_11h25.55.393,vowel_harmony,2023.2.3,Win32,60.07088364,178.4864,179.4837,,,,,,,,,,,,,,,,,,,,,,,,,,179.4839,180.0669,z,1,0.5555,,180.0671,180.0677,,0,58,58,327,1,328,parkeş,,,,,6,notharmonic,1.9,nw,z,,,,,,,
,,,,,,,,,,,aksa,001,2023-11-08_11h25.55.393,vowel_harmony,2023.2.3,Win32,60.07088364,180.0699,181.0663,,,,,,,,,,,,,,,,,,,,,,,,,,181.0665,181.5985,z,1,0.4935,,181.5986,181.5988,,0,59,59,309,1,310,yorgen,,,,,6,notharmonic,1.9,nw,z,,,,,,,
,,,,,,,,,,,aksa,001,2023-11-08_11h25.55.393,vowel_harmony,2023.2.3,Win32,60.07088364,181.5998,182.5983,,,,,,,,,,,,,,,,,,,,,,,,,,182.5984,183.0146,m,1,0.3901,,183.0147,183.0149,,0,60,60,165,1,166,gazete,1402,63.7013,1270,0.1388,6,notharmonic,1.8,word,m,,,,,,,
,,,,,,,,,,,aksa,001,2023-11-08_11h25.55.393,vowel_harmony,2023.2.3,Win32,60.07088364,183.0159,184.014,,,,,,,,,,,,,,,,,,,,,,,,,,184.0142,184.7314,z,1,0.6895,,184.7316,184.7319,,0,61,61,273,1,274,nimal,,,,,5,notharmonic,1.9,nw,z,,,,,,,
,,,,,,,,,,,aksa,001,2023-11-08_11h25.55.393,vowel_harmony,2023.2.3,Win32,60.07088364,184.7346,185.7303,,,,,,,,,,,,,,,,,,,,,,,,,,185.7305,186.2632,m,0,0.5016,,186.2635,186.2636,,0,62,62,186,1,187,habık,,,,,5,harmonic,1.9,nw,z,,,,,,,
,,,,,,,,,,,aksa,001,2023-11-08_11h25.55.393,vowel_harmony,2023.2.3,Win32,60.07088364,186.2648,187.2626,,,,,,,,,,,,,,,,,,,,,,,,,,187.2627,187.9789,m,1,0.679,,187.979,187.9793,,0,63,63,112,1,113,sezon,2315,105.1844,1917,0.2096,5,notharmonic,1.8,word,m,,,,,,,
,,,,,,,,,,,aksa,001,2023-11-08_11h25.55.393,vowel_harmony,2023.2.3,Win32,60.07088364,187.9802,188.9785,,,,,,,,,,,,,,,,,,,,,,,,,,188.9786,189.7116,z,1,0.7121,,189.7117,189.7121,,0,64,64,232,1,233,kanur,,,,,5,harmonic,1.7,nw,z,,,,,,,
,,,,,,,,,,,aksa,001,2023-11-08_11h25.55.393,vowel_harmony,2023.2.3,Win32,60.07088364,189.7131,190.7102,,,,,,,,,,,,,,,,,,,,,,,,,,190.7103,191.3267,m,1,0.5857,,191.3267,191.3268,,0,65,65,176,1,177,harika,4682,212.7315,4422,0.4834,6,notharmonic,1.9,word,m,,,,,,,
,,,,,,,,,,,aksa,001,2023-11-08_11h25.55.393,vowel_harmony,2023.2.3,Win32,60.07088364,191.3271,192.3261,,,,,,,,,,,,,,,,,,,,,,,,,,192.3262,193.0924,z,1,0.7455,,193.0925,193.0925,,0,66,66,209,1,210,sapor,,,,,5,harmonic,1.8,nw,z,,,,,,,
,,,,,,,,,,,aksa,001,2023-11-08_11h25.55.393,vowel_harmony,2023.2.3,Win32,60.07088364,193.093,194.0919,,,,,,,,,,,,,,,,,,,,,,,,,,194.092,194.6583,m,1,0.5357,,194.6584,194.6584,,0,67,67,91,1,92,ifade,6177,280.6584,5726,0.626,5,notharmonic,1.7,word,m,,,,,,,
,,,,,,,,,,,aksa,001,2023-11-08_11h25.55.393,vowel_harmony,2023.2.3,Win32,60.07088364,194.6588,195.658,,,,,,,,,,,,,,,,,,,,,,,,,,195.658,196.291,m,1,0.614,,196.291,196.2912,,0,68,68,68,1,69,ücret,734,33.35,634,0.0693,5,harmonic,1.85,word,m,,,,,,,
,,,,,,,,,,,aksa,001,2023-11-08_11h25.55.393,vowel_harmony,2023.2.3,Win32,60.07088364,196.2918,197.2904,,,,,,,,,,,,,,,,,,,,,,,,,,197.2904,198.0567,z,1,0.7367,,198.0567,198.0567,,0,69,69,341,1,342,işgan,,,,,5,notharmonic,1.95,nw,z,,,,,,,
,,,,,,,,,,,aksa,001,2023-11-08_11h25.55.393,vowel_harmony,2023.2.3,Win32,60.07088364,198.0571,199.0567,,,,,,,,,,,,,,,,,,,,,,,,,,199.0569,199.7565,z,1,0.673,,199.7565,199.7569,,0,70,70,262,1,263,sauk,,,,,4,harmonic,1.85,nw,z,,,,,,,
,,,,,,,,,,,aksa,001,2023-11-08_11h25.55.393,vowel_harmony,2023.2.3,Win32,60.07088364,199.758,200.7559,,,,,,,,,,,,,,,,,,,,,,,,,,200.756,201.5225,z,1,0.7362,,201.5226,201.5228,,0,71,71,211,1,212,yarum,,,,,5,harmonic,1.75,nw,z,,,,,,,
,,,,,,,,,,,aksa,001,2023-11-08_11h25.55.393,vowel_harmony,2023.2.3,Win32,60.07088364,201.524,202.5223,,,,,,,,,,,,,,,,,,,,,,,,,,202.5224,203.0996,z,1,0.551,,203.0997,203.0998,,0,72,72,249,1,250,hurıt,,,,,5,harmonic,1.95,nw,z,,,,,,,
,,,,,,,,,,,aksa,001,2023-11-08_11h25.55.393,vowel_harmony,2023.2.3,Win32,60.07088364,203.1004,204.1044,,,,,,,,,,,,,,,,,,,,,,,,,,204.1045,204.7207,m,1,0.5749,,204.7209,204.7211,,0,73,73,32,1,33,temel,4231,192.2399,3851,0.421,5,harmonic,1.55,word,m,,,,,,,
,,,,,,,,,,,aksa,001,2023-11-08_11h25.55.393,vowel_harmony,2023.2.3,Win32,60.07088364,204.722,205.7201,,,,,,,,,,,,,,,,,,,,,,,,,,205.7201,206.5364,z,0,0.7885,,206.5365,206.5368,,0,74,74,172,1,173,milyar,1496,67.9723,1078,0.1178,6,notharmonic,1.85,word,m,,,,,,,
,,,,,,,,,,,aksa,001,2023-11-08_11h25.55.393,vowel_harmony,2023.2.3,Win32,60.07088364,206.538,207.5359,,,,,,,,,,,,,,,,,,,,,,,,,,207.536,208.3359,z,1,0.7665,,208.3361,208.3364,,0,75,75,181,1,182,rapkı,,,,,5,harmonic,1.85,nw,z,,,,,,,
,,,,,,,,,,,aksa,001,2023-11-08_11h25.55.393,vowel_harmony,2023.2.3,Win32,60.07088364,208.338,209.3354,,,,,,,,,,,,,,,,,,,,,,,,,,209.3355,210.0519,z,1,0.685,,210.052,210.0524,,0,76,76,272,1,273,daken,,,,,5,notharmonic,1.8,nw,z,,,,,,,
,,,,,,,,,,,aksa,001,2023-11-08_11h25.55.393,vowel_harmony,2023.2.3,Win32,60.07088364,210.0544,211.0511,,,,,,,,,,,,,,,,,,,,,,,,,,211.0511,211.5841,m,1,0.4953,,211.5842,211.5844,,0,77,77,19,1,20,ödül,1063,48.2985,926,0.1012,4,harmonic,1.7,word,m,,,,,,,
,,,,,,,,,,,aksa,001,2023-11-08_11h25.55.393,vowel_harmony,2023.2.3,Win32,60.07088364,211.5853,212.5832,,,,,,,,,,,,,,,,,,,,,,,,,,212.5833,213.1832,z,1,0.5777,,213.1832,213.1834,,0,78,78,299,1,300,fihal,,,,,5,notharmonic,1.95,nw,z,,,,,,,
,,,,,,,,,,,aksa,001,2023-11-08_11h25.55.393,vowel_harmony,2023.2.3,Win32,60.07088364,213.1845,214.1827,,,,,,,,,,,,,,,,,,,,,,,,,,214.1827,214.8942,m,1,0.6845,,214.8942,214.8943,,0,79,79,171,1,172,reklam,1565,71.1074,1244,0.136,6,notharmonic,1.9,word,m,,,,,,,
,,,,,,,,,,,aksa,001,2023-11-08_11h25.55.393,vowel_harmony,2023.2.3,Win32,60.07088364,214.8949,215.8988,,,,,,,,,,,,,,,,,,,,,,,,,,215.8989,217.0815,m,1,1.1553,,217.0817,217.0819,,0,80,80,60,1,61,doğu,2105,95.6429,1823,0.1993,4,harmonic,1.05,word,m,,,,,,,
,,,,,,,,,,,aksa,001,2023-11-08_11h25.55.393,vowel_harmony,2023.2.3,Win32,60.07088364,217.0838,218.0812,,,,,,,,,,,,,,,,,,,,,,,,,,218.0815,218.7494,z,1,0.6407,,218.7497,218.7504,,0,81,81,301,1,302,mezak,,,,,5,notharmonic,1.8,nw,z,,,,,,,
,,,,,,,,,,,aksa,001,2023-11-08_11h25.55.393,vowel_harmony,2023.2.3,Win32,60.07088364,218.7516,219.7477,,,,,,,,,,,,,,,,,,,,,,,,,,219.7479,220.329,z,1,0.5437,,220.3291,220.3292,,0,82,82,287,1,288,haköm,,,,,5,notharmonic,1.9,nw,z,,,,,,,
,,,,,,,,,,,aksa,001,2023-11-08_11h25.55.393,vowel_harmony,2023.2.3,Win32,60.07088364,220.3297,221.3285,,,,,,,,,,,,,,,,,,,,,,,,,,221.3285,221.9116,m,1,0.5654,,221.9116,221.9117,,0,83,83,56,1,57,sağlam,1818,82.6027,1720,0.188,6,harmonic,1.6,word,m,,,,,,,
,,,,,,,,,,,aksa,001,2023-11-08_11h25.55.393,vowel_harmony,2023.2.3,Win32,60.07088364,221.9121,222.9111,,,,,,,,,,,,,,,,,,,,,,,,,,222.9112,223.7273,z,1,0.7873,,223.7274,223.7274,,0,84,84,220,1,221,denbi,,,,,5,harmonic,1.75,nw,z,,,,,,,
,,,,,,,,,,,aksa,001,2023-11-08_11h25.55.393,vowel_harmony,2023.2.3,Win32,60.07088364,223.7279,224.7269,,,,,,,,,,,,,,,,,,,,,,,,,,224.7269,225.3599,m,1,0.6146,,225.3599,225.3601,,0,85,85,1,1,2,erkek,6188,281.1582,5195,0.5679,5,harmonic,1.65,word,m,,,,,,,
,,,,,,,,,,,aksa,001,2023-11-08_11h25.55.393,vowel_harmony,2023.2.3,Win32,60.07088364,225.3606,226.3597,,,,,,,,,,,,,,,,,,,,,,,,,,226.3597,226.9601,m,1,0.5699,,226.9602,226.9605,,0,86,86,78,1,79,ulusal,1551,70.4713,1355,0.1481,6,harmonic,1.75,word,m,,,,,,,
,,,,,,,,,,,aksa,001,2023-11-08_11h25.55.393,vowel_harmony,2023.2.3,Win32,60.07088364,226.9621,227.9595,,,,,,,,,,,,,,,,,,,,,,,,,,227.9597,228.4824,m,1,0.4961,,228.4824,228.4827,,0,87,87,159,1,160,vakit,3476,157.9357,3298,0.3605,5,notharmonic,1.65,word,m,,,,,,,
,,,,,,,,,,,aksa,001,2023-11-08_11h25.55.393,vowel_harmony,2023.2.3,Win32,60.07088364,228.4835,229.4754,,,,,,,,,,,,,,,,,,,,,,,,,,229.4755,230.0915,z,1,0.5731,,230.0916,230.0919,,0,88,88,306,1,307,otet,,,,,4,notharmonic,1.95,nw,z,,,,,,,
,,,,,,,,,,,aksa,001,2023-11-08_11h25.55.393,vowel_harmony,2023.2.3,Win32,60.07088364,230.0928,231.091,,,,,,,,,,,,,,,,,,,,,,,,,,231.091,231.6242,m,0,0.5068,,231.6243,231.6246,,0,89,89,215,1,216,aydo,,,,,4,harmonic,1.9,nw,z,,,,,,,
,,,,,,,,,,,aksa,001,2023-11-08_11h25.55.393,vowel_harmony,2023.2.3,Win32,60.07088364,231.6256,232.6234,,,,,,,,,,,,,,,,,,,,,,,,,,232.6235,233.4736,m,1,0.8187,,233.4738,233.4742,,0,90,90,96,1,97,dahil,3189,144.8955,3060,0.3345,5,notharmonic,1.7,word,m,,,,,,,
,,,,,,,,,,,aksa,001,2023-11-08_11h25.55.393,vowel_harmony,2023.2.3,Win32,60.07088364,233.476,234.473,,,,,,,,,,,,,,,,,,,,,,,,,,234.4732,235.0339,m,1,0.5343,,235.034,235.034,,0,91,91,57,1,58,bölüm,1910,86.7828,1605,0.1755,5,harmonic,1.45,word,m,,,,,,,
,,,,,,,,,,,aksa,001,2023-11-08_11h25.55.393,vowel_harmony,2023.2.3,Win32,60.07088364,235.0347,236.0388,,,,,,,,,,,,,,,,,,,,,,,,,,236.0389,236.5383,m,1,0.4595,,236.5384,236.5387,,0,92,92,76,1,77,ilişki,1675,76.1054,1524,0.1666,6,harmonic,1.8,word,m,,,,,,,
,,,,,,,,,,,aksa,001,2023-11-08_11h25.55.393,vowel_harmony,2023.2.3,Win32,60.07088364,236.5397,237.5378,,,,,,,,,,,,,,,,,,,,,,,,,,237.5378,238.1489,z,1,0.5903,,238.149,238.1491,,0,93,93,191,1,192,doab,,,,,4,harmonic,2,nw,z,,,,,,,
,,,,,,,,,,,aksa,001,2023-11-08_11h25.55.393,vowel_harmony,2023.2.3,Win32,60.07088364,238.1497,239.154,,,,,,,,,,,,,,,,,,,,,,,,,,239.1541,239.82,m,1,0.6232,,239.8201,239.8203,,0,94,94,169,1,170,hikaye,1555,70.653,1405,0.1536,6,notharmonic,1.8,word,m,,,,,,,
,,,,,,,,,,,aksa,001,2023-11-08_11h25.55.393,vowel_harmony,2023.2.3,Win32,60.07088364,239.8212,240.8195,,,,,,,,,,,,,,,,,,,,,,,,,,240.8196,241.5692,z,1,0.7225,,241.5693,241.5695,,0,95,95,206,1,207,bevek,,,,,5,harmonic,1.75,nw,z,,,,,,,
,,,,,,,,,,,aksa,001,2023-11-08_11h25.55.393,vowel_harmony,2023.2.3,Win32,60.07088364,241.5704,242.5688,,,,,,,,,,,,,,,,,,,,,,,,,,242.5689,243.2796,m,1,0.6835,,243.2796,243.2797,,0,96,96,178,1,179,dikkat,6230,283.0665,5888,0.6437,6,notharmonic,2.05,word,m,,,,,,,
,,,,,,,,,,,aksa,001,2023-11-08_11h25.55.393,vowel_harmony,2023.2.3,Win32,60.07088364,243.2804,244.286,,,,,,,,,,,,,,,,,,,,,,,,,,244.2861,244.9675,z,1,0.6503,,244.9676,244.9678,,0,97,97,237,1,238,taşal,,,,,5,harmonic,1.8,nw,z,,,,,,,
,,,,,,,,,,,aksa,001,2023-11-08_11h25.55.393,vowel_harmony,2023.2.3,Win32,60.07088364,244.9687,245.9673,,,,,,,,,,,,,,,,,,,,,,,,,,245.9674,246.6335,z,1,0.6278,,246.6336,246.6339,,0,98,98,227,1,228,zekö,,,,,4,harmonic,1.9,nw,z,,,,,,,
,,,,,,,,,,,aksa,001,2023-11-08_11h25.55.393,vowel_harmony,2023.2.3,Win32,60.07088364,246.6352,247.6326,,,,,,,,,,,,,,,,,,,,,,,,,,247.6327,248.132,m,1,0.4745,,248.1321,248.1321,,0,99,99,179,1,180,dakika,5891,267.6637,5207,0.5692,6,notharmonic,1.75,word,m,,,,,,,
,,,,,,,,,,,aksa,001,2023-11-08_11h25.55.393,vowel_harmony,2023.2.3,Win32,60.07088364,248.1327,249.1315,,,,,,,,,,,,,,,,,,,,,,,,,,249.1316,249.8885,m,1,0.7342,,249.8885,249.8886,,0,100,100,42,1,43,ürün,2268,103.0489,1954,0.2136,4,harmonic,1.1,word,m,,,,,,,
,,,,,,,,,,,aksa,001,2023-11-08_11h25.55.393,vowel_harmony,2023.2.3,Win32,60.07088364,249.8891,250.8806,,,,,,,,,,,,,,,,,,,,,,,,,,250.8806,251.8301,m,1,0.9341,,251.8301,251.8303,,0,101,101,127,1,128,şahane,1153,52.3877,1108,0.1211,6,notharmonic,1.8,word,m,,,,,,,
,,,,,,,,,,,aksa,001,2023-11-08_11h25.55.393,vowel_harmony,2023.2.3,Win32,60.07088364,251.8307,252.8298,,,,,,,,,,,,,,,,,,,,,,,,,,252.8298,253.4075,m,1,0.5526,,253.4075,253.4076,,0,102,102,101,1,102,imza,1358,61.7021,1253,0.137,4,notharmonic,1.65,word,m,,,,,,,
,,,,,,,,,,,aksa,001,2023-11-08_11h25.55.393,vowel_harmony,2023.2.3,Win32,60.07088364,253.408,254.3963,,,,,,,,,,,,,,,,,,,,,,,,,,254.3964,255.0408,z,1,0.6179,,255.0409,255.041,,0,103,103,290,1,291,aipa,,,,,4,notharmonic,1.95,nw,z,,,,,,,
,,,,,,,,,,,aksa,001,2023-11-08_11h25.55.393,vowel_harmony,2023.2.3,Win32,60.07088364,255.0416,256.0456,,,,,,,,,,,,,,,,,,,,,,,,,,256.0457,256.7276,m,1,0.643,,256.7276,256.7277,,0,104,104,21,1,22,duygu,1877,85.2834,1760,0.1924,5,harmonic,1.8,word,m,,,,,,,
,,,,,,,,,,,aksa,001,2023-11-08_11h25.55.393,vowel_harmony,2023.2.3,Win32,60.07088364,256.728,257.7274,,,,,,,,,,,,,,,,,,,,,,,,,,257.7275,258.3941,m,1,0.6446,,258.3942,258.3944,,0,105,105,44,1,45,kayıt,1234,56.0681,1058,0.1157,5,harmonic,1.35,word,m,,,,,,,
,,,,,,,,,,,aksa,001,2023-11-08_11h25.55.393,vowel_harmony,2023.2.3,Win32,60.07088364,258.3953,259.3935,,,,,,,,,,,,,,,,,,,,,,,,,,259.3936,260.2439,z,1,0.8162,,260.2439,260.2443,,0,106,106,270,1,271,miyaj,,,,,5,notharmonic,1.9,nw,z,,,,,,,
,,,,,,,,,,,aksa,001,2023-11-08_11h25.55.393,vowel_harmony,2023.2.3,Win32,60.07088364,260.2461,261.2433,,,,,,,,,,,,,,,,,,,,,,,,,,261.2433,261.96,z,1,0.686,,261.9602,261.9606,,0,107,107,351,1,352,seğlık,,,,,6,notharmonic,1.9,nw,z,,,,,,,
,,,,,,,,,,,aksa,001,2023-11-08_11h25.55.393,vowel_harmony,2023.2.3,Win32,60.07088364,261.9625,262.959,,,,,,,,,,,,,,,,,,,,,,,,,,262.9591,263.6416,m,1,0.6428,,263.6418,263.6421,,0,108,108,110,1,111,rüya,1062,48.2531,937,0.1024,4,notharmonic,1.75,word,m,,,,,,,
,,,,,,,,,,,aksa,001,2023-11-08_11h25.55.393,vowel_harmony,2023.2.3,Win32,60.07088364,263.643,264.6406,,,,,,,,,,,,,,,,,,,,,,,,,,264.6407,265.241,m,1,0.5804,,265.241,265.2412,,0,109,109,53,1,54,gelir,7578,344.3143,7014,0.7668,5,harmonic,1.4,word,m,,,,,,,
,,,,,,,,,,,aksa,001,2023-11-08_11h25.55.393,vowel_harmony,2023.2.3,Win32,60.07088364,265.2422,266.2403,,,,,,,,,,,,,,,,,,,,,,,,,,266.2404,266.957,z,1,0.6852,,266.9573,266.9576,,0,110,110,282,1,283,taöz,,,,,4,notharmonic,1.9,nw,z,,,,,,,
,,,,,,,,,,,aksa,001,2023-11-08_11h25.55.393,vowel_harmony,2023.2.3,Win32,60.07088364,266.9594,267.9562,,,,,,,,,,,,,,,,,,,,,,,,,,267.9563,268.6896,z,1,0.7022,,268.6898,268.6901,,0,111,111,183,1,184,orkın,,,,,5,harmonic,1.9,nw,z,,,,,,,
,,,,,,,,,,,aksa,001,2023-11-08_11h25.55.393,vowel_harmony,2023.2.3,Win32,60.07088364,268.6917,269.689,,,,,,,,,,,,,,,,,,,,,,,,,,269.6891,270.4382,m,1,0.7103,,270.4384,270.4387,,0,112,112,148,1,149,selam,1868,84.8745,1764,0.1928,5,notharmonic,1.35,word,m,,,,,,,
,,,,,,,,,,,aksa,001,2023-11-08_11h25.55.393,vowel_harmony,2023.2.3,Win32,60.07088364,270.4398,271.4378,,,,,,,,,,,,,,,,,,,,,,,,,,271.4378,272.1203,z,1,0.6585,,272.1203,272.1204,,0,113,113,328,1,329,kirul,,,,,5,notharmonic,1.95,nw,z,,,,,,,
,,,,,,,,,,,aksa,001,2023-11-08_11h25.55.393,vowel_harmony,2023.2.3,Win32,60.07088364,272.1208,273.1197,,,,,,,,,,,,,,,,,,,,,,,,,,273.1197,273.7361,z,1,0.5926,,273.7362,273.7363,,0,114,114,225,1,226,düvem,,,,,5,harmonic,1.7,nw,z,,,,,,,
,,,,,,,,,,,aksa,001,2023-11-08_11h25.55.393,vowel_harmony,2023.2.3,Win32,60.07088364,273.7368,274.7357,,,,,,,,,,,,,,,,,,,,,,,,,,274.7357,275.2696,m,1,0.5178,,275.2697,275.2697,,0,115,115,41,1,42,zengin,2193,99.6412,2015,0.2203,6,harmonic,1.65,word,m,,,,,,,
,,,,,,,,,,,aksa,001,2023-11-08_11h25.55.393,vowel_harmony,2023.2.3,Win32,60.07088364,275.2709,276.2682,,,,,,,,,,,,,,,,,,,,,,,,,,276.2682,276.9012,m,1,0.6011,,276.9013,276.9014,,0,116,116,125,1,126,ikna,1276,57.9764,1173,0.1282,4,notharmonic,1.85,word,m,,,,,,,
,,,,,,,,,,,aksa,001,2023-11-08_11h25.55.393,vowel_harmony,2023.2.3,Win32,60.07088364,276.902,277.9008,,,,,,,,,,,,,,,,,,,,,,,,,,277.9008,278.5337,m,1,0.6124,,278.5337,278.5338,,0,117,117,149,1,150,ceza,2611,118.6335,2169,0.2371,4,notharmonic,1.5,word,m,,,,,,,
,,,,,,,,,,,aksa,001,2023-11-08_11h25.55.393,vowel_harmony,2023.2.3,Win32,60.07088364,278.5342,279.5333,,,,,,,,,,,,,,,,,,,,,,,,,,279.5333,280.0608,m,1,0.5038,,280.0608,280.0608,,0,118,118,85,1,86,geçmiş,4195,190.6042,4039,0.4415,6,harmonic,1.55,word,m,,,,,,,
,,,,,,,,,,,aksa,001,2023-11-08_11h25.55.393,vowel_harmony,2023.2.3,Win32,60.07088364,280.0612,281.0506,,,,,,,,,,,,,,,,,,,,,,,,,,281.0507,281.634,z,1,0.5507,,281.6342,281.6345,,0,119,119,314,1,315,seral,,,,,5,notharmonic,1.7,nw,z,,,,,,,
,,,,,,,,,,,aksa,001,2023-11-08_11h25.55.393,vowel_harmony,2023.2.3,Win32,60.07088364,281.6359,282.6375,,,,,,,,,,,,,,,,,,,,,,,,,,282.6375,283.2815,m,1,0.6089,,283.2815,292.7117,space,0,120,120,70,1,71,yarın,3440,156.3,3222,0.3522,5,harmonic,1.85,word,m,9.4003,,,,,,
,,,,,,,,,,,aksa,001,2023-11-08_11h25.55.393,vowel_harmony,2023.2.3,Win32,60.07088364,292.7423,293.7272,,,,,,,,,,,,,,,,,,,,,,,,,,293.7273,294.8931,z,1,1.134,,294.8933,294.8935,,0,121,121,203,1,204,döves,,,,,5,harmonic,1.8,nw,z,,,,,,,
,,,,,,,,,,,aksa,001,2023-11-08_11h25.55.393,vowel_harmony,2023.2.3,Win32,60.07088364,294.895,295.8927,,,,,,,,,,,,,,,,,,,,,,,,,,295.8928,296.5927,z,1,0.6714,,296.5929,296.5933,,0,122,122,216,1,217,çeyret,,,,,6,harmonic,1.9,nw,z,,,,,,,
,,,,,,,,,,,aksa,001,2023-11-08_11h25.55.393,vowel_harmony,2023.2.3,Win32,60.07088364,296.5959,297.5922,,,,,,,,,,,,,,,,,,,,,,,,,,297.5924,298.2913,m,1,0.6595,,298.2913,298.2917,,0,123,123,86,1,87,gerçek,8983,408.1519,8058,0.8809,6,harmonic,1.7,word,m,,,,,,,
,,,,,,,,,,,aksa,001,2023-11-08_11h25.55.393,vowel_harmony,2023.2.3,Win32,60.07088364,298.2926,299.2903,,,,,,,,,,,,,,,,,,,,,,,,,,299.2903,299.8905,m,1,0.5782,,299.8906,299.8909,,0,124,124,14,1,15,yaşam,4348,197.5559,3918,0.4283,5,harmonic,1.4,word,m,,,,,,,
,,,,,,,,,,,aksa,001,2023-11-08_11h25.55.393,vowel_harmony,2023.2.3,Win32,60.07088364,299.8918,300.8899,,,,,,,,,,,,,,,,,,,,,,,,,,300.89,301.3734,m,1,0.4531,,301.3735,301.3739,,0,125,125,40,1,41,tepki,1695,77.0141,1578,0.1725,5,harmonic,1.55,word,m,,,,,,,
,,,,,,,,,,,aksa,001,2023-11-08_11h25.55.393,vowel_harmony,2023.2.3,Win32,60.07088364,301.3758,302.3734,,,,,,,,,,,,,,,,,,,,,,,,,,302.3735,302.9229,m,1,0.522,,302.9229,302.9234,,0,126,126,118,1,119,meşhur,1092,49.6161,1057,0.1156,6,notharmonic,1.9,word,m,,,,,,,
,,,,,,,,,,,aksa,001,2023-11-08_11h25.55.393,vowel_harmony,2023.2.3,Win32,60.07088364,302.9255,303.9223,,,,,,,,,,,,,,,,,,,,,,,,,,303.9224,304.6378,z,1,0.6715,,304.6378,304.638,,0,127,127,223,1,224,kakon,,,,,5,harmonic,1.85,nw,z,,,,,,,
,,,,,,,,,,,aksa,001,2023-11-08_11h25.55.393,vowel_harmony,2023.2.3,Win32,60.07088364,304.6387,305.6371,,,,,,,,,,,,,,,,,,,,,,,,,,305.6371,306.1536,m,1,0.4973,,306.1536,306.1537,,0,128,128,15,1,16,hayat,7922,359.9443,7314,0.7996,5,harmonic,1.9,word,m,,,,,,,
,,,,,,,,,,,aksa,001,2023-11-08_11h25.55.393,vowel_harmony,2023.2.3,Win32,60.07088364,306.1542,307.153,,,,,,,,,,,,,,,,,,,,,,,,,,307.153,307.7638,z,1,0.5878,,307.7639,307.7639,,0,129,129,331,1,332,ehun,,,,,4,notharmonic,1.95,nw,z,,,,,,,
,,,,,,,,,,,aksa,001,2023-11-08_11h25.55.393,vowel_harmony,2023.2.3,Win32,60.07088364,307.7643,308.7629,,,,,,,,,,,,,,,,,,,,,,,,,,308.7629,309.7865,m,1,1.0014,,309.7868,309.7871,,0,130,130,106,1,107,esnaf,315,14.3124,284,0.031,5,notharmonic,1.55,word,m,,,,,,,
,,,,,,,,,,,aksa,001,2023-11-08_11h25.55.393,vowel_harmony,2023.2.3,Win32,60.07088364,309.7887,310.7901,,,,,,,,,,,,,,,,,,,,,,,,,,310.7901,311.3859,z,1,0.5679,,311.3862,311.3869,,0,131,131,310,1,311,yandeş,,,,,6,notharmonic,1.95,nw,z,,,,,,,
,,,,,,,,,,,aksa,001,2023-11-08_11h25.55.393,vowel_harmony,2023.2.3,Win32,60.07088364,311.3888,312.3852,,,,,,,,,,,,,,,,,,,,,,,,,,312.3854,313.0336,z,1,0.6097,,313.0337,313.0338,,0,132,132,294,1,295,mesap,,,,,5,notharmonic,1.8,nw,z,,,,,,,
,,,,,,,,,,,aksa,001,2023-11-08_11h25.55.393,vowel_harmony,2023.2.3,Win32,60.07088364,313.0348,314.0329,,,,,,,,,,,,,,,,,,,,,,,,,,314.0329,315.2662,m,1,1.2115,,315.2662,315.2666,,0,133,133,166,1,167,maden,402,18.2653,339,0.0371,5,notharmonic,1.45,word,m,,,,,,,
,,,,,,,,,,,aksa,001,2023-11-08_11h25.55.393,vowel_harmony,2023.2.3,Win32,60.07088364,315.2675,316.2656,,,,,,,,,,,,,,,,,,,,,,,,,,316.2657,316.9492,z,1,0.6571,,316.9493,316.9497,,0,134,134,297,1,298,sapet,,,,,5,notharmonic,1.85,nw,z,,,,,,,
,,,,,,,,,,,aksa,001,2023-11-08_11h25.55.393,vowel_harmony,2023.2.3,Win32,60.07088364,316.9514,317.9485,,,,,,,,,,,,,,,,,,,,,,,,,,317.9486,318.448,z,1,0.4561,,318.448,318.4483,,0,135,135,324,1,325,pakeh,,,,,5,notharmonic,1.9,nw,z,,,,,,,
,,,,,,,,,,,aksa,001,2023-11-08_11h25.55.393,vowel_harmony,2023.2.3,Win32,60.07088364,318.4492,319.4474,,,,,,,,,,,,,,,,,,,,,,,,,,319.4476,320.1471,z,1,0.6712,,320.1472,320.1475,,0,136,136,353,1,354,ikno,,,,,4,notharmonic,1.95,nw,z,,,,,,,
,,,,,,,,,,,aksa,001,2023-11-08_11h25.55.393,vowel_harmony,2023.2.3,Win32,60.07088364,320.1483,321.1466,,,,,,,,,,,,,,,,,,,,,,,,,,321.1467,321.6734,z,1,0.4974,,321.6734,321.6735,,0,137,137,326,1,327,ailo,,,,,4,notharmonic,1.75,nw,z,,,,,,,
,,,,,,,,,,,aksa,001,2023-11-08_11h25.55.393,vowel_harmony,2023.2.3,Win32,60.07088364,321.6741,322.663,,,,,,,,,,,,,,,,,,,,,,,,,,322.6631,323.3812,m,1,0.6851,,323.3813,323.3819,,0,138,138,158,1,159,klasik,1871,85.0108,1734,0.1896,6,notharmonic,2,word,m,,,,,,,
,,,,,,,,,,,aksa,001,2023-11-08_11h25.55.393,vowel_harmony,2023.2.3,Win32,60.07088364,323.3833,324.3789,,,,,,,,,,,,,,,,,,,,,,,,,,324.379,325.2114,z,1,0.7902,,325.2115,325.2117,,0,139,139,265,1,266,parula,,,,,6,harmonic,1.75,nw,z,,,,,,,
,,,,,,,,,,,aksa,001,2023-11-08_11h25.55.393,vowel_harmony,2023.2.3,Win32,60.07088364,325.2127,326.2109,,,,,,,,,,,,,,,,,,,,,,,,,,326.211,326.8106,m,1,0.5772,,326.8107,326.8109,,0,140,140,9,1,10,karar,8108,368.3954,7436,0.8129,5,harmonic,1.6,word,m,,,,,,,
,,,,,,,,,,,aksa,001,2023-11-08_11h25.55.393,vowel_harmony,2023.2.3,Win32,60.07088364,326.8122,327.81,,,,,,,,,,,,,,,,,,,,,,,,,,327.8102,328.3933,m,1,0.5511,,328.3934,328.3938,,0,141,141,100,1,101,düşman,1065,48.3894,962,0.1052,6,notharmonic,1.85,word,m,,,,,,,
,,,,,,,,,,,aksa,001,2023-11-08_11h25.55.393,vowel_harmony,2023.2.3,Win32,60.07088364,328.3953,329.4024,,,,,,,,,,,,,,,,,,,,,,,,,,329.4025,329.8282,m,1,0.408,,329.8285,329.8289,,0,142,142,133,1,134,taze,2268,103.0489,2062,0.2254,4,notharmonic,1.65,word,m,,,,,,,
,,,,,,,,,,,aksa,001,2023-11-08_11h25.55.393,vowel_harmony,2023.2.3,Win32,60.07088364,329.83,330.8261,,,,,,,,,,,,,,,,,,,,,,,,,,330.8263,331.441,z,1,0.5724,,331.4411,331.4411,,0,143,143,202,1,203,güvin,,,,,5,harmonic,1.95,nw,z,,,,,,,
,,,,,,,,,,,aksa,001,2023-11-08_11h25.55.393,vowel_harmony,2023.2.3,Win32,60.07088364,331.4415,332.4405,,,,,,,,,,,,,,,,,,,,,,,,,,332.4406,333.1568,z,1,0.7007,,333.1568,333.1569,,0,144,144,333,1,334,heyran,,,,,6,notharmonic,1.85,nw,z,,,,,,,
,,,,,,,,,,,aksa,001,2023-11-08_11h25.55.393,vowel_harmony,2023.2.3,Win32,60.07088364,333.1573,334.1564,,,,,,,,,,,,,,,,,,,,,,,,,,334.1564,334.5894,m,1,0.4042,,334.5894,334.5895,,0,145,145,0,1,1,sanat,3121,141.8059,2485,0.2717,5,harmonic,1.4,word,m,,,,,,,
,,,,,,,,,,,aksa,001,2023-11-08_11h25.55.393,vowel_harmony,2023.2.3,Win32,60.07088364,334.5902,335.589,,,,,,,,,,,,,,,,,,,,,,,,,,335.589,336.1557,m,1,0.5506,,336.1558,336.1559,,0,146,146,35,1,36,hava,4975,226.0443,4398,0.4808,4,harmonic,1,word,m,,,,,,,
,,,,,,,,,,,aksa,001,2023-11-08_11h25.55.393,vowel_harmony,2023.2.3,Win32,60.07088364,336.157,337.1549,,,,,,,,,,,,,,,,,,,,,,,,,,337.1549,337.7215,m,1,0.5432,,337.7215,337.7216,,0,147,147,99,1,100,ilave,3173,144.1685,2619,0.2863,5,notharmonic,1.85,word,m,,,,,,,
,,,,,,,,,,,aksa,001,2023-11-08_11h25.55.393,vowel_harmony,2023.2.3,Win32,60.07088364,337.7224,338.7208,,,,,,,,,,,,,,,,,,,,,,,,,,338.7208,339.487,z,1,0.7457,,339.487,339.4872,,0,148,148,236,1,237,toklam,,,,,6,harmonic,1.85,nw,z,,,,,,,
,,,,,,,,,,,aksa,001,2023-11-08_11h25.55.393,vowel_harmony,2023.2.3,Win32,60.07088364,339.4875,340.4866,,,,,,,,,,,,,,,,,,,,,,,,,,340.4866,341.1529,z,1,0.635,,341.1529,341.153,,0,149,149,352,1,353,yılden,,,,,6,notharmonic,1.8,nw,z,,,,,,,
,,,,,,,,,,,aksa,001,2023-11-08_11h25.55.393,vowel_harmony,2023.2.3,Win32,60.07088364,341.1534,342.1524,,,,,,,,,,,,,,,,,,,,,,,,,,342.1525,342.8688,z,1,0.6929,,342.8688,342.8688,,0,150,150,329,1,330,taif,,,,,4,notharmonic,1.8,nw,z,,,,,,,
,,,,,,,,,,,aksa,001,2023-11-08_11h25.55.393,vowel_harmony,2023.2.3,Win32,60.07088364,342.8693,343.8682,,,,,,,,,,,,,,,,,,,,,,,,,,343.8683,344.518,z,1,0.6187,,344.5181,344.5181,,0,151,151,334,1,335,işgan,,,,,5,notharmonic,1.95,nw,z,,,,,,,
,,,,,,,,,,,aksa,001,2023-11-08_11h25.55.393,vowel_harmony,2023.2.3,Win32,60.07088364,344.5185,345.5174,,,,,,,,,,,,,,,,,,,,,,,,,,345.5175,346.1337,m,1,0.5931,,346.1337,346.1339,,0,152,152,10,1,11,bardak,1728,78.5135,1569,0.1715,6,harmonic,1.6,word,m,,,,,,,
,,,,,,,,,,,aksa,001,2023-11-08_11h25.55.393,vowel_harmony,2023.2.3,Win32,60.07088364,346.1343,347.1333,,,,,,,,,,,,,,,,,,,,,,,,,,347.1333,347.7497,z,1,0.5859,,347.7497,347.7499,,0,153,153,230,1,231,bikir,,,,,5,harmonic,1.75,nw,z,,,,,,,
,,,,,,,,,,,aksa,001,2023-11-08_11h25.55.393,vowel_harmony,2023.2.3,Win32,60.07088364,347.7503,348.7491,,,,,,,,,,,,,,,,,,,,,,,,,,348.7491,349.3496,z,1,0.5818,,349.3497,349.35,,0,154,154,284,1,285,deval,,,,,5,notharmonic,1.75,nw,z,,,,,,,
,,,,,,,,,,,aksa,001,2023-11-08_11h25.55.393,vowel_harmony,2023.2.3,Win32,60.07088364,349.3509,350.3489,,,,,,,,,,,,,,,,,,,,,,,,,,350.349,351.0358,z,1,0.6576,,351.0359,351.0361,,0,155,155,280,1,281,adalek,,,,,6,notharmonic,1.85,nw,z,,,,,,,
,,,,,,,,,,,aksa,001,2023-11-08_11h25.55.393,vowel_harmony,2023.2.3,Win32,60.07088364,351.037,352.0318,,,,,,,,,,,,,,,,,,,,,,,,,,352.0318,352.6148,m,1,0.5508,,352.615,352.6152,,0,156,156,145,1,146,iddia,2430,110.4096,2295,0.2509,5,notharmonic,1.85,word,m,,,,,,,
,,,,,,,,,,,aksa,001,2023-11-08_11h25.55.393,vowel_harmony,2023.2.3,Win32,60.07088364,352.6166,353.6144,,,,,,,,,,,,,,,,,,,,,,,,,,353.6145,354.2636,z,1,0.607,,354.2638,354.264,,0,157,157,210,1,211,şevci,,,,,5,harmonic,1.75,nw,z,,,,,,,
,,,,,,,,,,,aksa,001,2023-11-08_11h25.55.393,vowel_harmony,2023.2.3,Win32,60.07088364,354.2649,355.2632,,,,,,,,,,,,,,,,,,,,,,,,,,355.2633,355.8128,z,1,0.5254,,355.813,355.8132,,0,158,158,296,1,297,işban,,,,,5,notharmonic,1.95,nw,z,,,,,,,
,,,,,,,,,,,aksa,001,2023-11-08_11h25.55.393,vowel_harmony,2023.2.3,Win32,60.07088364,355.8141,356.8122,,,,,,,,,,,,,,,,,,,,,,,,,,356.8124,357.3791,m,1,0.5354,,357.3793,357.3797,,0,159,159,157,1,158,aktif,1062,48.2531,986,0.1078,5,notharmonic,1.9,word,m,,,,,,,
,,,,,,,,,,,aksa,001,2023-11-08_11h25.55.393,vowel_harmony,2023.2.3,Win32,60.07088364,357.3818,358.3786,,,,,,,,,,,,,,,,,,,,,,,,,,358.3787,359.2117,z,1,0.802,,359.2119,359.2122,,0,160,160,332,1,333,tahane,,,,,6,notharmonic,1.85,nw,z,,,,,,,
,,,,,,,,,,,aksa,001,2023-11-08_11h25.55.393,vowel_harmony,2023.2.3,Win32,60.07088364,359.2144,360.2108,,,,,,,,,,,,,,,,,,,,,,,,,,360.2108,360.7272,z,1,0.4783,,360.7273,360.7276,,0,161,161,254,1,255,millek,,,,,6,harmonic,1.8,nw,z,,,,,,,
,,,,,,,,,,,aksa,001,2023-11-08_11h25.55.393,vowel_harmony,2023.2.3,Win32,60.07088364,360.7286,361.7266,,,,,,,,,,,,,,,,,,,,,,,,,,361.7267,362.4929,z,1,0.7388,,362.493,362.4934,,0,162,162,239,1,240,şekik,,,,,5,harmonic,1.7,nw,z,,,,,,,
,,,,,,,,,,,aksa,001,2023-11-08_11h25.55.393,vowel_harmony,2023.2.3,Win32,60.07088364,362.4944,363.4925,,,,,,,,,,,,,,,,,,,,,,,,,,363.4926,364.2096,z,1,0.6886,,364.2099,364.2105,,0,163,163,330,1,331,vahçe,,,,,5,notharmonic,1.9,nw,z,,,,,,,
,,,,,,,,,,,aksa,001,2023-11-08_11h25.55.393,vowel_harmony,2023.2.3,Win32,60.07088364,364.2124,365.2092,,,,,,,,,,,,,,,,,,,,,,,,,,365.2093,365.9582,z,1,0.7226,,365.9584,365.9588,,0,164,164,315,1,316,takep,,,,,5,notharmonic,1.85,nw,z,,,,,,,
,,,,,,,,,,,aksa,001,2023-11-08_11h25.55.393,vowel_harmony,2023.2.3,Win32,60.07088364,365.9603,366.9581,,,,,,,,,,,,,,,,,,,,,,,,,,366.9581,367.5737,m,1,0.5746,,367.5737,367.574,,0,165,165,18,1,19,normal,4154,188.7413,3788,0.4141,6,harmonic,1.75,word,m,,,,,,,
,,,,,,,,,,,aksa,001,2023-11-08_11h25.55.393,vowel_harmony,2023.2.3,Win32,60.07088364,367.575,368.5731,,,,,,,,,,,,,,,,,,,,,,,,,,368.5732,369.1731,z,1,0.5771,,369.1733,369.1737,,0,166,166,319,1,320,biho,,,,,4,notharmonic,2,nw,z,,,,,,,
,,,,,,,,,,,aksa,001,2023-11-08_11h25.55.393,vowel_harmony,2023.2.3,Win32,60.07088364,369.1747,370.1729,,,,,,,,,,,,,,,,,,,,,,,,,,370.173,370.8062,z,1,0.6005,,370.8065,370.8067,,0,167,167,285,1,286,iklon,,,,,5,notharmonic,1.85,nw,z,,,,,,,
,,,,,,,,,,,aksa,001,2023-11-08_11h25.55.393,vowel_harmony,2023.2.3,Win32,60.07088364,370.8086,371.8055,,,,,,,,,,,,,,,,,,,,,,,,,,371.8056,372.8216,m,1,0.986,,372.8218,372.8223,,0,168,168,132,1,133,modern,2326,105.6842,2031,0.222,6,notharmonic,1.85,word,m,,,,,,,
,,,,,,,,,,,aksa,001,2023-11-08_11h25.55.393,vowel_harmony,2023.2.3,Win32,60.07088364,372.8242,373.8214,,,,,,,,,,,,,,,,,,,,,,,,,,373.8215,374.3655,z,1,0.5179,,374.3656,374.3658,,0,169,169,242,1,243,kahon,,,,,5,harmonic,1.85,nw,z,,,,,,,
,,,,,,,,,,,aksa,001,2023-11-08_11h25.55.393,vowel_harmony,2023.2.3,Win32,60.07088364,374.3664,375.3705,,,,,,,,,,,,,,,,,,,,,,,,,,375.3706,375.903,z,1,0.4892,,375.903,375.9032,,0,170,170,269,1,270,vekü,,,,,4,harmonic,2,nw,z,,,,,,,
,,,,,,,,,,,aksa,001,2023-11-08_11h25.55.393,vowel_harmony,2023.2.3,Win32,60.07088364,375.9042,376.9026,,,,,,,,,,,,,,,,,,,,,,,,,,376.9027,377.4356,z,1,0.5052,,377.4357,377.4359,,0,171,171,357,1,358,işarek,,,,,6,notharmonic,1.95,nw,z,,,,,,,
,,,,,,,,,,,aksa,001,2023-11-08_11h25.55.393,vowel_harmony,2023.2.3,Win32,60.07088364,377.4368,378.435,,,,,,,,,,,,,,,,,,,,,,,,,,378.4351,379.2184,z,1,0.7508,,379.2185,379.219,,0,172,172,279,1,280,tadde,,,,,5,notharmonic,1.8,nw,z,,,,,,,
,,,,,,,,,,,aksa,001,2023-11-08_11h25.55.393,vowel_harmony,2023.2.3,Win32,60.07088364,379.2204,380.2179,,,,,,,,,,,,,,,,,,,,,,,,,,380.2181,380.8011,z,1,0.5538,,380.8013,380.8017,,0,173,173,198,1,199,yarbız,,,,,6,harmonic,1.95,nw,z,,,,,,,
,,,,,,,,,,,aksa,001,2023-11-08_11h25.55.393,vowel_harmony,2023.2.3,Win32,60.07088364,380.8035,381.8005,,,,,,,,,,,,,,,,,,,,,,,,,,381.8006,382.3832,m,1,0.5445,,382.3834,382.3838,,0,174,174,38,1,39,dönem,2820,128.1296,2437,0.2664,5,harmonic,1.4,word,m,,,,,,,
,,,,,,,,,,,aksa,001,2023-11-08_11h25.55.393,vowel_harmony,2023.2.3,Win32,60.07088364,382.3847,383.3828,,,,,,,,,,,,,,,,,,,,,,,,,,383.3829,383.8989,m,1,0.4922,,383.8989,383.8992,,0,175,175,167,1,168,adalet,1611,73.1975,1388,0.1517,6,notharmonic,1.65,word,m,,,,,,,
,,,,,,,,,,,aksa,001,2023-11-08_11h25.55.393,vowel_harmony,2023.2.3,Win32,60.07088364,383.9002,384.8985,,,,,,,,,,,,,,,,,,,,,,,,,,384.8986,385.4434,m,1,0.5167,,385.4435,385.4438,,0,176,176,59,1,60,köpek,1044,47.4352,901,0.0985,5,harmonic,1.75,word,m,,,,,,,
,,,,,,,,,,,aksa,001,2023-11-08_11h25.55.393,vowel_harmony,2023.2.3,Win32,60.07088364,385.4445,386.4481,,,,,,,,,,,,,,,,,,,,,,,,,,386.4483,387.1474,z,1,0.667,,387.1475,387.1478,,0,177,177,193,1,194,yokın,,,,,5,harmonic,1.85,nw,z,,,,,,,
,,,,,,,,,,,aksa,001,2023-11-08_11h25.55.393,vowel_harmony,2023.2.3,Win32,60.07088364,387.1486,388.1473,,,,,,,,,,,,,,,,,,,,,,,,,,388.1474,388.8467,z,1,0.6609,,388.8467,388.8469,,0,178,178,188,1,189,tonık,,,,,5,harmonic,1.85,nw,z,,,,,,,
,,,,,,,,,,,aksa,001,2023-11-08_11h25.55.393,vowel_harmony,2023.2.3,Win32,60.07088364,388.8479,389.8462,,,,,,,,,,,,,,,,,,,,,,,,,,389.8463,390.3793,m,1,0.5058,,390.3794,390.3796,,0,179,179,147,1,148,işaret,1888,85.7832,1787,0.1954,6,notharmonic,1,word,m,,,,,,,
,,,,,,,,,,,aksa,001,2023-11-08_11h25.55.393,vowel_harmony,2023.2.3,Win32,60.07088364,390.3806,391.3786,,,,,,,,,,,,,,,,,,,,,,,,,,391.3787,391.9458,z,1,0.5342,,391.946,391.9464,,0,180,180,305,1,306,tamü,,,,,4,notharmonic,1.75,nw,z,,,,,,,
,,,,,,,,,,,aksa,001,2023-11-08_11h25.55.393,vowel_harmony,2023.2.3,Win32,60.07088364,391.9486,392.945,,,,,,,,,,,,,,,,,,,,,,,,,,392.9451,393.5615,z,1,0.5881,,393.5618,393.5623,,0,181,181,300,1,301,nilgi,,,,,5,notharmonic,1.85,nw,z,,,,,,,
,,,,,,,,,,,aksa,001,2023-11-08_11h25.55.393,vowel_harmony,2023.2.3,Win32,60.07088364,393.5645,394.5611,,,,,,,,,,,,,,,,,,,,,,,,,,394.5612,395.0437,m,1,0.4397,,395.0437,395.0441,,0,182,182,175,1,176,aile,3655,166.0687,3126,0.3417,4,notharmonic,1,word,m,,,,,,,
,,,,,,,,,,,aksa,001,2023-11-08_11h25.55.393,vowel_harmony,2023.2.3,Win32,60.07088364,395.0451,396.0429,,,,,,,,,,,,,,,,,,,,,,,,,,396.043,396.6095,z,1,0.5388,,396.6097,396.6099,,0,183,183,180,1,181,ayaro,,,,,5,harmonic,1.8,nw,z,,,,,,,
,,,,,,,,,,,aksa,001,2023-11-08_11h25.55.393,vowel_harmony,2023.2.3,Win32,60.07088364,396.6108,397.609,,,,,,,,,,,,,,,,,,,,,,,,,,397.6091,398.2091,m,1,0.5676,,398.2093,398.2096,,0,184,184,63,1,64,sultan,1756,79.7857,1368,0.1496,6,harmonic,1.55,word,m,,,,,,,
,,,,,,,,,,,aksa,001,2023-11-08_11h25.55.393,vowel_harmony,2023.2.3,Win32,60.07088364,398.2113,399.2086,,,,,,,,,,,,,,,,,,,,,,,,,,399.2087,399.8414,m,1,0.6034,,399.8415,399.8419,,0,185,185,115,1,116,saniye,1088,49.4344,984,0.1076,6,notharmonic,1.35,word,m,,,,,,,
,,,,,,,,,,,aksa,001,2023-11-08_11h25.55.393,vowel_harmony,2023.2.3,Win32,60.07088364,399.8435,400.8509,,,,,,,,,,,,,,,,,,,,,,,,,,400.851,401.3572,m,1,0.4726,,401.3573,401.3576,,0,186,186,136,1,137,beyaz,5517,250.6706,4788,0.5234,5,notharmonic,1.85,word,m,,,,,,,
,,,,,,,,,,,aksa,001,2023-11-08_11h25.55.393,vowel_harmony,2023.2.3,Win32,60.07088364,401.3587,402.3567,,,,,,,,,,,,,,,,,,,,,,,,,,402.3567,403.0229,z,1,0.6384,,403.023,403.0233,,0,187,187,207,1,208,örtre,,,,,5,harmonic,1.85,nw,z,,,,,,,
,,,,,,,,,,,aksa,001,2023-11-08_11h25.55.393,vowel_harmony,2023.2.3,Win32,60.07088364,403.0242,404.0226,,,,,,,,,,,,,,,,,,,,,,,,,,404.0226,404.8003,z,1,0.7504,,404.8004,404.8005,,0,188,188,251,1,252,oştay,,,,,5,harmonic,1.95,nw,z,,,,,,,
,,,,,,,,,,,aksa,001,2023-11-08_11h25.55.393,vowel_harmony,2023.2.3,Win32,60.07088364,404.8011,405.8051,,,,,,,,,,,,,,,,,,,,,,,,,,405.8053,406.3415,m,1,0.5088,,406.3417,406.3422,,0,189,189,34,1,35,hoca,1893,86.0104,1526,0.1668,4,harmonic,1.45,word,m,,,,,,,
,,,,,,,,,,,aksa,001,2023-11-08_11h25.55.393,vowel_harmony,2023.2.3,Win32,60.07088364,406.3432,407.3477,,,,,,,,,,,,,,,,,,,,,,,,,,407.3478,407.8393,m,1,0.4635,,407.8394,407.8397,,0,190,190,52,1,53,resim,2506,113.8627,2188,0.2392,5,harmonic,1.4,word,m,,,,,,,
,,,,,,,,,,,aksa,001,2023-11-08_11h25.55.393,vowel_harmony,2023.2.3,Win32,60.07088364,407.8408,408.8368,,,,,,,,,,,,,,,,,,,,,,,,,,408.8368,409.3365,z,1,0.4716,,409.3367,409.3369,,0,191,191,246,1,247,orkın,,,,,5,harmonic,1.9,nw,z,,,,,,,
,,,,,,,,,,,aksa,001,2023-11-08_11h25.55.393,vowel_harmony,2023.2.3,Win32,60.07088364,409.3378,410.336,,,,,,,,,,,,,,,,,,,,,,,,,,410.3362,410.8376,m,1,0.473,,410.8378,410.8383,,0,192,192,90,1,91,tarif,2834,128.7657,2611,0.2854,5,notharmonic,1.5,word,m,,,,,,,
,,,,,,,,,,,aksa,001,2023-11-08_11h25.55.393,vowel_harmony,2023.2.3,Win32,60.07088364,410.8403,411.8357,,,,,,,,,,,,,,,,,,,,,,,,,,411.8358,412.3184,m,1,0.4398,,412.3186,412.319,,0,193,193,64,1,65,lise,888,40.3472,816,0.0892,4,harmonic,1.5,word,m,,,,,,,
,,,,,,,,,,,aksa,001,2023-11-08_11h25.55.393,vowel_harmony,2023.2.3,Win32,60.07088364,412.3199,413.3179,,,,,,,,,,,,,,,,,,,,,,,,,,413.3179,413.851,z,1,0.5078,,413.8511,413.8514,,0,194,194,229,1,230,tonam,,,,,5,harmonic,1.8,nw,z,,,,,,,
,,,,,,,,,,,aksa,001,2023-11-08_11h25.55.393,vowel_harmony,2023.2.3,Win32,60.07088364,413.8523,414.8505,,,,,,,,,,,,,,,,,,,,,,,,,,414.8505,415.3618,m,1,0.4836,,415.3619,415.3621,,0,195,195,36,1,37,meslek,1082,49.1618,976,0.1067,6,harmonic,1.9,word,m,,,,,,,
,,,,,,,,,,,aksa,001,2023-11-08_11h25.55.393,vowel_harmony,2023.2.3,Win32,60.07088364,415.3629,416.3555,,,,,,,,,,,,,,,,,,,,,,,,,,416.3556,416.9499,m,1,0.5673,,416.9501,416.9505,,0,196,196,163,1,164,limon,1658,75.3329,1481,0.1619,5,notharmonic,1.75,word,m,,,,,,,
,,,,,,,,,,,aksa,001,2023-11-08_11h25.55.393,vowel_harmony,2023.2.3,Win32,60.07088364,416.9523,417.9546,,,,,,,,,,,,,,,,,,,,,,,,,,417.9547,418.3489,m,1,0.3565,,418.3489,418.3493,,0,197,197,3,1,4,minik,2916,132.4915,2594,0.2836,5,harmonic,1.6,word,m,,,,,,,
,,,,,,,,,,,aksa,001,2023-11-08_11h25.55.393,vowel_harmony,2023.2.3,Win32,60.07088364,418.3502,419.3483,,,,,,,,,,,,,,,,,,,,,,,,,,419.3483,419.965,z,1,0.5841,,419.9651,419.9655,,0,198,198,247,1,248,hafgın,,,,,6,harmonic,2,nw,z,,,,,,,
,,,,,,,,,,,aksa,001,2023-11-08_11h25.55.393,vowel_harmony,2023.2.3,Win32,60.07088364,419.9673,420.9646,,,,,,,,,,,,,,,,,,,,,,,,,,420.9647,421.4809,m,1,0.4852,,421.4811,421.4816,,0,199,199,138,1,139,kardeş,1270,57.7038,1174,0.1283,6,notharmonic,1.9,word,m,,,,,,,
,,,,,,,,,,,aksa,001,2023-11-08_11h25.55.393,vowel_harmony,2023.2.3,Win32,60.07088364,421.4835,422.481,,,,,,,,,,,,,,,,,,,,,,,,,,422.4811,423.2623,m,1,0.7382,,423.2625,423.2625,,0,200,200,102,1,103,esas,1965,89.2818,1795,0.1962,4,notharmonic,1.75,word,m,,,,,,,
,,,,,,,,,,,aksa,001,2023-11-08_11h25.55.393,vowel_harmony,2023.2.3,Win32,60.07088364,423.2628,424.2623,,,,,,,,,,,,,,,,,,,,,,,,,,424.2623,424.9783,z,1,0.6958,,424.9783,424.9785,,0,201,201,344,1,345,barika,,,,,6,notharmonic,1.75,nw,z,,,,,,,
,,,,,,,,,,,aksa,001,2023-11-08_11h25.55.393,vowel_harmony,2023.2.3,Win32,60.07088364,424.9789,425.9787,,,,,,,,,,,,,,,,,,,,,,,,,,425.9789,427.2942,m,1,1.2809,,427.2944,427.2947,,0,202,202,170,1,171,basit,3385,153.801,3177,0.3473,5,notharmonic,1.65,word,m,,,,,,,
,,,,,,,,,,,aksa,001,2023-11-08_11h25.55.393,vowel_harmony,2023.2.3,Win32,60.07088364,427.3045,428.2937,,,,,,,,,,,,,,,,,,,,,,,,,,428.2939,428.9113,z,1,0.5903,,428.9113,428.9118,,0,203,203,214,1,215,vecü,,,,,4,harmonic,1.95,nw,z,,,,,,,
,,,,,,,,,,,aksa,001,2023-11-08_11h25.55.393,vowel_harmony,2023.2.3,Win32,60.07088364,428.9134,429.9097,,,,,,,,,,,,,,,,,,,,,,,,,,429.9098,431.0259,m,1,1.079,,431.026,431.0264,,0,204,204,104,1,105,cevap,5232,237.7213,4822,0.5271,5,notharmonic,1.85,word,m,,,,,,,
,,,,,,,,,,,aksa,001,2023-11-08_11h25.55.393,vowel_harmony,2023.2.3,Win32,60.07088364,431.0276,432.0255,,,,,,,,,,,,,,,,,,,,,,,,,,432.0255,432.5746,m,1,0.5227,,432.5747,432.5747,,0,205,205,114,1,115,nisan,2321,105.457,2044,0.2235,5,notharmonic,1.6,word,m,,,,,,,
,,,,,,,,,,,aksa,001,2023-11-08_11h25.55.393,vowel_harmony,2023.2.3,Win32,60.07088364,432.5751,433.574,,,,,,,,,,,,,,,,,,,,,,,,,,433.5741,434.2513,z,1,0.6545,,434.2513,434.2514,,0,206,206,335,1,336,lilo,,,,,4,notharmonic,1.8,nw,z,,,,,,,
,,,,,,,,,,,aksa,001,2023-11-08_11h25.55.393,vowel_harmony,2023.2.3,Win32,60.07088364,434.2518,435.2407,,,,,,,,,,,,,,,,,,,,,,,,,,435.2408,436.54,m,1,1.2669,,436.5401,436.5403,,0,207,207,79,1,80,durum,6783,308.1926,6431,0.703,5,harmonic,1.7,word,m,,,,,,,
,,,,,,,,,,,aksa,001,2023-11-08_11h25.55.393,vowel_harmony,2023.2.3,Win32,60.07088364,436.5414,437.5395,,,,,,,,,,,,,,,,,,,,,,,,,,437.5395,438.1332,z,1,0.5676,,438.1333,438.1333,,0,208,208,182,1,183,orsın,,,,,5,harmonic,1.95,nw,z,,,,,,,
,,,,,,,,,,,aksa,001,2023-11-08_11h25.55.393,vowel_harmony,2023.2.3,Win32,60.07088364,438.1337,439.1218,,,,,,,,,,,,,,,,,,,,,,,,,,439.1219,440.454,z,1,1.2893,,440.4541,440.4543,,0,209,209,340,1,341,minya,,,,,5,notharmonic,1.95,nw,z,,,,,,,
,,,,,,,,,,,aksa,001,2023-11-08_11h25.55.393,vowel_harmony,2023.2.3,Win32,60.07088364,440.4547,441.4534,,,,,,,,,,,,,,,,,,,,,,,,,,441.4534,441.9701,m,1,0.4986,,441.9703,441.9704,,0,210,210,72,1,73,çorba,1674,76.0599,1513,0.1654,5,harmonic,1.75,word,m,,,,,,,
,,,,,,,,,,,aksa,001,2023-11-08_11h25.55.393,vowel_harmony,2023.2.3,Win32,60.07088364,441.9711,442.9699,,,,,,,,,,,,,,,,,,,,,,,,,,442.97,444.8401,m,1,1.8398,,444.8403,444.8405,,0,211,211,130,1,131,hamile,1075,48.8437,877,0.0959,6,notharmonic,1.5,word,m,,,,,,,
,,,,,,,,,,,aksa,001,2023-11-08_11h25.55.393,vowel_harmony,2023.2.3,Win32,60.07088364,444.8409,445.836,,,,,,,,,,,,,,,,,,,,,,,,,,445.836,446.5185,z,1,0.6515,,446.5186,446.5189,,0,212,212,304,1,305,annö,,,,,4,notharmonic,1.95,nw,z,,,,,,,
,,,,,,,,,,,aksa,001,2023-11-08_11h25.55.393,vowel_harmony,2023.2.3,Win32,60.07088364,446.5202,447.5178,,,,,,,,,,,,,,,,,,,,,,,,,,447.5179,448.2003,m,1,0.6425,,448.2004,448.2005,,0,213,213,142,1,143,siyasi,2909,132.1734,2445,0.2673,6,notharmonic,1.8,word,m,,,,,,,
,,,,,,,,,,,aksa,001,2023-11-08_11h25.55.393,vowel_harmony,2023.2.3,Win32,60.07088364,448.201,449.1998,,,,,,,,,,,,,,,,,,,,,,,,,,449.1998,449.916,z,1,0.6951,,449.9161,449.9162,,0,214,214,233,1,234,devpi,,,,,5,harmonic,1.8,nw,z,,,,,,,
,,,,,,,,,,,aksa,001,2023-11-08_11h25.55.393,vowel_harmony,2023.2.3,Win32,60.07088364,449.9166,450.9156,,,,,,,,,,,,,,,,,,,,,,,,,,450.9157,451.532,m,1,0.5877,,451.532,451.5323,,0,215,215,6,1,7,hayal,4498,204.3713,4079,0.4459,5,harmonic,1.45,word,m,,,,,,,
,,,,,,,,,,,aksa,001,2023-11-08_11h25.55.393,vowel_harmony,2023.2.3,Win32,60.07088364,451.533,452.5315,,,,,,,,,,,,,,,,,,,,,,,,,,452.5315,453.101,m,1,0.5475,,453.1012,453.1017,,0,216,216,58,1,59,ayak,2143,97.3694,1931,0.2111,4,harmonic,1,word,m,,,,,,,
,,,,,,,,,,,aksa,001,2023-11-08_11h25.55.393,vowel_harmony,2023.2.3,Win32,60.07088364,453.1037,454.0973,,,,,,,,,,,,,,,,,,,,,,,,,,454.0973,454.7755,z,1,0.6549,,454.7755,454.7756,,0,217,217,356,1,357,mergun,,,,,6,notharmonic,1.95,nw,z,,,,,,,
,,,,,,,,,,,aksa,001,2023-11-08_11h25.55.393,vowel_harmony,2023.2.3,Win32,60.07088364,454.776,455.7647,,,,,,,,,,,,,,,,,,,,,,,,,,455.7648,456.53,z,1,0.7335,,456.5301,456.5303,,0,218,218,316,1,317,misaf,,,,,5,notharmonic,1.85,nw,z,,,,,,,
,,,,,,,,,,,aksa,001,2023-11-08_11h25.55.393,vowel_harmony,2023.2.3,Win32,60.07088364,456.5312,457.5235,,,,,,,,,,,,,,,,,,,,,,,,,,457.5235,458.0786,m,1,0.5241,,458.0787,458.0788,,0,219,219,75,1,76,roman,1499,68.1086,1281,0.14,5,harmonic,1.6,word,m,,,,,,,
,,,,,,,,,,,aksa,001,2023-11-08_11h25.55.393,vowel_harmony,2023.2.3,Win32,60.07088364,458.0792,459.0783,,,,,,,,,,,,,,,,,,,,,,,,,,459.0784,459.6289,z,1,0.5276,,459.629,459.6292,,0,220,220,187,1,188,remrin,,,,,6,harmonic,1.9,nw,z,,,,,,,
,,,,,,,,,,,aksa,001,2023-11-08_11h25.55.393,vowel_harmony,2023.2.3,Win32,60.07088364,459.6301,460.6281,,,,,,,,,,,,,,,,,,,,,,,,,,460.6282,461.3835,z,1,0.7281,,461.3836,461.3838,,0,221,221,190,1,191,reklen,,,,,6,harmonic,1.8,nw,z,,,,,,,
,,,,,,,,,,,aksa,001,2023-11-08_11h25.55.393,vowel_harmony,2023.2.3,Win32,60.07088364,461.3843,462.3771,,,,,,,,,,,,,,,,,,,,,,,,,,462.3772,463.005,z,1,0.6014,,463.0051,463.0053,,0,222,222,195,1,196,netüm,,,,,5,harmonic,1.95,nw,z,,,,,,,
,,,,,,,,,,,aksa,001,2023-11-08_11h25.55.393,vowel_harmony,2023.2.3,Win32,60.07088364,463.0061,464.0028,,,,,,,,,,,,,,,,,,,,,,,,,,464.0028,464.5262,m,1,0.4908,,464.5264,464.5266,,0,223,223,111,1,112,kahve,2634,119.6785,2283,0.2496,5,notharmonic,1.85,word,m,,,,,,,
,,,,,,,,,,,aksa,001,2023-11-08_11h25.55.393,vowel_harmony,2023.2.3,Win32,60.07088364,464.5276,465.5256,,,,,,,,,,,,,,,,,,,,,,,,,,465.5257,465.9747,m,1,0.4265,,465.9747,465.9749,,0,224,224,51,1,52,ilginç,2803,127.3572,2690,0.2941,6,harmonic,1.8,word,m,,,,,,,
,,,,,,,,,,,aksa,001,2023-11-08_11h25.55.393,vowel_harmony,2023.2.3,Win32,60.07088364,465.9754,466.9749,,,,,,,,,,,,,,,,,,,,,,,,,,466.975,467.3517,m,1,0.3485,,467.3517,467.3517,,0,225,225,47,1,48,kaza,740,33.6227,679,0.0742,4,harmonic,1.85,word,m,,,,,,,
,,,,,,,,,,,aksa,001,2023-11-08_11h25.55.393,vowel_harmony,2023.2.3,Win32,60.07088364,467.3521,468.3413,,,,,,,,,,,,,,,,,,,,,,,,,,468.3414,468.74,m,0,0.3536,,468.74,468.7402,,0,226,226,345,1,346,bardeş,,,,,6,notharmonic,1.95,nw,z,,,,,,,
,,,,,,,,,,,aksa,001,2023-11-08_11h25.55.393,vowel_harmony,2023.2.3,Win32,60.07088364,468.7405,469.7403,,,,,,,,,,,,,,,,,,,,,,,,,,469.7404,470.3232,m,1,0.5602,,470.3232,470.3236,,0,227,227,23,1,24,kurum,986,44.7999,882,0.0964,5,harmonic,1.75,word,m,,,,,,,
,,,,,,,,,,,aksa,001,2023-11-08_11h25.55.393,vowel_harmony,2023.2.3,Win32,60.07088364,470.3245,471.3221,,,,,,,,,,,,,,,,,,,,,,,,,,471.3222,471.9718,m,1,0.6209,,471.9718,471.972,,0,228,228,26,1,27,sebze,1094,49.707,961,0.1051,5,harmonic,1.9,word,m,,,,,,,
,,,,,,,,,,,aksa,001,2023-11-08_11h25.55.393,vowel_harmony,2023.2.3,Win32,60.07088364,471.9723,472.9714,,,,,,,,,,,,,,,,,,,,,,,,,,472.9714,473.5051,z,1,0.5117,,473.5051,473.5054,,0,229,229,256,1,257,yaruza,,,,,6,harmonic,1.9,nw,z,,,,,,,
,,,,,,,,,,,aksa,001,2023-11-08_11h25.55.393,vowel_harmony,2023.2.3,Win32,60.07088364,473.5063,474.5045,,,,,,,,,,,,,,,,,,,,,,,,,,474.5046,475.0824,m,1,0.5502,,475.0825,475.0826,,0,230,230,77,1,78,ufak,3252,147.758,2980,0.3258,4,harmonic,1.5,word,m,,,,,,,
,,,,,,,,,,,aksa,001,2023-11-08_11h25.55.393,vowel_harmony,2023.2.3,Win32,60.07088364,475.0831,476.0873,,,,,,,,,,,,,,,,,,,,,,,,,,476.0874,476.5705,m,1,0.4516,,476.5708,476.5711,,0,231,231,95,1,96,takip,4996,226.9984,4651,0.5084,5,notharmonic,1.55,word,m,,,,,,,
,,,,,,,,,,,aksa,001,2023-11-08_11h25.55.393,vowel_harmony,2023.2.3,Win32,60.07088364,476.5726,477.5698,,,,,,,,,,,,,,,,,,,,,,,,,,477.5699,478.1521,z,1,0.5393,,478.1521,478.1522,,0,232,232,343,1,344,tarne,,,,,5,notharmonic,1.85,nw,z,,,,,,,
,,,,,,,,,,,aksa,001,2023-11-08_11h25.55.393,vowel_harmony,2023.2.3,Win32,60.07088364,478.1527,479.1516,,,,,,,,,,,,,,,,,,,,,,,,,,479.1516,479.8186,z,1,0.6448,,479.8187,479.8191,,0,233,233,346,1,347,kidan,,,,,5,notharmonic,1.8,nw,z,,,,,,,
,,,,,,,,,,,aksa,001,2023-11-08_11h25.55.393,vowel_harmony,2023.2.3,Win32,60.07088364,479.8203,480.8174,,,,,,,,,,,,,,,,,,,,,,,,,,480.8175,481.5504,z,1,0.7075,,481.5505,481.5506,,0,234,234,271,1,272,mimal,,,,,5,notharmonic,1.8,nw,z,,,,,,,
,,,,,,,,,,,aksa,001,2023-11-08_11h25.55.393,vowel_harmony,2023.2.3,Win32,60.07088364,481.5512,482.5505,,,,,,,,,,,,,,,,,,,,,,,,,,482.5506,483.2329,z,1,0.6568,,483.2329,483.2331,,0,235,235,204,1,205,gerkez,,,,,6,harmonic,1.9,nw,z,,,,,,,
,,,,,,,,,,,aksa,001,2023-11-08_11h25.55.393,vowel_harmony,2023.2.3,Win32,60.07088364,483.2338,484.2325,,,,,,,,,,,,,,,,,,,,,,,,,,484.2326,484.8322,m,1,0.5717,,484.8322,484.8324,,0,236,236,28,1,29,parlak,1142,51.888,1088,0.1189,6,harmonic,1.7,word,m,,,,,,,
,,,,,,,,,,,aksa,001,2023-11-08_11h25.55.393,vowel_harmony,2023.2.3,Win32,60.07088364,484.8329,485.8318,,,,,,,,,,,,,,,,,,,,,,,,,,485.8319,486.4481,z,1,0.597,,486.4481,486.4482,,0,237,237,283,1,284,fahe,,,,,4,notharmonic,1.95,nw,z,,,,,,,
,,,,,,,,,,,aksa,001,2023-11-08_11h25.55.393,vowel_harmony,2023.2.3,Win32,60.07088364,486.4487,487.4481,,,,,,,,,,,,,,,,,,,,,,,,,,487.4482,488.548,z,1,1.0701,,488.5482,488.5488,,0,238,238,260,1,261,yarlam,,,,,6,harmonic,1.75,nw,z,,,,,,,
,,,,,,,,,,,aksa,001,2023-11-08_11h25.55.393,vowel_harmony,2023.2.3,Win32,60.07088364,488.551,489.5474,,,,,,,,,,,,,,,,,,,,,,,,,,489.5476,490.0968,z,1,0.5213,,490.0969,490.0972,,0,239,239,321,1,322,makih,,,,,5,notharmonic,1.8,nw,z,,,,,,,
,,,,,,,,,,,aksa,001,2023-11-08_11h25.55.393,vowel_harmony,2023.2.3,Win32,60.07088364,490.098,491.0963,,,,,,,,,,,,,,,,,,,,,,,,,,491.0964,491.946,m,1,0.8086,,491.946,810.1934,space,0,240,240,129,1,130,tahmin,2353,106.911,2273,0.2485,6,notharmonic,1.6,word,m,318.2321,,,,,,
,,,,,,,,,,,aksa,001,2023-11-08_11h25.55.393,vowel_harmony,2023.2.3,Win32,60.07088364,810.2141,811.2049,,,,,,,,,,,,,,,,,,,,,,,,,,811.205,812.1542,z,1,0.9335,,812.1543,812.1544,,0,241,241,286,1,287,cedan,,,,,5,notharmonic,1.8,nw,z,,,,,,,
,,,,,,,,,,,aksa,001,2023-11-08_11h25.55.393,vowel_harmony,2023.2.3,Win32,60.07088364,812.1549,813.1539,,,,,,,,,,,,,,,,,,,,,,,,,,813.1539,813.687,m,1,0.5045,,813.687,813.6871,,0,242,242,73,1,74,millet,1658,75.3329,1508,0.1649,6,harmonic,1.7,word,m,,,,,,,
,,,,,,,,,,,aksa,001,2023-11-08_11h25.55.393,vowel_harmony,2023.2.3,Win32,60.07088364,813.6875,814.6871,,,,,,,,,,,,,,,,,,,,,,,,,,814.6871,815.2868,m,1,0.5727,,815.287,815.2872,,0,243,243,31,1,32,fazla,18293,831.1614,16694,1.825,5,harmonic,1,word,m,,,,,,,
,,,,,,,,,,,aksa,001,2023-11-08_11h25.55.393,vowel_harmony,2023.2.3,Win32,60.07088364,815.2882,816.2864,,,,,,,,,,,,,,,,,,,,,,,,,,816.2865,816.8807,m,1,0.5642,,816.8809,816.881,,0,244,244,97,1,98,mevcut,3007,136.6262,2842,0.3107,6,notharmonic,1.95,word,m,,,,,,,
,,,,,,,,,,,aksa,001,2023-11-08_11h25.55.393,vowel_harmony,2023.2.3,Win32,60.07088364,816.8819,817.8709,,,,,,,,,,,,,,,,,,,,,,,,,,817.8711,818.362,m,1,0.4666,,818.3621,818.3622,,0,245,245,33,1,34,moda,1381,62.7472,1231,0.1346,4,harmonic,1.55,word,m,,,,,,,
,,,,,,,,,,,aksa,001,2023-11-08_11h25.55.393,vowel_harmony,2023.2.3,Win32,60.07088364,818.3628,819.3512,,,,,,,,,,,,,,,,,,,,,,,,,,819.3513,820.0008,z,1,0.6127,,820.001,820.0012,,0,246,246,312,1,313,şahmin,,,,,6,notharmonic,1.8,nw,z,,,,,,,
,,,,,,,,,,,aksa,001,2023-11-08_11h25.55.393,vowel_harmony,2023.2.3,Win32,60.07088364,820.0019,821.0008,,,,,,,,,,,,,,,,,,,,,,,,,,821.0008,821.6001,z,1,0.5725,,821.6002,821.6004,,0,247,247,234,1,235,düzöt,,,,,5,harmonic,2.05,nw,z,,,,,,,
,,,,,,,,,,,aksa,001,2023-11-08_11h25.55.393,vowel_harmony,2023.2.3,Win32,60.07088364,821.6013,822.5995,,,,,,,,,,,,,,,,,,,,,,,,,,822.5996,823.5328,m,1,0.8952,,823.5328,823.5331,,0,248,248,48,1,49,teşvik,932,42.3464,867,0.0948,6,harmonic,1.8,word,m,,,,,,,
,,,,,,,,,,,aksa,001,2023-11-08_11h25.55.393,vowel_harmony,2023.2.3,Win32,60.07088364,823.5341,824.5322,,,,,,,,,,,,,,,,,,,,,,,,,,824.5323,825.0867,z,1,0.5295,,825.0868,825.0871,,0,249,249,277,1,278,balsin,,,,,6,notharmonic,1.85,nw,z,,,,,,,
,,,,,,,,,,,aksa,001,2023-11-08_11h25.55.393,vowel_harmony,2023.2.3,Win32,60.07088364,825.0879,826.0813,,,,,,,,,,,,,,,,,,,,,,,,,,826.0814,826.7977,z,1,0.6755,,826.7979,826.798,,0,250,250,185,1,186,örtin,,,,,5,harmonic,1.9,nw,z,,,,,,,
,,,,,,,,,,,aksa,001,2023-11-08_11h25.55.393,vowel_harmony,2023.2.3,Win32,60.07088364,826.7989,827.7973,,,,,,,,,,,,,,,,,,,,,,,,,,827.7974,828.3303,m,1,0.5059,,828.3303,828.3305,,0,251,251,67,1,68,bayram,1948,88.5094,1648,0.1802,6,harmonic,1.85,word,m,,,,,,,
,,,,,,,,,,,aksa,001,2023-11-08_11h25.55.393,vowel_harmony,2023.2.3,Win32,60.07088364,828.3314,829.3398,,,,,,,,,,,,,,,,,,,,,,,,,,829.3398,829.9462,z,1,0.5743,,829.9463,829.9465,,0,252,252,218,1,219,tezöl,,,,,5,harmonic,2,nw,z,,,,,,,
,,,,,,,,,,,aksa,001,2023-11-08_11h25.55.393,vowel_harmony,2023.2.3,Win32,60.07088364,829.9475,830.9456,,,,,,,,,,,,,,,,,,,,,,,,,,830.9457,831.5247,z,1,0.5549,,831.5248,831.5251,,0,253,253,359,1,360,kardez,,,,,6,notharmonic,1.95,nw,z,,,,,,,
,,,,,,,,,,,aksa,001,2023-11-08_11h25.55.393,vowel_harmony,2023.2.3,Win32,60.07088364,831.526,832.5286,,,,,,,,,,,,,,,,,,,,,,,,,,832.5287,833.0121,m,1,0.4465,,833.0123,833.0127,,0,254,254,80,1,81,merkez,1445,65.6551,1255,0.1372,6,harmonic,1.8,word,m,,,,,,,
,,,,,,,,,,,aksa,001,2023-11-08_11h25.55.393,vowel_harmony,2023.2.3,Win32,60.07088364,833.0141,834.0103,,,,,,,,,,,,,,,,,,,,,,,,,,834.0103,834.877,m,1,0.8462,,834.8772,834.8775,,0,255,255,160,1,161,hakem,603,27.3979,473,0.0517,5,notharmonic,1.3,word,m,,,,,,,
,,,,,,,,,,,aksa,001,2023-11-08_11h25.55.393,vowel_harmony,2023.2.3,Win32,60.07088364,834.8784,835.8766,,,,,,,,,,,,,,,,,,,,,,,,,,835.8766,836.531,z,1,0.6257,,836.531,836.5312,,0,256,256,258,1,259,karıha,,,,,6,harmonic,1.75,nw,z,,,,,,,
,,,,,,,,,,,aksa,001,2023-11-08_11h25.55.393,vowel_harmony,2023.2.3,Win32,60.07088364,836.5316,837.5259,,,,,,,,,,,,,,,,,,,,,,,,,,837.526,838.3595,z,1,0.8015,,838.3597,838.36,,0,257,257,253,1,254,meslet,,,,,6,harmonic,1.85,nw,z,,,,,,,
,,,,,,,,,,,aksa,001,2023-11-08_11h25.55.393,vowel_harmony,2023.2.3,Win32,60.07088364,838.3616,839.3685,,,,,,,,,,,,,,,,,,,,,,,,,,839.3685,839.9526,m,1,0.5535,,839.9528,839.9529,,0,258,258,113,1,114,model,1200,54.5232,1082,0.1183,5,notharmonic,1.75,word,m,,,,,,,
,,,,,,,,,,,aksa,001,2023-11-08_11h25.55.393,vowel_harmony,2023.2.3,Win32,60.07088364,839.9538,840.9502,,,,,,,,,,,,,,,,,,,,,,,,,,840.9502,841.9823,z,1,1.0155,,841.9823,841.9823,,0,259,259,358,1,359,yangin,,,,,6,notharmonic,1.9,nw,z,,,,,,,
,,,,,,,,,,,aksa,001,2023-11-08_11h25.55.393,vowel_harmony,2023.2.3,Win32,60.07088364,841.9826,842.9768,,,,,,,,,,,,,,,,,,,,,,,,,,842.9769,843.4674,m,1,0.467,,843.4675,843.4677,,0,260,260,141,1,142,madde,3793,172.3389,3389,0.3705,5,notharmonic,1.7,word,m,,,,,,,
,,,,,,,,,,,aksa,001,2023-11-08_11h25.55.393,vowel_harmony,2023.2.3,Win32,60.07088364,843.4683,844.4726,,,,,,,,,,,,,,,,,,,,,,,,,,844.4727,844.9888,m,1,0.48,,844.989,844.9893,,0,261,261,7,1,8,hizmet,3023,137.3531,2689,0.294,6,harmonic,1.75,word,m,,,,,,,
,,,,,,,,,,,aksa,001,2023-11-08_11h25.55.393,vowel_harmony,2023.2.3,Win32,60.07088364,844.9904,845.9882,,,,,,,,,,,,,,,,,,,,,,,,,,845.9883,846.5045,m,1,0.4902,,846.5046,846.5049,,0,262,262,164,1,165,sinema,1575,71.5618,1304,0.1426,6,notharmonic,1.8,word,m,,,,,,,
,,,,,,,,,,,aksa,001,2023-11-08_11h25.55.393,vowel_harmony,2023.2.3,Win32,60.07088364,846.5058,847.5036,,,,,,,,,,,,,,,,,,,,,,,,,,847.5037,848.07,z,1,0.5377,,848.0701,848.0702,,0,263,263,303,1,304,fisor,,,,,5,notharmonic,1.9,nw,z,,,,,,,
,,,,,,,,,,,aksa,001,2023-11-08_11h25.55.393,vowel_harmony,2023.2.3,Win32,60.07088364,848.0705,849.0701,,,,,,,,,,,,,,,,,,,,,,,,,,849.0702,849.7042,m,1,0.6095,,849.7045,849.7052,,0,264,264,71,1,72,örnek,3463,157.345,3266,0.357,5,harmonic,1.85,word,m,,,,,,,
,,,,,,,,,,,aksa,001,2023-11-08_11h25.55.393,vowel_harmony,2023.2.3,Win32,60.07088364,849.7076,850.7027,,,,,,,,,,,,,,,,,,,,,,,,,,850.7027,851.6514,m,1,0.9103,,851.6514,851.6516,,0,265,265,92,1,93,sahne,1380,62.7017,1238,0.1353,5,notharmonic,1.65,word,m,,,,,,,
,,,,,,,,,,,aksa,001,2023-11-08_11h25.55.393,vowel_harmony,2023.2.3,Win32,60.07088364,851.652,852.6511,,,,,,,,,,,,,,,,,,,,,,,,,,852.6511,853.2346,z,1,0.5632,,853.2346,853.2349,,0,266,266,318,1,319,yorgün,,,,,6,notharmonic,1.9,nw,z,,,,,,,
,,,,,,,,,,,aksa,001,2023-11-08_11h25.55.393,vowel_harmony,2023.2.3,Win32,60.07088364,853.2359,854.2339,,,,,,,,,,,,,,,,,,,,,,,,,,854.2339,854.8008,z,1,0.5353,,854.8009,854.8012,,0,267,267,235,1,236,oşup,,,,,4,harmonic,1.75,nw,z,,,,,,,
,,,,,,,,,,,aksa,001,2023-11-08_11h25.55.393,vowel_harmony,2023.2.3,Win32,60.07088364,854.8026,855.8006,,,,,,,,,,,,,,,,,,,,,,,,,,855.8007,856.3168,m,1,0.4845,,856.317,856.3172,,0,268,268,131,1,132,hakim,1677,76.1962,1559,0.1704,5,notharmonic,1,word,m,,,,,,,
,,,,,,,,,,,aksa,001,2023-11-08_11h25.55.393,vowel_harmony,2023.2.3,Win32,60.07088364,856.3188,857.3159,,,,,,,,,,,,,,,,,,,,,,,,,,857.316,858.0158,m,1,0.6589,,858.0159,858.0161,,0,269,269,69,1,70,forma,719,32.6685,597,0.0653,5,harmonic,1.8,word,m,,,,,,,
,,,,,,,,,,,aksa,001,2023-11-08_11h25.55.393,vowel_harmony,2023.2.3,Win32,60.07088364,858.017,859.0151,,,,,,,,,,,,,,,,,,,,,,,,,,859.0152,859.5774,z,1,0.5389,,859.5774,859.5775,,0,270,270,348,1,349,aife,,,,,4,notharmonic,1.75,nw,z,,,,,,,
,,,,,,,,,,,aksa,001,2023-11-08_11h25.55.393,vowel_harmony,2023.2.3,Win32,60.07088364,859.5779,860.5814,,,,,,,,,,,,,,,,,,,,,,,,,,860.5815,861.1971,m,1,0.5711,,861.1971,861.1974,,0,271,271,16,1,17,yavaş,5087,231.1331,2886,0.3155,5,harmonic,1.6,word,m,,,,,,,
,,,,,,,,,,,aksa,001,2023-11-08_11h25.55.393,vowel_harmony,2023.2.3,Win32,60.07088364,861.198,862.1964,,,,,,,,,,,,,,,,,,,,,,,,,,862.1964,862.8135,m,1,0.6009,,862.8136,862.814,,0,272,272,13,1,14,nokta,2085,94.7341,1939,0.212,5,harmonic,1.5,word,m,,,,,,,
,,,,,,,,,,,aksa,001,2023-11-08_11h25.55.393,vowel_harmony,2023.2.3,Win32,60.07088364,862.815,863.8131,,,,,,,,,,,,,,,,,,,,,,,,,,863.8133,864.5168,z,1,0.673,,864.517,864.5177,,0,273,273,276,1,277,iptap,,,,,5,notharmonic,1.95,nw,z,,,,,,,
,,,,,,,,,,,aksa,001,2023-11-08_11h25.55.393,vowel_harmony,2023.2.3,Win32,60.07088364,864.5188,865.5214,,,,,,,,,,,,,,,,,,,,,,,,,,865.5215,866.3888,z,1,0.8505,,866.3888,866.3888,,0,274,274,263,1,264,duzur,,,,,5,harmonic,1.8,nw,z,,,,,,,
,,,,,,,,,,,aksa,001,2023-11-08_11h25.55.393,vowel_harmony,2023.2.3,Win32,60.07088364,866.3892,867.3779,,,,,,,,,,,,,,,,,,,,,,,,,,867.3779,867.9269,m,1,0.5089,,867.9269,867.9271,,0,275,275,116,1,117,daire,621,28.2158,503,0.055,5,notharmonic,1,word,m,,,,,,,
,,,,,,,,,,,aksa,001,2023-11-08_11h25.55.393,vowel_harmony,2023.2.3,Win32,60.07088364,867.9275,868.927,,,,,,,,,,,,,,,,,,,,,,,,,,868.9271,869.5868,m,1,0.6368,,869.5869,869.587,,0,276,276,20,1,21,nefes,2871,130.4469,2553,0.2791,5,harmonic,1.8,word,m,,,,,,,
,,,,,,,,,,,aksa,001,2023-11-08_11h25.55.393,vowel_harmony,2023.2.3,Win32,60.07088364,869.5873,870.5765,,,,,,,,,,,,,,,,,,,,,,,,,,870.5767,871.0762,m,1,0.4577,,871.0764,871.0766,,0,277,277,74,1,75,başarı,1398,63.5196,1300,0.1421,6,harmonic,1.2,word,m,,,,,,,
,,,,,,,,,,,aksa,001,2023-11-08_11h25.55.393,vowel_harmony,2023.2.3,Win32,60.07088364,871.0779,872.0754,,,,,,,,,,,,,,,,,,,,,,,,,,872.0755,872.6308,z,1,0.531,,872.631,872.6317,,0,278,278,219,1,220,barlum,,,,,6,harmonic,1.9,nw,z,,,,,,,
,,,,,,,,,,,aksa,001,2023-11-08_11h25.55.393,vowel_harmony,2023.2.3,Win32,60.07088364,872.6327,873.6344,,,,,,,,,,,,,,,,,,,,,,,,,,873.6344,874.2571,m,1,0.5955,,874.2572,874.2573,,0,279,279,17,1,18,yakın,7990,363.0339,7595,0.8303,5,harmonic,1.8,word,m,,,,,,,
,,,,,,,,,,,aksa,001,2023-11-08_11h25.55.393,vowel_harmony,2023.2.3,Win32,60.07088364,874.2578,875.2573,,,,,,,,,,,,,,,,,,,,,,,,,,875.2573,875.8839,z,1,0.6037,,875.884,875.8841,,0,280,280,201,1,202,ergiy,,,,,5,harmonic,1.85,nw,z,,,,,,,
,,,,,,,,,,,aksa,001,2023-11-08_11h25.55.393,vowel_harmony,2023.2.3,Win32,60.07088364,875.8847,876.8737,,,,,,,,,,,,,,,,,,,,,,,,,,876.8738,877.3889,m,1,0.475,,877.3889,877.389,,0,281,281,155,1,156,ilaç,1366,62.0656,1215,0.1328,4,notharmonic,1.75,word,m,,,,,,,
,,,,,,,,,,,aksa,001,2023-11-08_11h25.55.393,vowel_harmony,2023.2.3,Win32,60.07088364,877.3895,878.3889,,,,,,,,,,,,,,,,,,,,,,,,,,878.389,879.4154,m,1,1.0033,,879.4155,879.4156,,0,282,282,119,1,120,kulüp,649,29.488,467,0.0511,5,notharmonic,1.4,word,m,,,,,,,
,,,,,,,,,,,aksa,001,2023-11-08_11h25.55.393,vowel_harmony,2023.2.3,Win32,60.07088364,879.4159,880.4048,,,,,,,,,,,,,,,,,,,,,,,,,,880.4049,881.0872,z,1,0.6428,,881.0872,881.0874,,0,283,283,313,1,314,ikas,,,,,4,notharmonic,1.85,nw,z,,,,,,,
,,,,,,,,,,,aksa,001,2023-11-08_11h25.55.393,vowel_harmony,2023.2.3,Win32,60.07088364,881.0883,882.0867,,,,,,,,,,,,,,,,,,,,,,,,,,882.0867,882.703,m,1,0.5887,,882.703,882.7031,,0,284,284,30,1,31,çevre,1662,75.5147,1409,0.154,5,harmonic,1.55,word,m,,,,,,,
,,,,,,,,,,,aksa,001,2023-11-08_11h25.55.393,vowel_harmony,2023.2.3,Win32,60.07088364,882.7036,883.7029,,,,,,,,,,,,,,,,,,,,,,,,,,883.703,884.3062,z,1,0.578,,884.3066,884.3072,,0,285,285,243,1,244,korguf,,,,,6,harmonic,2,nw,z,,,,,,,
,,,,,,,,,,,aksa,001,2023-11-08_11h25.55.393,vowel_harmony,2023.2.3,Win32,60.07088364,884.3081,885.3021,,,,,,,,,,,,,,,,,,,,,,,,,,885.3022,886.0681,z,1,0.7303,,886.0682,886.0684,,0,286,286,289,1,290,karmen,,,,,6,notharmonic,1.75,nw,z,,,,,,,
,,,,,,,,,,,aksa,001,2023-11-08_11h25.55.393,vowel_harmony,2023.2.3,Win32,60.07088364,886.0696,887.0675,,,,,,,,,,,,,,,,,,,,,,,,,,887.0675,887.7004,z,1,0.6129,,887.7005,887.7006,,0,287,287,261,1,262,kardok,,,,,6,harmonic,1.95,nw,z,,,,,,,
,,,,,,,,,,,aksa,001,2023-11-08_11h25.55.393,vowel_harmony,2023.2.3,Win32,60.07088364,887.7011,888.7,,,,,,,,,,,,,,,,,,,,,,,,,,888.7,889.3329,z,1,0.6044,,889.333,889.3331,,0,288,288,307,1,308,merbat,,,,,6,notharmonic,1.95,nw,z,,,,,,,
,,,,,,,,,,,aksa,001,2023-11-08_11h25.55.393,vowel_harmony,2023.2.3,Win32,60.07088364,889.3338,890.3331,,,,,,,,,,,,,,,,,,,,,,,,,,890.3332,890.8495,z,1,0.4855,,890.8495,890.8498,,0,289,289,355,1,356,adül,,,,,4,notharmonic,1.85,nw,z,,,,,,,
,,,,,,,,,,,aksa,001,2023-11-08_11h25.55.393,vowel_harmony,2023.2.3,Win32,60.07088364,890.8506,891.8489,,,,,,,,,,,,,,,,,,,,,,,,,,891.849,892.4826,z,1,0.6009,,892.4829,892.4834,,0,290,290,231,1,232,norgun,,,,,6,harmonic,1.75,nw,z,,,,,,,
,,,,,,,,,,,aksa,001,2023-11-08_11h25.55.393,vowel_harmony,2023.2.3,Win32,60.07088364,892.4853,893.4818,,,,,,,,,,,,,,,,,,,,,,,,,,893.482,893.9912,z,1,0.4834,,893.9913,893.9914,,0,291,291,288,1,289,molit,,,,,5,notharmonic,1.95,nw,z,,,,,,,
,,,,,,,,,,,aksa,001,2023-11-08_11h25.55.393,vowel_harmony,2023.2.3,Win32,60.07088364,893.9919,894.9812,,,,,,,,,,,,,,,,,,,,,,,,,,894.9813,895.5299,z,0,0.5043,,895.5299,895.5301,,0,292,292,109,1,110,milyon,3936,178.8362,2958,0.3234,6,notharmonic,1.75,word,m,,,,,,,
,,,,,,,,,,,aksa,001,2023-11-08_11h25.55.393,vowel_harmony,2023.2.3,Win32,60.07088364,895.5304,896.5296,,,,,,,,,,,,,,,,,,,,,,,,,,896.5296,897.1632,m,1,0.6104,,897.1632,897.1635,,0,293,293,94,1,95,final,876,39.802,778,0.0851,5,notharmonic,1,word,m,,,,,,,
,,,,,,,,,,,aksa,001,2023-11-08_11h25.55.393,vowel_harmony,2023.2.3,Win32,60.07088364,897.1644,898.1626,,,,,,,,,,,,,,,,,,,,,,,,,,898.1627,898.6622,m,1,0.4695,,898.6623,898.6628,,0,294,294,146,1,147,mavi,2206,100.2319,1934,0.2114,4,notharmonic,1.45,word,m,,,,,,,
,,,,,,,,,,,aksa,001,2023-11-08_11h25.55.393,vowel_harmony,2023.2.3,Win32,60.07088364,898.6639,899.656,,,,,,,,,,,,,,,,,,,,,,,,,,899.656,900.2782,m,1,0.5999,,900.2782,900.2784,,0,295,295,2,1,3,radyo,763,34.6677,636,0.0695,5,harmonic,1.85,word,m,,,,,,,
,,,,,,,,,,,aksa,001,2023-11-08_11h25.55.393,vowel_harmony,2023.2.3,Win32,60.07088364,900.2793,901.2777,,,,,,,,,,,,,,,,,,,,,,,,,,901.2777,901.9274,z,1,0.6118,,901.9275,901.9278,,0,296,296,268,1,269,haldum,,,,,6,harmonic,2,nw,z,,,,,,,
,,,,,,,,,,,aksa,001,2023-11-08_11h25.55.393,vowel_harmony,2023.2.3,Win32,60.07088364,901.9288,902.9269,,,,,,,,,,,,,,,,,,,,,,,,,,902.927,903.4101,z,1,0.457,,903.4101,903.4104,,0,297,297,342,1,343,kulön,,,,,5,notharmonic,1.9,nw,z,,,,,,,
,,,,,,,,,,,aksa,001,2023-11-08_11h25.55.393,vowel_harmony,2023.2.3,Win32,60.07088364,903.4113,904.4095,,,,,,,,,,,,,,,,,,,,,,,,,,904.4096,905.0716,m,1,0.6321,,905.0717,905.072,,0,298,298,117,1,118,nasip,1069,48.5711,1042,0.1139,5,notharmonic,1.8,word,m,,,,,,,
,,,,,,,,,,,aksa,001,2023-11-08_11h25.55.393,vowel_harmony,2023.2.3,Win32,60.07088364,905.073,906.0753,,,,,,,,,,,,,,,,,,,,,,,,,,906.0753,906.6914,m,1,0.5854,,906.6916,906.6918,,0,299,299,162,1,163,hariç,1267,57.5675,1233,0.1348,5,notharmonic,1.75,word,m,,,,,,,
,,,,,,,,,,,aksa,001,2023-11-08_11h25.55.393,vowel_harmony,2023.2.3,Win32,60.07088364,906.6928,907.6911,,,,,,,,,,,,,,,,,,,,,,,,,,907.6912,908.4917,z,1,0.7658,,908.4917,908.4921,,0,300,300,274,1,275,pisan,,,,,5,notharmonic,1.75,nw,z,,,,,,,
,,,,,,,,,,,aksa,001,2023-11-08_11h25.55.393,vowel_harmony,2023.2.3,Win32,60.07088364,908.4931,909.4896,,,,,,,,,,,,,,,,,,,,,,,,,,909.4897,910.2232,z,1,0.7123,,910.2233,910.2236,,0,301,301,240,1,241,hoga,,,,,4,harmonic,1.75,nw,z,,,,,,,
,,,,,,,,,,,aksa,001,2023-11-08_11h25.55.393,vowel_harmony,2023.2.3,Win32,60.07088364,910.2246,911.2228,,,,,,,,,,,,,,,,,,,,,,,,,,911.2229,911.8061,z,1,0.5534,,911.8061,911.8064,,0,302,302,264,1,265,vepü,,,,,4,harmonic,2,nw,z,,,,,,,
,,,,,,,,,,,aksa,001,2023-11-08_11h25.55.393,vowel_harmony,2023.2.3,Win32,60.07088364,911.8075,912.7995,,,,,,,,,,,,,,,,,,,,,,,,,,912.7995,913.3149,m,1,0.4982,,913.3149,913.3151,,0,303,303,8,1,9,güven,1433,65.1098,1300,0.1421,5,harmonic,1.35,word,m,,,,,,,
,,,,,,,,,,,aksa,001,2023-11-08_11h25.55.393,vowel_harmony,2023.2.3,Win32,60.07088364,913.3154,914.3099,,,,,,,,,,,,,,,,,,,,,,,,,,914.3099,914.9378,z,1,0.5958,,914.938,914.9383,,0,304,304,298,1,299,yelsın,,,,,6,notharmonic,1.95,nw,z,,,,,,,
,,,,,,,,,,,aksa,001,2023-11-08_11h25.55.393,vowel_harmony,2023.2.3,Win32,60.07088364,914.9392,915.9368,,,,,,,,,,,,,,,,,,,,,,,,,,915.9368,916.5699,z,1,0.6083,,916.57,916.5702,,0,305,305,317,1,318,mevul,,,,,5,notharmonic,1.95,nw,z,,,,,,,
,,,,,,,,,,,aksa,001,2023-11-08_11h25.55.393,vowel_harmony,2023.2.3,Win32,60.07088364,916.5708,917.569,,,,,,,,,,,,,,,,,,,,,,,,,,917.569,918.1696,z,1,0.5718,,918.1697,918.17,,0,306,306,339,1,340,asmel,,,,,5,notharmonic,1.95,nw,z,,,,,,,
,,,,,,,,,,,aksa,001,2023-11-08_11h25.55.393,vowel_harmony,2023.2.3,Win32,60.07088364,918.171,919.1688,,,,,,,,,,,,,,,,,,,,,,,,,,919.1689,919.7686,z,1,0.5747,,919.7687,919.7691,,0,307,307,189,1,190,düvre,,,,,5,harmonic,1.85,nw,z,,,,,,,
,,,,,,,,,,,aksa,001,2023-11-08_11h25.55.393,vowel_harmony,2023.2.3,Win32,60.07088364,919.7707,920.7614,,,,,,,,,,,,,,,,,,,,,,,,,,920.7614,921.4008,m,1,0.6088,,921.4008,921.4011,,0,308,308,39,1,40,yaygın,1061,48.2076,1019,0.1114,6,harmonic,1.35,word,m,,,,,,,
,,,,,,,,,,,aksa,001,2023-11-08_11h25.55.393,vowel_harmony,2023.2.3,Win32,60.07088364,921.4016,922.4,,,,,,,,,,,,,,,,,,,,,,,,,,922.4,923.0004,z,1,0.5796,,923.0004,923.0007,,0,309,309,221,1,222,yaypın,,,,,6,harmonic,1.75,nw,z,,,,,,,
,,,,,,,,,,,aksa,001,2023-11-08_11h25.55.393,vowel_harmony,2023.2.3,Win32,60.07088364,923.0016,923.9999,,,,,,,,,,,,,,,,,,,,,,,,,,923.9999,924.6111,z,1,0.5818,,924.6113,924.6119,,0,310,310,250,1,251,kakuk,,,,,5,harmonic,1.9,nw,z,,,,,,,
,,,,,,,,,,,aksa,001,2023-11-08_11h25.55.393,vowel_harmony,2023.2.3,Win32,60.07088364,924.6131,925.6159,,,,,,,,,,,,,,,,,,,,,,,,,,925.616,926.3927,z,1,0.7507,,926.3927,926.3929,,0,311,311,257,1,258,zerü,,,,,4,harmonic,1.8,nw,z,,,,,,,
,,,,,,,,,,,aksa,001,2023-11-08_11h25.55.393,vowel_harmony,2023.2.3,Win32,60.07088364,926.3931,927.3823,,,,,,,,,,,,,,,,,,,,,,,,,,927.3825,928.1307,z,1,0.7095,,928.1307,928.1309,,0,312,312,323,1,324,devak,,,,,5,notharmonic,1.75,nw,z,,,,,,,
,,,,,,,,,,,aksa,001,2023-11-08_11h25.55.393,vowel_harmony,2023.2.3,Win32,60.07088364,928.1314,929.1302,,,,,,,,,,,,,,,,,,,,,,,,,,929.1303,929.8465,z,1,0.6932,,929.8466,929.8466,,0,313,313,267,1,268,nokuma,,,,,6,harmonic,1.75,nw,z,,,,,,,
,,,,,,,,,,,aksa,001,2023-11-08_11h25.55.393,vowel_harmony,2023.2.3,Win32,60.07088364,929.8477,930.8458,,,,,,,,,,,,,,,,,,,,,,,,,,930.8459,931.4623,m,1,0.5883,,931.4624,931.4626,,0,314,314,98,1,99,paket,1532,69.608,1392,0.1522,5,notharmonic,1.55,word,m,,,,,,,
,,,,,,,,,,,aksa,001,2023-11-08_11h25.55.393,vowel_harmony,2023.2.3,Win32,60.07088364,931.463,932.4625,,,,,,,,,,,,,,,,,,,,,,,,,,932.4626,932.9896,z,1,0.5038,,932.9896,932.9898,,0,315,315,252,1,253,anlgı,,,,,5,harmonic,1.9,nw,z,,,,,,,
,,,,,,,,,,,aksa,001,2023-11-08_11h25.55.393,vowel_harmony,2023.2.3,Win32,60.07088364,932.9901,933.9782,,,,,,,,,,,,,,,,,,,,,,,,,,933.9783,934.7939,m,1,0.7737,,934.794,934.7942,,0,316,316,103,1,104,tane,5623,255.4868,5075,0.5548,4,notharmonic,1.3,word,m,,,,,,,
,,,,,,,,,,,aksa,001,2023-11-08_11h25.55.393,vowel_harmony,2023.2.3,Win32,60.07088364,934.7948,935.7942,,,,,,,,,,,,,,,,,,,,,,,,,,935.7943,936.4764,z,1,0.6549,,936.4764,936.4765,,0,317,317,350,1,351,resun,,,,,5,notharmonic,1.85,nw,z,,,,,,,
,,,,,,,,,,,aksa,001,2023-11-08_11h25.55.393,vowel_harmony,2023.2.3,Win32,60.07088364,936.477,937.4759,,,,,,,,,,,,,,,,,,,,,,,,,,937.476,938.0756,z,1,0.5727,,938.0756,938.0758,,0,318,318,278,1,279,sekon,,,,,5,notharmonic,1.85,nw,z,,,,,,,
,,,,,,,,,,,aksa,001,2023-11-08_11h25.55.393,vowel_harmony,2023.2.3,Win32,60.07088364,938.0761,939.0751,,,,,,,,,,,,,,,,,,,,,,,,,,939.0752,939.5422,z,1,0.4458,,939.5422,939.5425,,0,319,319,226,1,227,tefem,,,,,5,harmonic,1.75,nw,z,,,,,,,
,,,,,,,,,,,aksa,001,2023-11-08_11h25.55.393,vowel_harmony,2023.2.3,Win32,60.07088364,939.5435,940.5414,,,,,,,,,,,,,,,,,,,,,,,,,,940.5414,941.1417,m,1,0.5685,,941.1418,941.142,,0,320,320,93,1,94,siyah,2944,133.7637,2527,0.2763,5,notharmonic,1.6,word,m,,,,,,,
,,,,,,,,,,,aksa,001,2023-11-08_11h25.55.393,vowel_harmony,2023.2.3,Win32,60.07088364,941.1435,942.1344,,,,,,,,,,,,,,,,,,,,,,,,,,942.1344,942.6853,m,1,0.532,,942.6855,942.6857,,0,321,321,27,1,28,bölge,1283,58.2944,1123,0.1228,5,harmonic,1.65,word,m,,,,,,,
,,,,,,,,,,,aksa,001,2023-11-08_11h25.55.393,vowel_harmony,2023.2.3,Win32,60.07088364,942.6865,943.6747,,,,,,,,,,,,,,,,,,,,,,,,,,943.675,944.3726,z,1,0.6566,,944.3727,944.3728,,0,322,322,228,1,229,haytam,,,,,6,harmonic,1.75,nw,z,,,,,,,
,,,,,,,,,,,aksa,001,2023-11-08_11h25.55.393,vowel_harmony,2023.2.3,Win32,60.07088364,944.3732,945.3728,,,,,,,,,,,,,,,,,,,,,,,,,,945.3728,946.0227,m,1,0.6206,,946.0228,946.0231,,0,323,323,81,1,82,üretim,1593,72.3796,1283,0.1403,6,harmonic,1.6,word,m,,,,,,,
,,,,,,,,,,,aksa,001,2023-11-08_11h25.55.393,vowel_harmony,2023.2.3,Win32,60.07088364,946.0246,947.0221,,,,,,,,,,,,,,,,,,,,,,,,,,947.0222,947.5549,m,1,0.4901,,947.5549,947.5553,,0,324,324,61,1,62,yıldız,1775,80.649,1532,0.1675,6,harmonic,1.6,word,m,,,,,,,
,,,,,,,,,,,aksa,001,2023-11-08_11h25.55.393,vowel_harmony,2023.2.3,Win32,60.07088364,947.5563,948.5543,,,,,,,,,,,,,,,,,,,,,,,,,,948.5545,949.27,m,1,0.6875,,949.2701,949.2702,,0,325,325,66,1,67,sanık,768,34.8949,699,0.0764,5,harmonic,1.85,word,m,,,,,,,
,,,,,,,,,,,aksa,001,2023-11-08_11h25.55.393,vowel_harmony,2023.2.3,Win32,60.07088364,949.2706,950.2697,,,,,,,,,,,,,,,,,,,,,,,,,,950.2697,950.8193,m,1,0.5206,,950.8194,950.8195,,0,326,326,84,1,85,ülke,3121,141.8059,2801,0.3062,4,harmonic,1.65,word,m,,,,,,,
,,,,,,,,,,,aksa,001,2023-11-08_11h25.55.393,vowel_harmony,2023.2.3,Win32,60.07088364,950.8203,951.819,,,,,,,,,,,,,,,,,,,,,,,,,,951.819,952.3856,z,1,0.5437,,952.3856,952.3858,,0,327,327,200,1,201,duşın,,,,,5,harmonic,1.9,nw,z,,,,,,,
,,,,,,,,,,,aksa,001,2023-11-08_11h25.55.393,vowel_harmony,2023.2.3,Win32,60.07088364,952.3864,953.3848,,,,,,,,,,,,,,,,,,,,,,,,,,953.3848,953.9685,m,1,0.5531,,953.9685,953.9688,,0,328,328,55,1,56,akıl,2208,100.3228,2004,0.2191,4,harmonic,1,word,m,,,,,,,
,,,,,,,,,,,aksa,001,2023-11-08_11h25.55.393,vowel_harmony,2023.2.3,Win32,60.07088364,953.9698,954.9676,,,,,,,,,,,,,,,,,,,,,,,,,,954.9676,955.5009,m,1,0.5076,,955.5011,955.5014,,0,329,329,168,1,169,kilo,3389,153.9827,2646,0.2893,4,notharmonic,1.65,word,m,,,,,,,
,,,,,,,,,,,aksa,001,2023-11-08_11h25.55.393,vowel_harmony,2023.2.3,Win32,60.07088364,955.5024,956.5002,,,,,,,,,,,,,,,,,,,,,,,,,,956.5002,956.9774,z,1,0.4508,,956.9775,956.9775,,0,330,330,194,1,195,rayna,,,,,5,harmonic,1.7,nw,z,,,,,,,
,,,,,,,,,,,aksa,001,2023-11-08_11h25.55.393,vowel_harmony,2023.2.3,Win32,60.07088364,956.978,957.9667,,,,,,,,,,,,,,,,,,,,,,,,,,957.9667,958.433,m,1,0.4284,,958.4331,958.4336,,0,331,331,121,1,122,mesaj,1604,72.8794,1386,0.1515,5,notharmonic,1.8,word,m,,,,,,,
,,,,,,,,,,,aksa,001,2023-11-08_11h25.55.393,vowel_harmony,2023.2.3,Win32,60.07088364,958.4351,959.4318,,,,,,,,,,,,,,,,,,,,,,,,,,959.4319,960.0982,z,1,0.6457,,960.0983,960.0983,,0,332,332,354,1,355,taden,,,,,5,notharmonic,1.7,nw,z,,,,,,,
,,,,,,,,,,,aksa,001,2023-11-08_11h25.55.393,vowel_harmony,2023.2.3,Win32,60.07088364,960.0988,961.0983,,,,,,,,,,,,,,,,,,,,,,,,,,961.0983,961.5821,z,1,0.4519,,961.5824,961.583,,0,333,333,255,1,256,yokın,,,,,5,harmonic,1.85,nw,z,,,,,,,
,,,,,,,,,,,aksa,001,2023-11-08_11h25.55.393,vowel_harmony,2023.2.3,Win32,60.07088364,961.5849,962.5813,,,,,,,,,,,,,,,,,,,,,,,,,,962.5815,963.0478,m,1,0.4346,,963.048,963.0485,,0,334,334,134,1,135,iptal,793,36.0308,725,0.0793,5,notharmonic,1.35,word,m,,,,,,,
,,,,,,,,,,,aksa,001,2023-11-08_11h25.55.393,vowel_harmony,2023.2.3,Win32,60.07088364,963.051,964.047,,,,,,,,,,,,,,,,,,,,,,,,,,964.047,964.5962,m,1,0.5064,,964.5963,964.5964,,0,335,335,88,1,89,yalnız,5891,267.6637,5440,0.5947,6,harmonic,1.6,word,m,,,,,,,
,,,,,,,,,,,aksa,001,2023-11-08_11h25.55.393,vowel_harmony,2023.2.3,Win32,60.07088364,964.5971,965.596,,,,,,,,,,,,,,,,,,,,,,,,,,965.596,966.1232,m,1,0.4975,,966.1232,966.1234,,0,336,336,144,1,145,garip,2567,116.6343,2355,0.2574,5,notharmonic,1.65,word,m,,,,,,,
,,,,,,,,,,,aksa,001,2023-11-08_11h25.55.393,vowel_harmony,2023.2.3,Win32,60.07088364,966.1236,967.1122,,,,,,,,,,,,,,,,,,,,,,,,,,967.1123,967.6336,z,1,0.4956,,967.6337,967.6338,,0,337,337,325,1,326,garit,,,,,5,notharmonic,1.85,nw,z,,,,,,,
,,,,,,,,,,,aksa,001,2023-11-08_11h25.55.393,vowel_harmony,2023.2.3,Win32,60.07088364,967.6342,968.638,,,,,,,,,,,,,,,,,,,,,,,,,,968.6381,969.1539,z,1,0.4992,,969.154,969.1542,,0,338,338,322,1,323,normin,,,,,6,notharmonic,1.95,nw,z,,,,,,,
,,,,,,,,,,,aksa,001,2023-11-08_11h25.55.393,vowel_harmony,2023.2.3,Win32,60.07088364,969.1545,970.1443,,,,,,,,,,,,,,,,,,,,,,,,,,970.1445,970.7433,m,1,0.5598,,970.7434,970.7437,,0,339,339,45,1,46,bilgi,5981,271.7529,5353,0.5852,5,harmonic,1.5,word,m,,,,,,,
,,,,,,,,,,,aksa,001,2023-11-08_11h25.55.393,vowel_harmony,2023.2.3,Win32,60.07088364,970.7444,971.7423,,,,,,,,,,,,,,,,,,,,,,,,,,971.7424,972.2427,m,1,0.4783,,972.2428,972.2431,,0,340,340,29,1,30,huzur,1911,86.8283,1799,0.1967,5,harmonic,1.8,word,m,,,,,,,
,,,,,,,,,,,aksa,001,2023-11-08_11h25.55.393,vowel_harmony,2023.2.3,Win32,60.07088364,972.2441,973.2424,,,,,,,,,,,,,,,,,,,,,,,,,,973.2425,974.1532,m,1,0.8806,,974.1532,974.1533,,0,341,341,50,1,51,kanun,1198,54.4324,1010,0.1104,5,harmonic,1.6,word,m,,,,,,,
,,,,,,,,,,,aksa,001,2023-11-08_11h25.55.393,vowel_harmony,2023.2.3,Win32,60.07088364,974.1536,975.1509,,,,,,,,,,,,,,,,,,,,,,,,,,975.151,975.7081,z,1,0.5348,,975.7083,975.7086,,0,342,342,224,1,225,ertre,,,,,5,harmonic,1.95,nw,z,,,,,,,
,,,,,,,,,,,aksa,001,2023-11-08_11h25.55.393,vowel_harmony,2023.2.3,Win32,60.07088364,975.71,976.7009,,,,,,,,,,,,,,,,,,,,,,,,,,976.701,977.2403,m,1,0.5098,,977.2404,977.2407,,0,343,343,37,1,38,hayvan,2363,107.3653,1894,0.2071,6,harmonic,1.5,word,m,,,,,,,
,,,,,,,,,,,aksa,001,2023-11-08_11h25.55.393,vowel_harmony,2023.2.3,Win32,60.07088364,977.2417,978.2391,,,,,,,,,,,,,,,,,,,,,,,,,,978.2391,979.0228,m,1,0.767,,979.0229,979.0234,,0,344,344,82,1,83,aday,1028,46.7082,873,0.0954,4,harmonic,1.45,word,m,,,,,,,
,,,,,,,,,,,aksa,001,2023-11-08_11h25.55.393,vowel_harmony,2023.2.3,Win32,60.07088364,979.0243,980.0222,,,,,,,,,,,,,,,,,,,,,,,,,,980.0223,980.5824,m,1,0.5309,,980.5825,980.5826,,0,345,345,54,1,55,yedek,825,37.4847,732,0.08,5,harmonic,1.65,word,m,,,,,,,
,,,,,,,,,,,aksa,001,2023-11-08_11h25.55.393,vowel_harmony,2023.2.3,Win32,60.07088364,980.5829,981.572,,,,,,,,,,,,,,,,,,,,,,,,,,981.5721,982.0982,m,1,0.5001,,982.0983,982.0983,,0,346,346,107,1,108,merak,5806,263.8016,5524,0.6039,5,notharmonic,1.65,word,m,,,,,,,
,,,,,,,,,,,aksa,001,2023-11-08_11h25.55.393,vowel_harmony,2023.2.3,Win32,60.07088364,982.0986,983.0878,,,,,,,,,,,,,,,,,,,,,,,,,,983.0878,983.7037,z,1,0.5736,,983.7038,983.7042,,0,347,347,338,1,339,pardön,,,,,6,notharmonic,1.95,nw,z,,,,,,,
,,,,,,,,,,,aksa,001,2023-11-08_11h25.55.393,vowel_harmony,2023.2.3,Win32,60.07088364,983.7051,984.7026,,,,,,,,,,,,,,,,,,,,,,,,,,984.7026,985.3528,m,1,0.6205,,985.353,985.3532,,0,348,348,152,1,153,tedavi,1865,84.7382,1597,0.1746,6,notharmonic,1.8,word,m,,,,,,,
,,,,,,,,,,,aksa,001,2023-11-08_11h25.55.393,vowel_harmony,2023.2.3,Win32,60.07088364,985.3542,986.3523,,,,,,,,,,,,,,,,,,,,,,,,,,986.3523,987.0382,z,1,0.6567,,987.0384,987.039,,0,349,349,336,1,337,diyam,,,,,5,notharmonic,1.85,nw,z,,,,,,,
,,,,,,,,,,,aksa,001,2023-11-08_11h25.55.393,vowel_harmony,2023.2.3,Win32,60.07088364,987.0398,988.0451,,,,,,,,,,,,,,,,,,,,,,,,,,988.0452,988.5972,z,1,0.5317,,988.5973,988.5976,,0,350,350,197,1,198,ranar,,,,,5,harmonic,1.75,nw,z,,,,,,,
,,,,,,,,,,,aksa,001,2023-11-08_11h25.55.393,vowel_harmony,2023.2.3,Win32,60.07088364,988.5983,989.6105,,,,,,,,,,,,,,,,,,,,,,,,,,989.6106,990.2339,z,1,0.5954,,990.234,990.2342,,0,351,351,311,1,312,dedya,,,,,5,notharmonic,1.9,nw,z,,,,,,,
,,,,,,,,,,,aksa,001,2023-11-08_11h25.55.393,vowel_harmony,2023.2.3,Win32,60.07088364,990.2352,991.2328,,,,,,,,,,,,,,,,,,,,,,,,,,991.2328,991.7493,z,1,0.4927,,991.7493,991.7495,,0,352,352,217,1,218,sanfız,,,,,6,harmonic,1.85,nw,z,,,,,,,
,,,,,,,,,,,aksa,001,2023-11-08_11h25.55.393,vowel_harmony,2023.2.3,Win32,60.07088364,991.75,992.7493,,,,,,,,,,,,,,,,,,,,,,,,,,992.7495,993.4085,z,1,0.6293,,993.4086,993.4087,,0,353,353,349,1,350,harten,,,,,6,notharmonic,1.85,nw,z,,,,,,,
,,,,,,,,,,,aksa,001,2023-11-08_11h25.55.393,vowel_harmony,2023.2.3,Win32,60.07088364,993.4089,994.3994,,,,,,,,,,,,,,,,,,,,,,,,,,994.3994,994.9818,z,1,0.5503,,994.9819,994.9822,,0,354,354,275,1,276,tahçe,,,,,5,notharmonic,1.95,nw,z,,,,,,,
,,,,,,,,,,,aksa,001,2023-11-08_11h25.55.393,vowel_harmony,2023.2.3,Win32,60.07088364,994.9836,995.9743,,,,,,,,,,,,,,,,,,,,,,,,,,995.9744,996.5135,m,1,0.5102,,996.5136,996.5138,,0,355,355,24,1,25,yorgun,1153,52.3877,1108,0.1211,6,harmonic,1.55,word,m,,,,,,,
,,,,,,,,,,,aksa,001,2023-11-08_11h25.55.393,vowel_harmony,2023.2.3,Win32,60.07088364,996.5143,997.5132,,,,,,,,,,,,,,,,,,,,,,,,,,997.5133,998.0153,z,1,0.4765,,998.0154,998.0157,,0,356,356,295,1,296,haylin,,,,,6,notharmonic,1.8,nw,z,,,,,,,
,,,,,,,,,,,aksa,001,2023-11-08_11h25.55.393,vowel_harmony,2023.2.3,Win32,60.07088364,998.0172,999.0126,,,,,,,,,,,,,,,,,,,,,,,,,,999.0127,999.9117,m,1,0.8723,,999.9118,999.9119,,0,357,357,151,1,152,ateş,2108,95.7792,1803,0.1971,4,notharmonic,1.65,word,m,,,,,,,
,,,,,,,,,,,aksa,001,2023-11-08_11h25.55.393,vowel_harmony,2023.2.3,Win32,60.07088364,999.9123,1000.912,,,,,,,,,,,,,,,,,,,,,,,,,,1000.9121,1001.5456,z,1,0.6075,,1001.5458,1001.5464,,0,358,358,245,1,246,bıyan,,,,,5,harmonic,1.7,nw,z,,,,,,,
,,,,,,,,,,,aksa,001,2023-11-08_11h25.55.393,vowel_harmony,2023.2.3,Win32,60.07088364,1001.5484,1002.5448,,,,,,,,,,,,,,,,,,,,,,,,,,1002.5449,1003.1769,m,1,0.5943,,1003.177,1003.177,,0,359,359,46,1,47,takım,4370,198.5555,3726,0.4073,5,harmonic,1.7,word,m,,,,,,,
,,,,,,,,,,,aksa,001,2023-11-08_11h25.55.393,vowel_harmony,2023.2.3,Win32,60.07088364,,,,,,,,,,,,,,,,,,,,,,,,,,,,,,,,,,,,,,,,,,,,,,,,,,,,,,,1003.1778,1005.2564,space,2.0549,