Welcome_screen.started,Welcome_screen.stopped,key_respwelcome.keys,key_respwelcome.rt,key_respwelcome.duration,intro_x.thisRepN,intro_x.thisTrialN,intro_x.thisN,intro_x.thisIndex,intro_x.ran,Introduction,participant,session,date,expName,psychopyVersion,OS,frameRate,Fixation.started,Fixation.stopped,Studypractice.started,Studypractice.stopped,key_respstudy.keys,key_respstudy.corr,key_respstudy.rt,key_respstudy.duration,rt,corr,Feedback.started,Feedback.stopped,practice_loop.thisRepN,practice_loop.thisTrialN,practice_loop.thisN,practice_loop.thisIndex,practice_loop.ran,item_nr_p,target_p,isHarmonic_p,target_cond_p,CorrAns_p,Instraction.started,Instraction.stopped,key_respınstraction.keys,key_respınstraction.rt,key_respınstraction.duration,TestTrial.started,TestTrial.stopped,key_respTest.keys,key_respTest.corr,key_respTest.rt,key_respTest.duration,Pause.started,Pause.stopped,key_resp_xx.keys,test_loop.thisRepN,test_loop.thisTrialN,test_loop.thisN,test_loop.thisIndex,test_loop.ran,item_nr,target,BlogFreq_A1,BlogFreqpm_A1,BlogCD_A1,BlogCDPc_A1,WordLength_A1,isHarmonic_A1,old20,target_cond,CorrAns,key_resp_xx.rt,key_resp_xx.duration,Goodbye_screen.started,Goodbye_screen.stopped,key_respgoodbye.keys,key_respgoodbye.rt,key_respgoodbye.duration
0.0161,3.1471,space,3.1192,,0,0,0,0,1,"Deneye hoş geldiniz,

Devam etmek için BOŞLUK tuşuna basınız.",Arda,001,2023-11-08_13h09.58.364,vowel_harmony,2023.2.3,Win32,59.98440405,,,,,,,,,,,,,,,,,,,,,,,,,,,,,,,,,,,,,,,,,,,,,,,,,,,,,,,,,,,
3.1488,10.8207,space,7.6417,,0,1,1,1,1,"Bu çalışma Valencia Üniversitesi kapsamında yürütülmektedir. Deneydeki göreviniz, ekrana çıkacak Türkçe sözcüklerin kelime olup olmadığını belirlemenizdir. Eğer sözcük gerçek bir kelime ise ""m"" tuşuna, değil ise ""z"" tuşuna basınız.   

Devam etmek için BOŞLUK tuşuna basınız.",Arda,001,2023-11-08_13h09.58.364,vowel_harmony,2023.2.3,Win32,59.98440405,,,,,,,,,,,,,,,,,,,,,,,,,,,,,,,,,,,,,,,,,,,,,,,,,,,,,,,,,,,
10.8226,17.5779,space,6.7315,,0,2,2,2,1,"Her sözcük için en fazla iki saniyede cevap vermeniz beklenmektedir. Aksi takdirde deney bir sonraki sözcük ile devam eder. 
Bu çalışmada oldukça hızlı ve doğru cevaplama yapmanız beklenmektedir.

Devam etmek için BOŞLUK tuşuna basınız.",Arda,001,2023-11-08_13h09.58.364,vowel_harmony,2023.2.3,Win32,59.98440405,,,,,,,,,,,,,,,,,,,,,,,,,,,,,,,,,,,,,,,,,,,,,,,,,,,,,,,,,,,
17.5793,22.2157,space,4.6047,,0,3,3,3,1,"Çalışmaya başlamadan önce ufak bir pratik yer almaktadır.
Kelimedir: ""m""
Kelime değildir: ""z""

Pratik teste başlamak için BOŞLUK tuşuna basınız. ",Arda,001,2023-11-08_13h09.58.364,vowel_harmony,2023.2.3,Win32,59.98440405,,,,,,,,,,,,,,,,,,,,,,,,,,,,,,,,,,,,,,,,,,,,,,,,,,,,,,,,,,,
,,,,,,,,,,,Arda,001,2023-11-08_13h09.58.364,vowel_harmony,2023.2.3,Win32,59.98440405,22.2381,23.2167,23.217,24.5023,z,1,1.2452,,1.2452,1,24.503,26.0028,0,0,0,11,1,12,geki,harmonic,nw,z,,,,,,,,,,,,,,,,,,,,,,,,,,,,,,,,,,,,,
,,,,,,,,,,,Arda,001,2023-11-08_13h09.58.364,vowel_harmony,2023.2.3,Win32,59.98440405,26.0043,27.0032,27.0034,27.1788,z,1,0.1525,,0.1525,1,27.179,28.6718,0,1,1,12,1,13,ihlot,notharmonic,nw,z,,,,,,,,,,,,,,,,,,,,,,,,,,,,,,,,,,,,,
,,,,,,,,,,,Arda,001,2023-11-08_13h09.58.364,vowel_harmony,2023.2.3,Win32,59.98440405,28.6733,29.6728,29.6729,30.4559,m,1,0.7507,,0.7507,1,30.4559,31.9584,0,2,2,1,1,2,veri,harmonic,word,m,,,,,,,,,,,,,,,,,,,,,,,,,,,,,,,,,,,,,
,,,,,,,,,,,Arda,001,2023-11-08_13h09.58.364,vowel_harmony,2023.2.3,Win32,59.98440405,31.9593,32.9594,32.9595,33.8938,m,1,0.9017,,0.9017,1,33.894,35.395,0,3,3,6,1,7,pilot,notharmonic,word,m,,,,,,,,,,,,,,,,,,,,,,,,,,,,,,,,,,,,,
,,,,,,,,,,,Arda,001,2023-11-08_13h09.58.364,vowel_harmony,2023.2.3,Win32,59.98440405,35.396,36.3959,36.396,37.588,z,1,1.169,,1.169,1,37.5881,39.0819,0,4,4,9,1,10,orat,harmonic,nw,z,,,,,,,,,,,,,,,,,,,,,,,,,,,,,,,,,,,,,
,,,,,,,,,,,Arda,001,2023-11-08_13h09.58.364,vowel_harmony,2023.2.3,Win32,59.98440405,39.0834,40.0832,40.0833,41.2678,z,1,1.1574,,1.1574,1,41.2679,42.7692,0,5,5,10,1,11,mahne,notharmonic,nw,z,,,,,,,,,,,,,,,,,,,,,,,,,,,,,,,,,,,,,
,,,,,,,,,,,Arda,001,2023-11-08_13h09.58.364,vowel_harmony,2023.2.3,Win32,59.98440405,42.7702,43.7702,43.7704,45.0547,m,1,1.2541,,1.2541,1,45.055,46.5559,0,6,6,0,1,1,ihale,notharmonic,word,m,,,,,,,,,,,,,,,,,,,,,,,,,,,,,,,,,,,,,
,,,,,,,,,,,Arda,001,2023-11-08_13h09.58.364,vowel_harmony,2023.2.3,Win32,59.98440405,46.5569,47.5573,47.5575,48.3745,m,1,0.7879,,0.7879,1,48.3747,49.876,0,7,7,4,1,5,mimar,notharmonic,word,m,,,,,,,,,,,,,,,,,,,,,,,,,,,,,,,,,,,,,
,,,,,,,,,,,Arda,001,2023-11-08_13h09.58.364,vowel_harmony,2023.2.3,Win32,59.98440405,49.877,50.877,50.8771,52.1115,z,1,1.2032,,1.2032,1,52.1117,53.6029,0,8,8,13,1,14,pilar,notharmonic,nw,z,,,,,,,,,,,,,,,,,,,,,,,,,,,,,,,,,,,,,
,,,,,,,,,,,Arda,001,2023-11-08_13h09.58.364,vowel_harmony,2023.2.3,Win32,59.98440405,53.6037,54.5976,54.5977,55.3985,m,1,0.7718,,0.7718,1,55.3986,56.8998,0,9,9,3,1,4,ihlal,notharmonic,word,m,,,,,,,,,,,,,,,,,,,,,,,,,,,,,,,,,,,,,
,,,,,,,,,,,Arda,001,2023-11-08_13h09.58.364,vowel_harmony,2023.2.3,Win32,59.98440405,56.9009,57.901,57.9012,58.5517,m,1,0.6192,,0.6192,1,58.5518,60.0532,0,10,10,5,1,6,bahçe,notharmonic,word,m,,,,,,,,,,,,,,,,,,,,,,,,,,,,,,,,,,,,,
,,,,,,,,,,,Arda,001,2023-11-08_13h09.58.364,vowel_harmony,2023.2.3,Win32,59.98440405,60.0541,61.0538,61.0539,61.855,z,1,0.769,,0.769,1,61.8551,63.356,0,11,11,14,1,15,pimer,harmonic,nw,z,,,,,,,,,,,,,,,,,,,,,,,,,,,,,,,,,,,,,
,,,,,,,,,,,Arda,001,2023-11-08_13h09.58.364,vowel_harmony,2023.2.3,Win32,59.98440405,63.357,64.3574,64.3575,65.4245,z,1,1.0446,,1.0446,1,65.4247,66.9263,0,12,12,8,1,9,tahip,notharmonic,nw,z,,,,,,,,,,,,,,,,,,,,,,,,,,,,,,,,,,,,,
,,,,,,,,,,,Arda,001,2023-11-08_13h09.58.364,vowel_harmony,2023.2.3,Win32,59.98440405,66.9273,67.9276,67.9277,68.6779,z,1,0.7212,,0.7212,1,68.678,70.17,0,13,13,15,1,16,mımal,harmonic,nw,z,,,,,,,,,,,,,,,,,,,,,,,,,,,,,,,,,,,,,
,,,,,,,,,,,Arda,001,2023-11-08_13h09.58.364,vowel_harmony,2023.2.3,Win32,59.98440405,70.1707,71.1642,71.1643,72.1318,m,1,0.9409,,0.9409,1,72.132,73.6334,0,14,14,7,1,8,oran,harmonic,word,m,,,,,,,,,,,,,,,,,,,,,,,,,,,,,,,,,,,,,
,,,,,,,,,,,Arda,001,2023-11-08_13h09.58.364,vowel_harmony,2023.2.3,Win32,59.98440405,73.6342,74.6343,74.6344,75.3516,m,1,0.6911,,0.6911,1,75.3517,76.8531,0,15,15,2,1,3,memur,notharmonic,word,m,,,,,,,,,,,,,,,,,,,,,,,,,,,,,,,,,,,,,
,,,,,,,,,,,Arda,001,2023-11-08_13h09.58.364,vowel_harmony,2023.2.3,Win32,59.98440405,,,,,,,,,,,,,,,,,,,,,,,76.8552,87.9664,space,11.0787,,,,,,,,,,,,,,,,,,,,,,,,,,,,,,,,,
,,,,,,,,,,,Arda,001,2023-11-08_13h09.58.364,vowel_harmony,2023.2.3,Win32,59.98440405,88.0215,88.982,,,,,,,,,,,,,,,,,,,,,,,,,,88.9829,89.6335,m,1,0.6196,,89.634,89.6376,,0,0,0,176,1,177,harika,4682,212.7315,4422,0.4834,6,notharmonic,1.9,word,m,,,,,,,
,,,,,,,,,,,Arda,001,2023-11-08_13h09.58.364,vowel_harmony,2023.2.3,Win32,59.98440405,89.6388,90.6338,,,,,,,,,,,,,,,,,,,,,,,,,,90.634,91.2677,m,1,0.6056,,91.2679,91.2681,,0,1,1,67,1,68,bayram,1948,88.5094,1648,0.1802,6,harmonic,1.85,word,m,,,,,,,
,,,,,,,,,,,Arda,001,2023-11-08_13h09.58.364,vowel_harmony,2023.2.3,Win32,59.98440405,91.2694,92.2678,,,,,,,,,,,,,,,,,,,,,,,,,,92.2678,93.0525,z,1,0.756,,93.0527,93.0529,,0,2,2,304,1,305,annö,,,,,4,notharmonic,1.95,nw,z,,,,,,,
,,,,,,,,,,,Arda,001,2023-11-08_13h09.58.364,vowel_harmony,2023.2.3,Win32,59.98440405,93.0538,94.0535,,,,,,,,,,,,,,,,,,,,,,,,,,94.0538,94.8378,z,1,0.7533,,94.8379,94.8382,,0,3,3,285,1,286,iklon,,,,,5,notharmonic,1.85,nw,z,,,,,,,
,,,,,,,,,,,Arda,001,2023-11-08_13h09.58.364,vowel_harmony,2023.2.3,Win32,59.98440405,94.8391,95.8389,,,,,,,,,,,,,,,,,,,,,,,,,,95.8391,96.7564,z,1,0.8868,,96.7565,96.7567,,0,4,4,197,1,198,ranar,,,,,5,harmonic,1.75,nw,z,,,,,,,
,,,,,,,,,,,Arda,001,2023-11-08_13h09.58.364,vowel_harmony,2023.2.3,Win32,59.98440405,96.7576,97.7571,,,,,,,,,,,,,,,,,,,,,,,,,,97.7573,98.5413,m,1,0.756,,98.5415,98.5419,,0,5,5,90,1,91,tarif,2834,128.7657,2611,0.2854,5,notharmonic,1.5,word,m,,,,,,,
,,,,,,,,,,,Arda,001,2023-11-08_13h09.58.364,vowel_harmony,2023.2.3,Win32,59.98440405,98.5428,99.5427,,,,,,,,,,,,,,,,,,,,,,,,,,99.5428,100.2434,z,1,0.6688,,100.2436,100.2438,,0,6,6,331,1,332,ehun,,,,,4,notharmonic,1.95,nw,z,,,,,,,
,,,,,,,,,,,Arda,001,2023-11-08_13h09.58.364,vowel_harmony,2023.2.3,Win32,59.98440405,100.2449,101.2439,,,,,,,,,,,,,,,,,,,,,,,,,,101.244,101.912,m,1,0.644,,101.9121,101.9127,,0,7,7,68,1,69,ücret,734,33.35,634,0.0693,5,harmonic,1.85,word,m,,,,,,,
,,,,,,,,,,,Arda,001,2023-11-08_13h09.58.364,vowel_harmony,2023.2.3,Win32,59.98440405,101.914,102.9121,,,,,,,,,,,,,,,,,,,,,,,,,,102.9121,103.5635,z,1,0.6202,,103.5637,103.5638,,0,8,8,196,1,197,bilön,,,,,5,harmonic,1.9,nw,z,,,,,,,
,,,,,,,,,,,Arda,001,2023-11-08_13h09.58.364,vowel_harmony,2023.2.3,Win32,59.98440405,103.5649,104.5641,,,,,,,,,,,,,,,,,,,,,,,,,,104.5643,105.1982,z,1,0.6047,,105.1984,105.1986,,0,9,9,328,1,329,kirul,,,,,5,notharmonic,1.95,nw,z,,,,,,,
,,,,,,,,,,,Arda,001,2023-11-08_13h09.58.364,vowel_harmony,2023.2.3,Win32,59.98440405,105.1999,106.1984,,,,,,,,,,,,,,,,,,,,,,,,,,106.1984,106.8498,z,1,0.6267,,106.8499,106.8502,,0,10,10,282,1,283,taöz,,,,,4,notharmonic,1.9,nw,z,,,,,,,
,,,,,,,,,,,Arda,001,2023-11-08_13h09.58.364,vowel_harmony,2023.2.3,Win32,59.98440405,106.8512,107.8509,,,,,,,,,,,,,,,,,,,,,,,,,,107.851,108.6849,z,1,0.8058,,108.6851,108.6854,,0,11,11,287,1,288,haköm,,,,,5,notharmonic,1.9,nw,z,,,,,,,
,,,,,,,,,,,Arda,001,2023-11-08_13h09.58.364,vowel_harmony,2023.2.3,Win32,59.98440405,108.6865,109.6855,,,,,,,,,,,,,,,,,,,,,,,,,,109.6856,110.5035,z,1,0.7869,,110.5035,110.5039,,0,12,12,182,1,183,orsın,,,,,5,harmonic,1.95,nw,z,,,,,,,
,,,,,,,,,,,Arda,001,2023-11-08_13h09.58.364,vowel_harmony,2023.2.3,Win32,59.98440405,110.5049,111.5043,,,,,,,,,,,,,,,,,,,,,,,,,,111.5044,112.088,z,1,0.5598,,112.0881,112.0883,,0,13,13,303,1,304,fisor,,,,,5,notharmonic,1.9,nw,z,,,,,,,
,,,,,,,,,,,Arda,001,2023-11-08_13h09.58.364,vowel_harmony,2023.2.3,Win32,59.98440405,112.0892,113.0894,,,,,,,,,,,,,,,,,,,,,,,,,,113.0895,113.7396,m,1,0.6232,,113.7397,113.7401,,0,14,14,121,1,122,mesaj,1604,72.8794,1386,0.1515,5,notharmonic,1.8,word,m,,,,,,,
,,,,,,,,,,,Arda,001,2023-11-08_13h09.58.364,vowel_harmony,2023.2.3,Win32,59.98440405,113.7411,114.741,,,,,,,,,,,,,,,,,,,,,,,,,,114.7411,115.7422,z,1,0.971,,115.7423,115.7424,,0,15,15,338,1,339,pardön,,,,,6,notharmonic,1.95,nw,z,,,,,,,
,,,,,,,,,,,Arda,001,2023-11-08_13h09.58.364,vowel_harmony,2023.2.3,Win32,59.98440405,115.7437,116.7424,,,,,,,,,,,,,,,,,,,,,,,,,,116.7425,117.6272,m,1,0.8586,,117.6273,117.6276,,0,16,16,0,1,1,sanat,3121,141.8059,2485,0.2717,5,harmonic,1.4,word,m,,,,,,,
,,,,,,,,,,,Arda,001,2023-11-08_13h09.58.364,vowel_harmony,2023.2.3,Win32,59.98440405,117.6285,118.6271,,,,,,,,,,,,,,,,,,,,,,,,,,118.6272,119.3122,m,1,0.6539,,119.3124,119.3126,,0,17,17,77,1,78,ufak,3252,147.758,2980,0.3258,4,harmonic,1.5,word,m,,,,,,,
,,,,,,,,,,,Arda,001,2023-11-08_13h09.58.364,vowel_harmony,2023.2.3,Win32,59.98440405,119.3135,120.3132,,,,,,,,,,,,,,,,,,,,,,,,,,120.3133,121.2803,m,1,0.944,,121.2804,121.2806,,0,18,18,39,1,40,yaygın,1061,48.2076,1019,0.1114,6,harmonic,1.35,word,m,,,,,,,
,,,,,,,,,,,Arda,001,2023-11-08_13h09.58.364,vowel_harmony,2023.2.3,Win32,59.98440405,121.2815,122.2818,,,,,,,,,,,,,,,,,,,,,,,,,,122.2819,122.8659,m,1,0.5583,,122.866,122.8662,,0,19,19,34,1,35,hoca,1893,86.0104,1526,0.1668,4,harmonic,1.45,word,m,,,,,,,
,,,,,,,,,,,Arda,001,2023-11-08_13h09.58.364,vowel_harmony,2023.2.3,Win32,59.98440405,122.8672,123.8668,,,,,,,,,,,,,,,,,,,,,,,,,,123.867,124.4506,m,1,0.5584,,124.4507,124.451,,0,20,20,133,1,134,taze,2268,103.0489,2062,0.2254,4,notharmonic,1.65,word,m,,,,,,,
,,,,,,,,,,,Arda,001,2023-11-08_13h09.58.364,vowel_harmony,2023.2.3,Win32,59.98440405,124.4519,125.4518,,,,,,,,,,,,,,,,,,,,,,,,,,125.4518,126.1197,m,1,0.6448,,126.1199,126.1201,,0,21,21,165,1,166,gazete,1402,63.7013,1270,0.1388,6,notharmonic,1.8,word,m,,,,,,,
,,,,,,,,,,,Arda,001,2023-11-08_13h09.58.364,vowel_harmony,2023.2.3,Win32,59.98440405,126.1209,127.12,,,,,,,,,,,,,,,,,,,,,,,,,,127.1201,127.67,m,1,0.5213,,127.6701,127.6703,,0,22,22,147,1,148,işaret,1888,85.7832,1787,0.1954,6,notharmonic,1,word,m,,,,,,,
,,,,,,,,,,,Arda,001,2023-11-08_13h09.58.364,vowel_harmony,2023.2.3,Win32,59.98440405,127.6714,128.6711,,,,,,,,,,,,,,,,,,,,,,,,,,128.6713,129.7391,z,1,1.042,,129.7392,129.7396,,0,23,23,255,1,256,yokın,,,,,5,harmonic,1.85,nw,z,,,,,,,
,,,,,,,,,,,Arda,001,2023-11-08_13h09.58.364,vowel_harmony,2023.2.3,Win32,59.98440405,129.7408,130.74,,,,,,,,,,,,,,,,,,,,,,,,,,130.7401,131.9414,m,1,1.1697,,131.9416,131.9418,,0,24,24,114,1,115,nisan,2321,105.457,2044,0.2235,5,notharmonic,1.6,word,m,,,,,,,
,,,,,,,,,,,Arda,001,2023-11-08_13h09.58.364,vowel_harmony,2023.2.3,Win32,59.98440405,131.9427,132.9423,,,,,,,,,,,,,,,,,,,,,,,,,,132.9424,133.5499,m,1,0.585,,133.55,133.5502,,0,25,25,17,1,18,yakın,7990,363.0339,7595,0.8303,5,harmonic,1.8,word,m,,,,,,,
,,,,,,,,,,,Arda,001,2023-11-08_13h09.58.364,vowel_harmony,2023.2.3,Win32,59.98440405,133.5509,134.5442,,,,,,,,,,,,,,,,,,,,,,,,,,134.5443,135.1441,m,1,0.5753,,135.1442,135.1445,,0,26,26,135,1,136,hafif,3355,152.4379,3101,0.339,5,notharmonic,1.75,word,m,,,,,,,
,,,,,,,,,,,Arda,001,2023-11-08_13h09.58.364,vowel_harmony,2023.2.3,Win32,59.98440405,135.1455,136.1458,,,,,,,,,,,,,,,,,,,,,,,,,,136.1459,137.1301,z,1,0.9532,,137.1305,137.1307,,0,27,27,315,1,316,takep,,,,,5,notharmonic,1.85,nw,z,,,,,,,
,,,,,,,,,,,Arda,001,2023-11-08_13h09.58.364,vowel_harmony,2023.2.3,Win32,59.98440405,137.1319,138.1309,,,,,,,,,,,,,,,,,,,,,,,,,,138.131,138.9151,m,1,0.7569,,138.9152,138.9155,,0,28,28,91,1,92,ifade,6177,280.6584,5726,0.626,5,notharmonic,1.7,word,m,,,,,,,
,,,,,,,,,,,Arda,001,2023-11-08_13h09.58.364,vowel_harmony,2023.2.3,Win32,59.98440405,138.9164,139.9158,,,,,,,,,,,,,,,,,,,,,,,,,,139.9159,140.4836,m,1,0.5366,,140.4837,140.4839,,0,29,29,57,1,58,bölüm,1910,86.7828,1605,0.1755,5,harmonic,1.45,word,m,,,,,,,
,,,,,,,,,,,Arda,001,2023-11-08_13h09.58.364,vowel_harmony,2023.2.3,Win32,59.98440405,140.4851,141.4842,,,,,,,,,,,,,,,,,,,,,,,,,,141.4844,142.1372,z,1,0.6203,,142.1374,142.1377,,0,30,30,192,1,193,vecö,,,,,4,harmonic,1.95,nw,z,,,,,,,
,,,,,,,,,,,Arda,001,2023-11-08_13h09.58.364,vowel_harmony,2023.2.3,Win32,59.98440405,142.1385,143.1357,,,,,,,,,,,,,,,,,,,,,,,,,,143.1358,143.6862,m,1,0.52,,143.6864,143.6866,,0,31,31,113,1,114,model,1200,54.5232,1082,0.1183,5,notharmonic,1.75,word,m,,,,,,,
,,,,,,,,,,,Arda,001,2023-11-08_13h09.58.364,vowel_harmony,2023.2.3,Win32,59.98440405,143.6875,144.6874,,,,,,,,,,,,,,,,,,,,,,,,,,144.6875,145.3217,m,1,0.608,,145.3218,145.322,,0,32,32,92,1,93,sahne,1380,62.7017,1238,0.1353,5,notharmonic,1.65,word,m,,,,,,,
,,,,,,,,,,,Arda,001,2023-11-08_13h09.58.364,vowel_harmony,2023.2.3,Win32,59.98440405,145.3229,146.3224,,,,,,,,,,,,,,,,,,,,,,,,,,146.3225,147.0229,z,1,0.6695,,147.023,147.0233,,0,33,33,205,1,206,kahay,,,,,5,harmonic,1.9,nw,z,,,,,,,
,,,,,,,,,,,Arda,001,2023-11-08_13h09.58.364,vowel_harmony,2023.2.3,Win32,59.98440405,147.0243,148.0242,,,,,,,,,,,,,,,,,,,,,,,,,,148.0243,148.7745,z,1,0.7202,,148.7746,148.7749,,0,34,34,290,1,291,aipa,,,,,4,notharmonic,1.95,nw,z,,,,,,,
,,,,,,,,,,,Arda,001,2023-11-08_13h09.58.364,vowel_harmony,2023.2.3,Win32,59.98440405,148.7762,149.7757,,,,,,,,,,,,,,,,,,,,,,,,,,149.7758,150.5602,z,1,0.7541,,150.5603,150.5607,,0,35,35,323,1,324,devak,,,,,5,notharmonic,1.75,nw,z,,,,,,,
,,,,,,,,,,,Arda,001,2023-11-08_13h09.58.364,vowel_harmony,2023.2.3,Win32,59.98440405,150.5622,151.5611,,,,,,,,,,,,,,,,,,,,,,,,,,151.5612,152.2279,z,1,0.6389,,152.2282,152.2286,,0,36,36,195,1,196,netüm,,,,,5,harmonic,1.95,nw,z,,,,,,,
,,,,,,,,,,,Arda,001,2023-11-08_13h09.58.364,vowel_harmony,2023.2.3,Win32,59.98440405,152.2297,153.2296,,,,,,,,,,,,,,,,,,,,,,,,,,153.2296,153.8131,m,1,0.5553,,153.8133,153.8135,,0,37,37,171,1,172,reklam,1565,71.1074,1244,0.136,6,notharmonic,1.9,word,m,,,,,,,
,,,,,,,,,,,Arda,001,2023-11-08_13h09.58.364,vowel_harmony,2023.2.3,Win32,59.98440405,153.8143,154.814,,,,,,,,,,,,,,,,,,,,,,,,,,154.8143,155.4318,z,1,0.5859,,155.4319,155.4321,,0,38,38,302,1,303,işgar,,,,,5,notharmonic,1.9,nw,z,,,,,,,
,,,,,,,,,,,Arda,001,2023-11-08_13h09.58.364,vowel_harmony,2023.2.3,Win32,59.98440405,155.4332,156.4324,,,,,,,,,,,,,,,,,,,,,,,,,,156.4325,157.058,m,1,0.6026,,157.058,157.0581,,0,39,39,109,1,110,milyon,3936,178.8362,2958,0.3234,6,notharmonic,1.75,word,m,,,,,,,
,,,,,,,,,,,Arda,001,2023-11-08_13h09.58.364,vowel_harmony,2023.2.3,Win32,59.98440405,157.0589,158.0509,,,,,,,,,,,,,,,,,,,,,,,,,,158.0509,158.6513,z,1,0.574,,158.6515,158.6517,,0,40,40,326,1,327,ailo,,,,,4,notharmonic,1.75,nw,z,,,,,,,
,,,,,,,,,,,Arda,001,2023-11-08_13h09.58.364,vowel_harmony,2023.2.3,Win32,59.98440405,158.6527,159.6524,,,,,,,,,,,,,,,,,,,,,,,,,,159.6525,160.1697,m,1,0.4926,,160.1699,160.1702,,0,41,41,41,1,42,zengin,2193,99.6412,2015,0.2203,6,harmonic,1.65,word,m,,,,,,,
,,,,,,,,,,,Arda,001,2023-11-08_13h09.58.364,vowel_harmony,2023.2.3,Win32,59.98440405,160.1714,161.1704,,,,,,,,,,,,,,,,,,,,,,,,,,161.1705,161.5877,m,1,0.3848,,161.5879,161.588,,0,42,42,170,1,171,basit,3385,153.801,3177,0.3473,5,notharmonic,1.65,word,m,,,,,,,
,,,,,,,,,,,Arda,001,2023-11-08_13h09.58.364,vowel_harmony,2023.2.3,Win32,59.98440405,161.589,162.5887,,,,,,,,,,,,,,,,,,,,,,,,,,162.5888,163.1559,m,1,0.5355,,163.1561,163.1563,,0,43,43,164,1,165,sinema,1575,71.5618,1304,0.1426,6,notharmonic,1.8,word,m,,,,,,,
,,,,,,,,,,,Arda,001,2023-11-08_13h09.58.364,vowel_harmony,2023.2.3,Win32,59.98440405,163.1573,164.1568,,,,,,,,,,,,,,,,,,,,,,,,,,164.1569,164.9075,z,1,0.7194,,164.9077,164.9079,,0,44,44,352,1,353,yılden,,,,,6,notharmonic,1.8,nw,z,,,,,,,
,,,,,,,,,,,Arda,001,2023-11-08_13h09.58.364,vowel_harmony,2023.2.3,Win32,59.98440405,164.9088,165.9082,,,,,,,,,,,,,,,,,,,,,,,,,,165.9083,166.5423,m,1,0.602,,166.5425,166.5426,,0,45,45,18,1,19,normal,4154,188.7413,3788,0.4141,6,harmonic,1.75,word,m,,,,,,,
,,,,,,,,,,,Arda,001,2023-11-08_13h09.58.364,vowel_harmony,2023.2.3,Win32,59.98440405,166.5437,167.5438,,,,,,,,,,,,,,,,,,,,,,,,,,167.5439,168.2779,z,1,0.7052,,168.278,168.2782,,0,46,46,225,1,226,düvem,,,,,5,harmonic,1.7,nw,z,,,,,,,
,,,,,,,,,,,Arda,001,2023-11-08_13h09.58.364,vowel_harmony,2023.2.3,Win32,59.98440405,168.2791,169.2787,,,,,,,,,,,,,,,,,,,,,,,,,,169.2788,169.8289,m,1,0.5219,,169.829,169.8292,,0,47,47,108,1,109,tarih,2806,127.4935,2483,0.2714,5,notharmonic,1.55,word,m,,,,,,,
,,,,,,,,,,,Arda,001,2023-11-08_13h09.58.364,vowel_harmony,2023.2.3,Win32,59.98440405,169.8299,170.8303,,,,,,,,,,,,,,,,,,,,,,,,,,170.8304,171.4804,z,1,0.6269,,171.4806,171.481,,0,48,48,334,1,335,işgan,,,,,5,notharmonic,1.95,nw,z,,,,,,,
,,,,,,,,,,,Arda,001,2023-11-08_13h09.58.364,vowel_harmony,2023.2.3,Win32,59.98440405,171.4822,172.4815,,,,,,,,,,,,,,,,,,,,,,,,,,172.4815,173.0319,m,1,0.5255,,173.032,173.0323,,0,49,49,31,1,32,fazla,18293,831.1614,16694,1.825,5,harmonic,1,word,m,,,,,,,
,,,,,,,,,,,Arda,001,2023-11-08_13h09.58.364,vowel_harmony,2023.2.3,Win32,59.98440405,173.0331,174.0335,,,,,,,,,,,,,,,,,,,,,,,,,,174.0337,174.7004,z,1,0.6387,,174.7006,174.7009,,0,50,50,223,1,224,kakon,,,,,5,harmonic,1.85,nw,z,,,,,,,
,,,,,,,,,,,Arda,001,2023-11-08_13h09.58.364,vowel_harmony,2023.2.3,Win32,59.98440405,174.702,175.7018,,,,,,,,,,,,,,,,,,,,,,,,,,175.702,176.5028,z,1,0.769,,176.503,176.5032,,0,51,51,216,1,217,çeyret,,,,,6,harmonic,1.9,nw,z,,,,,,,
,,,,,,,,,,,Arda,001,2023-11-08_13h09.58.364,vowel_harmony,2023.2.3,Win32,59.98440405,176.5045,177.5037,,,,,,,,,,,,,,,,,,,,,,,,,,177.5038,178.2043,m,1,0.672,,178.2044,178.2046,,0,52,52,83,1,84,küçük,14048,638.2854,12467,1.3629,5,harmonic,1.75,word,m,,,,,,,
,,,,,,,,,,,Arda,001,2023-11-08_13h09.58.364,vowel_harmony,2023.2.3,Win32,59.98440405,178.2057,179.2053,,,,,,,,,,,,,,,,,,,,,,,,,,179.2054,179.7725,m,1,0.5354,,179.7726,179.7728,,0,53,53,27,1,28,bölge,1283,58.2944,1123,0.1228,5,harmonic,1.65,word,m,,,,,,,
,,,,,,,,,,,Arda,001,2023-11-08_13h09.58.364,vowel_harmony,2023.2.3,Win32,59.98440405,179.7741,180.7801,,,,,,,,,,,,,,,,,,,,,,,,,,180.7802,181.3403,m,1,0.538,,181.3404,181.3407,,0,54,54,99,1,100,ilave,3173,144.1685,2619,0.2863,5,notharmonic,1.85,word,m,,,,,,,
,,,,,,,,,,,Arda,001,2023-11-08_13h09.58.364,vowel_harmony,2023.2.3,Win32,59.98440405,181.3418,182.3418,,,,,,,,,,,,,,,,,,,,,,,,,,182.342,182.9592,m,1,0.5857,,182.9592,182.9595,,0,55,55,42,1,43,ürün,2268,103.0489,1954,0.2136,4,harmonic,1.1,word,m,,,,,,,
,,,,,,,,,,,Arda,001,2023-11-08_13h09.58.364,vowel_harmony,2023.2.3,Win32,59.98440405,182.9604,183.9602,,,,,,,,,,,,,,,,,,,,,,,,,,183.9602,184.6939,z,1,0.7052,,184.6941,184.6944,,0,56,56,310,1,311,yandeş,,,,,6,notharmonic,1.95,nw,z,,,,,,,
,,,,,,,,,,,Arda,001,2023-11-08_13h09.58.364,vowel_harmony,2023.2.3,Win32,59.98440405,184.6952,185.6954,,,,,,,,,,,,,,,,,,,,,,,,,,185.6955,186.2955,m,1,0.568,,186.2958,186.2959,,0,57,57,128,1,129,tatil,2152,97.7783,1865,0.2039,5,notharmonic,1.7,word,m,,,,,,,
,,,,,,,,,,,Arda,001,2023-11-08_13h09.58.364,vowel_harmony,2023.2.3,Win32,59.98440405,186.2968,187.2963,,,,,,,,,,,,,,,,,,,,,,,,,,187.2965,187.9642,z,1,0.637,,187.9643,187.9645,,0,58,58,335,1,336,lilo,,,,,4,notharmonic,1.8,nw,z,,,,,,,
,,,,,,,,,,,Arda,001,2023-11-08_13h09.58.364,vowel_harmony,2023.2.3,Win32,59.98440405,187.9657,188.9647,,,,,,,,,,,,,,,,,,,,,,,,,,188.9648,189.6154,m,1,0.6197,,189.6156,189.6158,,0,59,59,14,1,15,yaşam,4348,197.5559,3918,0.4283,5,harmonic,1.4,word,m,,,,,,,
,,,,,,,,,,,Arda,001,2023-11-08_13h09.58.364,vowel_harmony,2023.2.3,Win32,59.98440405,189.6167,190.617,,,,,,,,,,,,,,,,,,,,,,,,,,190.617,191.3007,z,1,0.657,,191.3009,191.3011,,0,60,60,194,1,195,rayna,,,,,5,harmonic,1.7,nw,z,,,,,,,
,,,,,,,,,,,Arda,001,2023-11-08_13h09.58.364,vowel_harmony,2023.2.3,Win32,59.98440405,191.3022,192.3017,,,,,,,,,,,,,,,,,,,,,,,,,,192.3018,193.0356,m,1,0.7031,,193.0358,193.036,,0,61,61,52,1,53,resim,2506,113.8627,2188,0.2392,5,harmonic,1.4,word,m,,,,,,,
,,,,,,,,,,,Arda,001,2023-11-08_13h09.58.364,vowel_harmony,2023.2.3,Win32,59.98440405,193.0372,194.0365,,,,,,,,,,,,,,,,,,,,,,,,,,194.0367,194.6867,z,1,0.6275,,194.6867,194.6869,,0,62,62,349,1,350,harten,,,,,6,notharmonic,1.85,nw,z,,,,,,,
,,,,,,,,,,,Arda,001,2023-11-08_13h09.58.364,vowel_harmony,2023.2.3,Win32,59.98440405,194.6878,195.6874,,,,,,,,,,,,,,,,,,,,,,,,,,195.6876,196.4889,z,1,0.7704,,196.489,196.4893,,0,63,63,345,1,346,bardeş,,,,,6,notharmonic,1.95,nw,z,,,,,,,
,,,,,,,,,,,Arda,001,2023-11-08_13h09.58.364,vowel_harmony,2023.2.3,Win32,59.98440405,196.4904,197.4904,,,,,,,,,,,,,,,,,,,,,,,,,,197.4905,198.1915,m,1,0.6779,,198.1917,198.1919,,0,64,64,2,1,3,radyo,763,34.6677,636,0.0695,5,harmonic,1.85,word,m,,,,,,,
,,,,,,,,,,,Arda,001,2023-11-08_13h09.58.364,vowel_harmony,2023.2.3,Win32,59.98440405,198.1928,199.192,,,,,,,,,,,,,,,,,,,,,,,,,,199.1922,199.8424,m,1,0.6242,,199.8425,199.8427,,0,65,65,19,1,20,ödül,1063,48.2985,926,0.1012,4,harmonic,1.7,word,m,,,,,,,
,,,,,,,,,,,Arda,001,2023-11-08_13h09.58.364,vowel_harmony,2023.2.3,Win32,59.98440405,199.8438,200.8438,,,,,,,,,,,,,,,,,,,,,,,,,,200.8439,201.3435,m,1,0.4756,,201.3437,201.3439,,0,66,66,70,1,71,yarın,3440,156.3,3222,0.3522,5,harmonic,1.85,word,m,,,,,,,
,,,,,,,,,,,Arda,001,2023-11-08_13h09.58.364,vowel_harmony,2023.2.3,Win32,59.98440405,201.3448,202.3447,,,,,,,,,,,,,,,,,,,,,,,,,,202.3448,203.0288,z,1,0.6534,,203.0289,203.0292,,0,67,67,269,1,270,vekü,,,,,4,harmonic,2,nw,z,,,,,,,
,,,,,,,,,,,Arda,001,2023-11-08_13h09.58.364,vowel_harmony,2023.2.3,Win32,59.98440405,203.0301,204.0302,,,,,,,,,,,,,,,,,,,,,,,,,,204.0303,204.6472,z,1,0.5865,,204.6475,204.6477,,0,68,68,206,1,207,bevek,,,,,5,harmonic,1.75,nw,z,,,,,,,
,,,,,,,,,,,Arda,001,2023-11-08_13h09.58.364,vowel_harmony,2023.2.3,Win32,59.98440405,204.6487,205.6483,,,,,,,,,,,,,,,,,,,,,,,,,,205.6485,206.2151,z,1,0.5365,,206.2154,206.2158,,0,69,69,243,1,244,korguf,,,,,6,harmonic,2,nw,z,,,,,,,
,,,,,,,,,,,Arda,001,2023-11-08_13h09.58.364,vowel_harmony,2023.2.3,Win32,59.98440405,206.2168,207.2067,,,,,,,,,,,,,,,,,,,,,,,,,,207.2068,207.7841,m,1,0.5533,,207.7842,207.7846,,0,70,70,54,1,55,yedek,825,37.4847,732,0.08,5,harmonic,1.65,word,m,,,,,,,
,,,,,,,,,,,Arda,001,2023-11-08_13h09.58.364,vowel_harmony,2023.2.3,Win32,59.98440405,207.786,208.7847,,,,,,,,,,,,,,,,,,,,,,,,,,208.7848,209.4519,m,1,0.6392,,209.452,209.4523,,0,71,71,87,1,88,mümkün,6604,300.0596,6264,0.6848,6,harmonic,1.9,word,m,,,,,,,
,,,,,,,,,,,Arda,001,2023-11-08_13h09.58.364,vowel_harmony,2023.2.3,Win32,59.98440405,209.4532,210.4532,,,,,,,,,,,,,,,,,,,,,,,,,,210.4533,211.0538,m,1,0.5698,,211.0539,211.0542,,0,72,72,139,1,140,lira,1253,56.9314,947,0.1035,4,notharmonic,1.4,word,m,,,,,,,
,,,,,,,,,,,Arda,001,2023-11-08_13h09.58.364,vowel_harmony,2023.2.3,Win32,59.98440405,211.0551,212.0544,,,,,,,,,,,,,,,,,,,,,,,,,,212.0545,212.6616,z,1,0.5846,,212.6616,212.6616,,0,73,73,185,1,186,örtin,,,,,5,harmonic,1.9,nw,z,,,,,,,
,,,,,,,,,,,Arda,001,2023-11-08_13h09.58.364,vowel_harmony,2023.2.3,Win32,59.98440405,212.6619,213.6558,,,,,,,,,,,,,,,,,,,,,,,,,,213.6559,214.4567,z,1,0.7769,,214.4568,214.4573,,0,74,74,296,1,297,işban,,,,,5,notharmonic,1.95,nw,z,,,,,,,
,,,,,,,,,,,Arda,001,2023-11-08_13h09.58.364,vowel_harmony,2023.2.3,Win32,59.98440405,214.4585,215.458,,,,,,,,,,,,,,,,,,,,,,,,,,215.4581,216.1244,z,1,0.6339,,216.1244,216.1245,,0,75,75,356,1,357,mergun,,,,,6,notharmonic,1.95,nw,z,,,,,,,
,,,,,,,,,,,Arda,001,2023-11-08_13h09.58.364,vowel_harmony,2023.2.3,Win32,59.98440405,216.1255,217.1265,,,,,,,,,,,,,,,,,,,,,,,,,,217.1265,218.0108,m,1,0.8516,,218.011,218.0111,,0,76,76,36,1,37,meslek,1082,49.1618,976,0.1067,6,harmonic,1.9,word,m,,,,,,,
,,,,,,,,,,,Arda,001,2023-11-08_13h09.58.364,vowel_harmony,2023.2.3,Win32,59.98440405,218.0124,219.0117,,,,,,,,,,,,,,,,,,,,,,,,,,219.0118,219.6121,z,1,0.5721,,219.6122,219.6124,,0,77,77,252,1,253,anlgı,,,,,5,harmonic,1.9,nw,z,,,,,,,
,,,,,,,,,,,Arda,001,2023-11-08_13h09.58.364,vowel_harmony,2023.2.3,Win32,59.98440405,219.6136,220.613,,,,,,,,,,,,,,,,,,,,,,,,,,220.613,221.4974,z,1,0.8507,,221.4976,221.4978,,0,78,78,337,1,338,bakem,,,,,5,notharmonic,1.7,nw,z,,,,,,,
,,,,,,,,,,,Arda,001,2023-11-08_13h09.58.364,vowel_harmony,2023.2.3,Win32,59.98440405,221.4986,222.4987,,,,,,,,,,,,,,,,,,,,,,,,,,222.4987,223.0827,m,1,0.5524,,223.0828,223.083,,0,79,79,85,1,86,geçmiş,4195,190.6042,4039,0.4415,6,harmonic,1.55,word,m,,,,,,,
,,,,,,,,,,,Arda,001,2023-11-08_13h09.58.364,vowel_harmony,2023.2.3,Win32,59.98440405,223.0842,224.0835,,,,,,,,,,,,,,,,,,,,,,,,,,224.0836,224.6507,z,1,0.537,,224.6508,224.6509,,0,80,80,320,1,321,finak,,,,,5,notharmonic,1.85,nw,z,,,,,,,
,,,,,,,,,,,Arda,001,2023-11-08_13h09.58.364,vowel_harmony,2023.2.3,Win32,59.98440405,224.6519,225.6515,,,,,,,,,,,,,,,,,,,,,,,,,,225.6516,226.252,m,1,0.5717,,226.2521,226.2524,,0,81,81,124,1,125,ilan,1579,71.7435,1499,0.1639,4,notharmonic,1,word,m,,,,,,,
,,,,,,,,,,,Arda,001,2023-11-08_13h09.58.364,vowel_harmony,2023.2.3,Win32,59.98440405,226.2536,227.2524,,,,,,,,,,,,,,,,,,,,,,,,,,227.2524,227.9204,z,1,0.6359,,227.9205,227.9208,,0,82,82,235,1,236,oşup,,,,,4,harmonic,1.75,nw,z,,,,,,,
,,,,,,,,,,,Arda,001,2023-11-08_13h09.58.364,vowel_harmony,2023.2.3,Win32,59.98440405,227.9217,228.9216,,,,,,,,,,,,,,,,,,,,,,,,,,228.9217,229.4556,m,1,0.5035,,229.4556,229.4559,,0,83,83,61,1,62,yıldız,1775,80.649,1532,0.1675,6,harmonic,1.6,word,m,,,,,,,
,,,,,,,,,,,Arda,001,2023-11-08_13h09.58.364,vowel_harmony,2023.2.3,Win32,59.98440405,229.4576,230.4555,,,,,,,,,,,,,,,,,,,,,,,,,,230.4555,230.9395,m,1,0.455,,230.9395,230.9396,,0,84,84,141,1,142,madde,3793,172.3389,3389,0.3705,5,notharmonic,1.7,word,m,,,,,,,
,,,,,,,,,,,Arda,001,2023-11-08_13h09.58.364,vowel_harmony,2023.2.3,Win32,59.98440405,230.9402,231.9408,,,,,,,,,,,,,,,,,,,,,,,,,,231.9408,232.575,z,1,0.6026,,232.575,232.5752,,0,85,85,313,1,314,ikas,,,,,4,notharmonic,1.85,nw,z,,,,,,,
,,,,,,,,,,,Arda,001,2023-11-08_13h09.58.364,vowel_harmony,2023.2.3,Win32,59.98440405,232.5761,233.576,,,,,,,,,,,,,,,,,,,,,,,,,,233.5761,234.0765,m,1,0.4713,,234.0766,234.0768,,0,86,86,93,1,94,siyah,2944,133.7637,2527,0.2763,5,notharmonic,1.6,word,m,,,,,,,
,,,,,,,,,,,Arda,001,2023-11-08_13h09.58.364,vowel_harmony,2023.2.3,Win32,59.98440405,234.0777,235.0776,,,,,,,,,,,,,,,,,,,,,,,,,,235.0778,235.8781,m,1,0.7709,,235.8782,235.8785,,0,87,87,112,1,113,sezon,2315,105.1844,1917,0.2096,5,notharmonic,1.8,word,m,,,,,,,
,,,,,,,,,,,Arda,001,2023-11-08_13h09.58.364,vowel_harmony,2023.2.3,Win32,59.98440405,235.8794,236.8793,,,,,,,,,,,,,,,,,,,,,,,,,,236.8794,237.4968,z,1,0.5862,,237.4969,237.497,,0,88,88,309,1,310,yorgen,,,,,6,notharmonic,1.9,nw,z,,,,,,,
,,,,,,,,,,,Arda,001,2023-11-08_13h09.58.364,vowel_harmony,2023.2.3,Win32,59.98440405,237.4979,238.4978,,,,,,,,,,,,,,,,,,,,,,,,,,238.4978,239.1642,m,1,0.6376,,239.1643,239.1643,,0,89,89,75,1,76,roman,1499,68.1086,1281,0.14,5,harmonic,1.6,word,m,,,,,,,
,,,,,,,,,,,Arda,001,2023-11-08_13h09.58.364,vowel_harmony,2023.2.3,Win32,59.98440405,239.1649,240.166,,,,,,,,,,,,,,,,,,,,,,,,,,240.1661,240.7333,m,1,0.5366,,240.7334,240.7337,,0,90,90,158,1,159,klasik,1871,85.0108,1734,0.1896,6,notharmonic,2,word,m,,,,,,,
,,,,,,,,,,,Arda,001,2023-11-08_13h09.58.364,vowel_harmony,2023.2.3,Win32,59.98440405,240.7345,241.734,,,,,,,,,,,,,,,,,,,,,,,,,,241.7341,242.3016,m,1,0.5357,,242.3017,242.302,,0,91,91,153,1,154,inşaat,432,19.6284,376,0.0411,6,notharmonic,1.6,word,m,,,,,,,
,,,,,,,,,,,Arda,001,2023-11-08_13h09.58.364,vowel_harmony,2023.2.3,Win32,59.98440405,242.3032,243.3025,,,,,,,,,,,,,,,,,,,,,,,,,,243.3026,243.9032,z,1,0.5686,,243.9033,243.9036,,0,92,92,263,1,264,duzur,,,,,5,harmonic,1.8,nw,z,,,,,,,
,,,,,,,,,,,Arda,001,2023-11-08_13h09.58.364,vowel_harmony,2023.2.3,Win32,59.98440405,243.9046,244.9039,,,,,,,,,,,,,,,,,,,,,,,,,,244.904,245.5381,z,1,0.6081,,245.5381,245.5384,,0,93,93,257,1,258,zerü,,,,,4,harmonic,1.8,nw,z,,,,,,,
,,,,,,,,,,,Arda,001,2023-11-08_13h09.58.364,vowel_harmony,2023.2.3,Win32,59.98440405,245.5395,246.5392,,,,,,,,,,,,,,,,,,,,,,,,,,246.5394,247.1897,z,1,0.6189,,247.1899,247.1901,,0,94,94,314,1,315,seral,,,,,5,notharmonic,1.7,nw,z,,,,,,,
,,,,,,,,,,,Arda,001,2023-11-08_13h09.58.364,vowel_harmony,2023.2.3,Win32,59.98440405,247.1913,248.1907,,,,,,,,,,,,,,,,,,,,,,,,,,248.1909,248.7746,m,1,0.5527,,248.7746,248.7749,,0,95,95,178,1,179,dikkat,6230,283.0665,5888,0.6437,6,notharmonic,2.05,word,m,,,,,,,
,,,,,,,,,,,Arda,001,2023-11-08_13h09.58.364,vowel_harmony,2023.2.3,Win32,59.98440405,248.7758,249.7756,,,,,,,,,,,,,,,,,,,,,,,,,,249.7757,250.3596,m,1,0.5526,,250.3597,250.3599,,0,96,96,120,1,121,ihmal,1002,45.5269,977,0.1068,5,notharmonic,1.65,word,m,,,,,,,
,,,,,,,,,,,Arda,001,2023-11-08_13h09.58.364,vowel_harmony,2023.2.3,Win32,59.98440405,250.3611,251.3606,,,,,,,,,,,,,,,,,,,,,,,,,,251.3607,252.0615,m,1,0.6691,,252.0616,252.0617,,0,97,97,10,1,11,bardak,1728,78.5135,1569,0.1715,6,harmonic,1.6,word,m,,,,,,,
,,,,,,,,,,,Arda,001,2023-11-08_13h09.58.364,vowel_harmony,2023.2.3,Win32,59.98440405,252.063,253.0624,,,,,,,,,,,,,,,,,,,,,,,,,,253.0626,253.6801,z,1,0.5946,,253.6802,253.6805,,0,98,98,218,1,219,tezöl,,,,,5,harmonic,2,nw,z,,,,,,,
,,,,,,,,,,,Arda,001,2023-11-08_13h09.58.364,vowel_harmony,2023.2.3,Win32,59.98440405,253.6817,254.6804,,,,,,,,,,,,,,,,,,,,,,,,,,254.6805,255.4479,z,1,0.7352,,255.448,255.4482,,0,99,99,322,1,323,normin,,,,,6,notharmonic,1.95,nw,z,,,,,,,
,,,,,,,,,,,Arda,001,2023-11-08_13h09.58.364,vowel_harmony,2023.2.3,Win32,59.98440405,255.4493,256.449,,,,,,,,,,,,,,,,,,,,,,,,,,256.4491,257.4833,z,1,1.0077,,257.4834,257.4836,,0,100,100,217,1,218,sanfız,,,,,6,harmonic,1.85,nw,z,,,,,,,
,,,,,,,,,,,Arda,001,2023-11-08_13h09.58.364,vowel_harmony,2023.2.3,Win32,59.98440405,257.4845,258.4841,,,,,,,,,,,,,,,,,,,,,,,,,,258.4842,259.1523,z,1,0.645,,259.1525,259.1528,,0,101,101,261,1,262,kardok,,,,,6,harmonic,1.95,nw,z,,,,,,,
,,,,,,,,,,,Arda,001,2023-11-08_13h09.58.364,vowel_harmony,2023.2.3,Win32,59.98440405,259.1537,260.1527,,,,,,,,,,,,,,,,,,,,,,,,,,260.1528,260.7865,z,1,0.608,,260.7866,260.7868,,0,102,102,258,1,259,karıha,,,,,6,harmonic,1.75,nw,z,,,,,,,
,,,,,,,,,,,Arda,001,2023-11-08_13h09.58.364,vowel_harmony,2023.2.3,Win32,59.98440405,260.7878,261.7876,,,,,,,,,,,,,,,,,,,,,,,,,,261.7878,262.3883,z,1,0.5698,,262.3884,262.3886,,0,103,103,268,1,269,haldum,,,,,6,harmonic,2,nw,z,,,,,,,
,,,,,,,,,,,Arda,001,2023-11-08_13h09.58.364,vowel_harmony,2023.2.3,Win32,59.98440405,262.3895,263.3892,,,,,,,,,,,,,,,,,,,,,,,,,,263.3893,264.0564,z,1,0.6361,,264.0564,264.0566,,0,104,104,190,1,191,reklen,,,,,6,harmonic,1.8,nw,z,,,,,,,
,,,,,,,,,,,Arda,001,2023-11-08_13h09.58.364,vowel_harmony,2023.2.3,Win32,59.98440405,264.0576,265.0575,,,,,,,,,,,,,,,,,,,,,,,,,,265.0577,265.9756,z,1,0.8952,,265.9758,265.976,,0,105,105,348,1,349,aife,,,,,4,notharmonic,1.75,nw,z,,,,,,,
,,,,,,,,,,,Arda,001,2023-11-08_13h09.58.364,vowel_harmony,2023.2.3,Win32,59.98440405,265.977,266.976,,,,,,,,,,,,,,,,,,,,,,,,,,266.9761,267.6769,z,1,0.6708,,267.677,267.6772,,0,106,106,236,1,237,toklam,,,,,6,harmonic,1.85,nw,z,,,,,,,
,,,,,,,,,,,Arda,001,2023-11-08_13h09.58.364,vowel_harmony,2023.2.3,Win32,59.98440405,267.6781,268.6778,,,,,,,,,,,,,,,,,,,,,,,,,,268.6779,269.2619,z,0,0.5525,,269.262,269.2621,,0,107,107,117,1,118,nasip,1069,48.5711,1042,0.1139,5,notharmonic,1.8,word,m,,,,,,,
,,,,,,,,,,,Arda,001,2023-11-08_13h09.58.364,vowel_harmony,2023.2.3,Win32,59.98440405,269.2631,270.2629,,,,,,,,,,,,,,,,,,,,,,,,,,270.263,271.1135,m,1,0.8256,,271.1135,271.1138,,0,108,108,60,1,61,doğu,2105,95.6429,1823,0.1993,4,harmonic,1.05,word,m,,,,,,,
,,,,,,,,,,,Arda,001,2023-11-08_13h09.58.364,vowel_harmony,2023.2.3,Win32,59.98440405,271.1147,272.1145,,,,,,,,,,,,,,,,,,,,,,,,,,272.1147,272.7486,m,1,0.6037,,272.7487,272.7489,,0,109,109,127,1,128,şahane,1153,52.3877,1108,0.1211,6,notharmonic,1.8,word,m,,,,,,,
,,,,,,,,,,,Arda,001,2023-11-08_13h09.58.364,vowel_harmony,2023.2.3,Win32,59.98440405,272.7498,273.7493,,,,,,,,,,,,,,,,,,,,,,,,,,273.7494,274.567,z,1,0.7854,,274.5671,274.5673,,0,110,110,280,1,281,adalek,,,,,6,notharmonic,1.85,nw,z,,,,,,,
,,,,,,,,,,,Arda,001,2023-11-08_13h09.58.364,vowel_harmony,2023.2.3,Win32,59.98440405,274.5682,275.5681,,,,,,,,,,,,,,,,,,,,,,,,,,275.5682,276.5691,z,1,0.9701,,276.5692,276.5694,,0,111,111,180,1,181,ayaro,,,,,5,harmonic,1.8,nw,z,,,,,,,
,,,,,,,,,,,Arda,001,2023-11-08_13h09.58.364,vowel_harmony,2023.2.3,Win32,59.98440405,276.5703,277.5701,,,,,,,,,,,,,,,,,,,,,,,,,,277.5702,278.5376,m,1,0.9427,,278.5377,278.5379,,0,112,112,94,1,95,final,876,39.802,778,0.0851,5,notharmonic,1,word,m,,,,,,,
,,,,,,,,,,,Arda,001,2023-11-08_13h09.58.364,vowel_harmony,2023.2.3,Win32,59.98440405,278.539,279.5388,,,,,,,,,,,,,,,,,,,,,,,,,,279.539,280.3059,m,1,0.7366,,280.3062,280.3066,,0,113,113,63,1,64,sultan,1756,79.7857,1368,0.1496,6,harmonic,1.55,word,m,,,,,,,
,,,,,,,,,,,Arda,001,2023-11-08_13h09.58.364,vowel_harmony,2023.2.3,Win32,59.98440405,280.3077,281.307,,,,,,,,,,,,,,,,,,,,,,,,,,281.3072,281.9413,z,1,0.6051,,281.9414,281.9416,,0,114,114,250,1,251,kakuk,,,,,5,harmonic,1.9,nw,z,,,,,,,
,,,,,,,,,,,Arda,001,2023-11-08_13h09.58.364,vowel_harmony,2023.2.3,Win32,59.98440405,281.9426,282.942,,,,,,,,,,,,,,,,,,,,,,,,,,282.9421,283.577,m,1,0.6117,,283.5772,283.5774,,0,115,115,175,1,176,aile,3655,166.0687,3126,0.3417,4,notharmonic,1,word,m,,,,,,,
,,,,,,,,,,,Arda,001,2023-11-08_13h09.58.364,vowel_harmony,2023.2.3,Win32,59.98440405,283.5783,284.577,,,,,,,,,,,,,,,,,,,,,,,,,,284.5771,285.378,z,1,0.7693,,285.3781,285.3783,,0,116,116,297,1,298,sapet,,,,,5,notharmonic,1.85,nw,z,,,,,,,
,,,,,,,,,,,Arda,001,2023-11-08_13h09.58.364,vowel_harmony,2023.2.3,Win32,59.98440405,285.3792,286.3789,,,,,,,,,,,,,,,,,,,,,,,,,,286.379,287.196,m,1,0.7897,,287.1961,287.1963,,0,117,117,166,1,167,maden,402,18.2653,339,0.0371,5,notharmonic,1.45,word,m,,,,,,,
,,,,,,,,,,,Arda,001,2023-11-08_13h09.58.364,vowel_harmony,2023.2.3,Win32,59.98440405,287.1972,288.1972,,,,,,,,,,,,,,,,,,,,,,,,,,288.1973,288.8143,m,1,0.5862,,288.8144,288.8147,,0,118,118,38,1,39,dönem,2820,128.1296,2437,0.2664,5,harmonic,1.4,word,m,,,,,,,
,,,,,,,,,,,Arda,001,2023-11-08_13h09.58.364,vowel_harmony,2023.2.3,Win32,59.98440405,288.8157,289.8157,,,,,,,,,,,,,,,,,,,,,,,,,,289.8157,290.4994,m,1,0.6527,,290.4995,290.4998,,0,119,119,122,1,123,devam,17666,802.673,16284,1.7802,5,notharmonic,1.55,word,m,,,,,,,
,,,,,,,,,,,Arda,001,2023-11-08_13h09.58.364,vowel_harmony,2023.2.3,Win32,59.98440405,290.5008,291.5008,,,,,,,,,,,,,,,,,,,,,,,,,,291.5009,292.352,z,1,0.8274,,292.3521,298.0074,space,0,120,120,242,1,243,kahon,,,,,5,harmonic,1.85,nw,z,5.6242,,,,,,
,,,,,,,,,,,Arda,001,2023-11-08_13h09.58.364,vowel_harmony,2023.2.3,Win32,59.98440405,298.0308,299.008,,,,,,,,,,,,,,,,,,,,,,,,,,299.008,299.7924,m,1,0.7535,,299.7925,299.7928,,0,121,121,150,1,151,sabit,1046,47.5261,915,0.1,5,notharmonic,1.75,word,m,,,,,,,
,,,,,,,,,,,Arda,001,2023-11-08_13h09.58.364,vowel_harmony,2023.2.3,Win32,59.98440405,299.794,300.7933,,,,,,,,,,,,,,,,,,,,,,,,,,300.7934,301.6431,m,1,0.821,,301.6431,301.6432,,0,122,122,20,1,21,nefes,2871,130.4469,2553,0.2791,5,harmonic,1.8,word,m,,,,,,,
,,,,,,,,,,,Arda,001,2023-11-08_13h09.58.364,vowel_harmony,2023.2.3,Win32,59.98440405,301.6439,302.6449,,,,,,,,,,,,,,,,,,,,,,,,,,302.6451,303.6796,z,1,1.0037,,303.6796,303.6798,,0,123,123,333,1,334,heyran,,,,,6,notharmonic,1.85,nw,z,,,,,,,
,,,,,,,,,,,Arda,001,2023-11-08_13h09.58.364,vowel_harmony,2023.2.3,Win32,59.98440405,303.6808,304.6802,,,,,,,,,,,,,,,,,,,,,,,,,,304.6802,305.6315,m,1,0.9201,,305.6316,305.6317,,0,124,124,145,1,146,iddia,2430,110.4096,2295,0.2509,5,notharmonic,1.85,word,m,,,,,,,
,,,,,,,,,,,Arda,001,2023-11-08_13h09.58.364,vowel_harmony,2023.2.3,Win32,59.98440405,305.6329,306.6327,,,,,,,,,,,,,,,,,,,,,,,,,,306.6327,307.266,z,1,0.6076,,307.2662,307.2664,,0,125,125,224,1,225,ertre,,,,,5,harmonic,1.95,nw,z,,,,,,,
,,,,,,,,,,,Arda,001,2023-11-08_13h09.58.364,vowel_harmony,2023.2.3,Win32,59.98440405,307.2672,308.2673,,,,,,,,,,,,,,,,,,,,,,,,,,308.2675,309.0514,z,1,0.758,,309.0516,309.0517,,0,126,126,286,1,287,cedan,,,,,5,notharmonic,1.8,nw,z,,,,,,,
,,,,,,,,,,,Arda,001,2023-11-08_13h09.58.364,vowel_harmony,2023.2.3,Win32,59.98440405,309.0526,310.0528,,,,,,,,,,,,,,,,,,,,,,,,,,310.0528,310.6534,z,1,0.5708,,310.6535,310.6537,,0,127,127,234,1,235,düzöt,,,,,5,harmonic,2.05,nw,z,,,,,,,
,,,,,,,,,,,Arda,001,2023-11-08_13h09.58.364,vowel_harmony,2023.2.3,Win32,59.98440405,310.6546,311.6537,,,,,,,,,,,,,,,,,,,,,,,,,,311.6538,312.2381,z,1,0.5544,,312.2382,312.2384,,0,128,128,251,1,252,oştay,,,,,5,harmonic,1.95,nw,z,,,,,,,
,,,,,,,,,,,Arda,001,2023-11-08_13h09.58.364,vowel_harmony,2023.2.3,Win32,59.98440405,312.2396,313.2387,,,,,,,,,,,,,,,,,,,,,,,,,,313.2387,313.823,z,1,0.5519,,313.8231,313.8233,,0,129,129,308,1,309,hafer,,,,,5,notharmonic,1.85,nw,z,,,,,,,
,,,,,,,,,,,Arda,001,2023-11-08_13h09.58.364,vowel_harmony,2023.2.3,Win32,59.98440405,313.8243,314.8241,,,,,,,,,,,,,,,,,,,,,,,,,,314.8242,315.5747,z,1,0.7202,,315.5747,315.575,,0,130,130,330,1,331,vahçe,,,,,5,notharmonic,1.9,nw,z,,,,,,,
,,,,,,,,,,,Arda,001,2023-11-08_13h09.58.364,vowel_harmony,2023.2.3,Win32,59.98440405,315.5758,316.5754,,,,,,,,,,,,,,,,,,,,,,,,,,316.5754,317.2762,m,1,0.6702,,317.2764,317.2765,,0,131,131,106,1,107,esnaf,315,14.3124,284,0.031,5,notharmonic,1.55,word,m,,,,,,,
,,,,,,,,,,,Arda,001,2023-11-08_13h09.58.364,vowel_harmony,2023.2.3,Win32,59.98440405,317.2775,318.2771,,,,,,,,,,,,,,,,,,,,,,,,,,318.2772,319.1945,m,1,0.8915,,319.1947,319.1948,,0,132,132,177,1,178,tekrar,10788,490.1639,9352,1.0224,6,notharmonic,1.85,word,m,,,,,,,
,,,,,,,,,,,Arda,001,2023-11-08_13h09.58.364,vowel_harmony,2023.2.3,Win32,59.98440405,319.1958,320.1956,,,,,,,,,,,,,,,,,,,,,,,,,,320.1957,320.7964,m,1,0.5713,,320.7966,320.7968,,0,133,133,123,1,124,haber,4559,207.1429,4151,0.4538,5,notharmonic,1.85,word,m,,,,,,,
,,,,,,,,,,,Arda,001,2023-11-08_13h09.58.364,vowel_harmony,2023.2.3,Win32,59.98440405,320.7977,321.7974,,,,,,,,,,,,,,,,,,,,,,,,,,321.7975,322.4985,m,1,0.6702,,322.4987,322.4988,,0,134,134,126,1,127,adet,4367,198.4192,3768,0.4119,4,notharmonic,1.4,word,m,,,,,,,
,,,,,,,,,,,Arda,001,2023-11-08_13h09.58.364,vowel_harmony,2023.2.3,Win32,59.98440405,322.5003,323.4992,,,,,,,,,,,,,,,,,,,,,,,,,,323.4993,324.1835,z,1,0.6525,,324.1837,324.184,,0,135,135,184,1,185,yapor,,,,,5,harmonic,1.9,nw,z,,,,,,,
,,,,,,,,,,,Arda,001,2023-11-08_13h09.58.364,vowel_harmony,2023.2.3,Win32,59.98440405,324.1852,325.1844,,,,,,,,,,,,,,,,,,,,,,,,,,325.1844,325.7843,z,1,0.577,,325.7844,325.7847,,0,136,136,193,1,194,yokın,,,,,5,harmonic,1.85,nw,z,,,,,,,
,,,,,,,,,,,Arda,001,2023-11-08_13h09.58.364,vowel_harmony,2023.2.3,Win32,59.98440405,325.7856,326.7857,,,,,,,,,,,,,,,,,,,,,,,,,,326.7857,327.653,z,1,0.8377,,327.6531,327.6534,,0,137,137,307,1,308,merbat,,,,,6,notharmonic,1.95,nw,z,,,,,,,
,,,,,,,,,,,Arda,001,2023-11-08_13h09.58.364,vowel_harmony,2023.2.3,Win32,59.98440405,327.6546,328.6542,,,,,,,,,,,,,,,,,,,,,,,,,,328.6542,329.3214,m,1,0.6421,,329.3214,329.3217,,0,138,138,46,1,47,takım,4370,198.5555,3726,0.4073,5,harmonic,1.7,word,m,,,,,,,
,,,,,,,,,,,Arda,001,2023-11-08_13h09.58.364,vowel_harmony,2023.2.3,Win32,59.98440405,329.3226,330.3228,,,,,,,,,,,,,,,,,,,,,,,,,,330.3229,330.8898,m,1,0.5409,,330.8899,330.8902,,0,139,139,12,1,13,konu,5400,245.3546,5110,0.5586,4,harmonic,1,word,m,,,,,,,
,,,,,,,,,,,Arda,001,2023-11-08_13h09.58.364,vowel_harmony,2023.2.3,Win32,59.98440405,330.8911,331.8911,,,,,,,,,,,,,,,,,,,,,,,,,,331.8911,332.3914,m,1,0.4772,,332.3915,332.3922,,0,140,140,29,1,30,huzur,1911,86.8283,1799,0.1967,5,harmonic,1.8,word,m,,,,,,,
,,,,,,,,,,,Arda,001,2023-11-08_13h09.58.364,vowel_harmony,2023.2.3,Win32,59.98440405,332.394,333.3913,,,,,,,,,,,,,,,,,,,,,,,,,,333.3913,333.8926,m,1,0.4718,,333.8927,333.893,,0,141,141,56,1,57,sağlam,1818,82.6027,1720,0.188,6,harmonic,1.6,word,m,,,,,,,
,,,,,,,,,,,Arda,001,2023-11-08_13h09.58.364,vowel_harmony,2023.2.3,Win32,59.98440405,333.8939,334.8937,,,,,,,,,,,,,,,,,,,,,,,,,,334.8939,335.4942,m,1,0.5678,,335.4943,335.4945,,0,142,142,136,1,137,beyaz,5517,250.6706,4788,0.5234,5,notharmonic,1.85,word,m,,,,,,,
,,,,,,,,,,,Arda,001,2023-11-08_13h09.58.364,vowel_harmony,2023.2.3,Win32,59.98440405,335.4954,336.4952,,,,,,,,,,,,,,,,,,,,,,,,,,336.4953,337.4464,z,1,0.9201,,337.4466,337.4469,,0,143,143,358,1,359,yangin,,,,,6,notharmonic,1.9,nw,z,,,,,,,
,,,,,,,,,,,Arda,001,2023-11-08_13h09.58.364,vowel_harmony,2023.2.3,Win32,59.98440405,337.4482,338.4472,,,,,,,,,,,,,,,,,,,,,,,,,,338.4473,339.2477,z,1,0.7766,,339.2479,339.2481,,0,144,144,327,1,328,parkeş,,,,,6,notharmonic,1.9,nw,z,,,,,,,
,,,,,,,,,,,Arda,001,2023-11-08_13h09.58.364,vowel_harmony,2023.2.3,Win32,59.98440405,339.2492,340.2492,,,,,,,,,,,,,,,,,,,,,,,,,,340.2494,340.9165,z,1,0.6369,,340.9166,340.9168,,0,145,145,200,1,201,duşın,,,,,5,harmonic,1.9,nw,z,,,,,,,
,,,,,,,,,,,Arda,001,2023-11-08_13h09.58.364,vowel_harmony,2023.2.3,Win32,59.98440405,340.9177,341.9175,,,,,,,,,,,,,,,,,,,,,,,,,,341.9175,342.5678,z,1,0.6271,,342.5679,342.5681,,0,146,146,283,1,284,fahe,,,,,4,notharmonic,1.95,nw,z,,,,,,,
,,,,,,,,,,,Arda,001,2023-11-08_13h09.58.364,vowel_harmony,2023.2.3,Win32,59.98440405,342.5693,343.5693,,,,,,,,,,,,,,,,,,,,,,,,,,343.5695,344.1529,z,1,0.5581,,344.153,344.1533,,0,147,147,301,1,302,mezak,,,,,5,notharmonic,1.8,nw,z,,,,,,,
,,,,,,,,,,,Arda,001,2023-11-08_13h09.58.364,vowel_harmony,2023.2.3,Win32,59.98440405,344.1543,345.1538,,,,,,,,,,,,,,,,,,,,,,,,,,345.154,345.738,m,1,0.5575,,345.7381,345.7383,,0,148,148,86,1,87,gerçek,8983,408.1519,8058,0.8809,6,harmonic,1.7,word,m,,,,,,,
,,,,,,,,,,,Arda,001,2023-11-08_13h09.58.364,vowel_harmony,2023.2.3,Win32,59.98440405,345.7393,346.7393,,,,,,,,,,,,,,,,,,,,,,,,,,346.7394,347.406,m,1,0.6377,,347.4061,347.4065,,0,149,149,160,1,161,hakem,603,27.3979,473,0.0517,5,notharmonic,1.3,word,m,,,,,,,
,,,,,,,,,,,Arda,001,2023-11-08_13h09.58.364,vowel_harmony,2023.2.3,Win32,59.98440405,347.4074,348.4076,,,,,,,,,,,,,,,,,,,,,,,,,,348.4077,349.3584,m,1,0.9193,,349.3586,349.3587,,0,150,150,44,1,45,kayıt,1234,56.0681,1058,0.1157,5,harmonic,1.35,word,m,,,,,,,
,,,,,,,,,,,Arda,001,2023-11-08_13h09.58.364,vowel_harmony,2023.2.3,Win32,59.98440405,349.3599,350.3589,,,,,,,,,,,,,,,,,,,,,,,,,,350.359,351.177,z,1,0.7854,,351.177,351.1772,,0,151,151,294,1,295,mesap,,,,,5,notharmonic,1.8,nw,z,,,,,,,
,,,,,,,,,,,Arda,001,2023-11-08_13h09.58.364,vowel_harmony,2023.2.3,Win32,59.98440405,351.1782,352.1778,,,,,,,,,,,,,,,,,,,,,,,,,,352.178,352.7284,m,1,0.519,,352.7285,352.7287,,0,152,152,134,1,135,iptal,793,36.0308,725,0.0793,5,notharmonic,1.35,word,m,,,,,,,
,,,,,,,,,,,Arda,001,2023-11-08_13h09.58.364,vowel_harmony,2023.2.3,Win32,59.98440405,352.7298,353.7292,,,,,,,,,,,,,,,,,,,,,,,,,,353.7292,354.4969,m,1,0.7422,,354.497,354.4972,,0,153,153,174,1,175,bugün,13879,630.6067,12842,1.4039,5,notharmonic,1.85,word,m,,,,,,,
,,,,,,,,,,,Arda,001,2023-11-08_13h09.58.364,vowel_harmony,2023.2.3,Win32,59.98440405,354.4981,355.4977,,,,,,,,,,,,,,,,,,,,,,,,,,355.4978,356.2818,m,1,0.7595,,356.2819,356.2821,,0,154,154,7,1,8,hizmet,3023,137.3531,2689,0.294,6,harmonic,1.75,word,m,,,,,,,
,,,,,,,,,,,Arda,001,2023-11-08_13h09.58.364,vowel_harmony,2023.2.3,Win32,59.98440405,356.2831,357.2828,,,,,,,,,,,,,,,,,,,,,,,,,,357.2829,357.9336,m,1,0.6189,,357.9337,357.934,,0,155,155,138,1,139,kardeş,1270,57.7038,1174,0.1283,6,notharmonic,1.9,word,m,,,,,,,
,,,,,,,,,,,Arda,001,2023-11-08_13h09.58.364,vowel_harmony,2023.2.3,Win32,59.98440405,357.9348,358.9348,,,,,,,,,,,,,,,,,,,,,,,,,,358.9348,359.6853,m,1,0.7195,,359.6854,359.6856,,0,156,156,169,1,170,hikaye,1555,70.653,1405,0.1536,6,notharmonic,1.8,word,m,,,,,,,
,,,,,,,,,,,Arda,001,2023-11-08_13h09.58.364,vowel_harmony,2023.2.3,Win32,59.98440405,359.6866,360.6858,,,,,,,,,,,,,,,,,,,,,,,,,,360.6858,361.6035,z,1,0.8912,,361.6038,361.6041,,0,157,157,316,1,317,misaf,,,,,5,notharmonic,1.85,nw,z,,,,,,,
,,,,,,,,,,,Arda,001,2023-11-08_13h09.58.364,vowel_harmony,2023.2.3,Win32,59.98440405,361.6053,362.6047,,,,,,,,,,,,,,,,,,,,,,,,,,362.6048,363.856,m,1,1.2272,,363.8563,363.8567,,0,158,158,51,1,52,ilginç,2803,127.3572,2690,0.2941,6,harmonic,1.8,word,m,,,,,,,
,,,,,,,,,,,Arda,001,2023-11-08_13h09.58.364,vowel_harmony,2023.2.3,Win32,59.98440405,363.8579,364.857,,,,,,,,,,,,,,,,,,,,,,,,,,364.8572,365.5245,z,1,0.6348,,365.5247,365.5248,,0,159,159,229,1,230,tonam,,,,,5,harmonic,1.8,nw,z,,,,,,,
,,,,,,,,,,,Arda,001,2023-11-08_13h09.58.364,vowel_harmony,2023.2.3,Win32,59.98440405,365.5259,366.5253,,,,,,,,,,,,,,,,,,,,,,,,,,366.5255,367.4589,m,1,0.9048,,367.459,367.4591,,0,160,160,50,1,51,kanun,1198,54.4324,1010,0.1104,5,harmonic,1.6,word,m,,,,,,,
,,,,,,,,,,,Arda,001,2023-11-08_13h09.58.364,vowel_harmony,2023.2.3,Win32,59.98440405,367.4596,368.4606,,,,,,,,,,,,,,,,,,,,,,,,,,368.4608,369.311,z,1,0.8211,,369.3112,369.3115,,0,161,161,279,1,280,tadde,,,,,5,notharmonic,1.8,nw,z,,,,,,,
,,,,,,,,,,,Arda,001,2023-11-08_13h09.58.364,vowel_harmony,2023.2.3,Win32,59.98440405,369.3126,370.3124,,,,,,,,,,,,,,,,,,,,,,,,,,370.3125,371.1303,m,1,0.7862,,371.1304,371.1305,,0,162,162,97,1,98,mevcut,3007,136.6262,2842,0.3107,6,notharmonic,1.95,word,m,,,,,,,
,,,,,,,,,,,Arda,001,2023-11-08_13h09.58.364,vowel_harmony,2023.2.3,Win32,59.98440405,371.1318,372.1311,,,,,,,,,,,,,,,,,,,,,,,,,,372.1312,372.7649,z,1,0.6037,,372.7651,372.7653,,0,163,163,187,1,188,remrin,,,,,6,harmonic,1.9,nw,z,,,,,,,
,,,,,,,,,,,Arda,001,2023-11-08_13h09.58.364,vowel_harmony,2023.2.3,Win32,59.98440405,372.7664,373.7658,,,,,,,,,,,,,,,,,,,,,,,,,,373.7659,374.5837,m,1,0.7854,,374.5838,374.5842,,0,164,164,118,1,119,meşhur,1092,49.6161,1057,0.1156,6,notharmonic,1.9,word,m,,,,,,,
,,,,,,,,,,,Arda,001,2023-11-08_13h09.58.364,vowel_harmony,2023.2.3,Win32,59.98440405,374.5851,375.5841,,,,,,,,,,,,,,,,,,,,,,,,,,375.5841,376.2014,m,1,0.586,,376.2015,376.2016,,0,165,165,81,1,82,üretim,1593,72.3796,1283,0.1403,6,harmonic,1.6,word,m,,,,,,,
,,,,,,,,,,,Arda,001,2023-11-08_13h09.58.364,vowel_harmony,2023.2.3,Win32,59.98440405,376.2026,377.2029,,,,,,,,,,,,,,,,,,,,,,,,,,377.203,377.9197,z,1,0.6927,,377.9198,377.9199,,0,166,166,346,1,347,kidan,,,,,5,notharmonic,1.8,nw,z,,,,,,,
,,,,,,,,,,,Arda,001,2023-11-08_13h09.58.364,vowel_harmony,2023.2.3,Win32,59.98440405,377.9208,378.9201,,,,,,,,,,,,,,,,,,,,,,,,,,378.9202,379.6219,m,1,0.6682,,379.6219,379.6222,,0,167,167,1,1,2,erkek,6188,281.1582,5195,0.5679,5,harmonic,1.65,word,m,,,,,,,
,,,,,,,,,,,Arda,001,2023-11-08_13h09.58.364,vowel_harmony,2023.2.3,Win32,59.98440405,379.623,380.6228,,,,,,,,,,,,,,,,,,,,,,,,,,380.623,381.3232,z,1,0.6723,,381.3233,381.3235,,0,168,168,259,1,260,hayuk,,,,,5,harmonic,1.95,nw,z,,,,,,,
,,,,,,,,,,,Arda,001,2023-11-08_13h09.58.364,vowel_harmony,2023.2.3,Win32,59.98440405,381.3245,382.3235,,,,,,,,,,,,,,,,,,,,,,,,,,382.3235,383.3753,m,1,1.0187,,383.3754,383.3757,,0,169,169,8,1,9,güven,1433,65.1098,1300,0.1421,5,harmonic,1.35,word,m,,,,,,,
,,,,,,,,,,,Arda,001,2023-11-08_13h09.58.364,vowel_harmony,2023.2.3,Win32,59.98440405,383.3765,384.3763,,,,,,,,,,,,,,,,,,,,,,,,,,384.3765,385.0764,z,1,0.6684,,385.0765,385.0767,,0,170,170,189,1,190,düvre,,,,,5,harmonic,1.85,nw,z,,,,,,,
,,,,,,,,,,,Arda,001,2023-11-08_13h09.58.364,vowel_harmony,2023.2.3,Win32,59.98440405,385.0777,386.0781,,,,,,,,,,,,,,,,,,,,,,,,,,386.0783,386.7124,m,1,0.6016,,386.7125,386.7127,,0,171,171,152,1,153,tedavi,1865,84.7382,1597,0.1746,6,notharmonic,1.8,word,m,,,,,,,
,,,,,,,,,,,Arda,001,2023-11-08_13h09.58.364,vowel_harmony,2023.2.3,Win32,59.98440405,386.7136,387.7129,,,,,,,,,,,,,,,,,,,,,,,,,,387.713,388.4138,m,1,0.6712,,388.414,388.4143,,0,172,172,89,1,90,etki,1234,56.0681,1169,0.1278,4,harmonic,1.4,word,m,,,,,,,
,,,,,,,,,,,Arda,001,2023-11-08_13h09.58.364,vowel_harmony,2023.2.3,Win32,59.98440405,388.4152,389.4148,,,,,,,,,,,,,,,,,,,,,,,,,,389.4148,390.3658,m,1,0.9197,,390.3661,390.3662,,0,173,173,82,1,83,aday,1028,46.7082,873,0.0954,4,harmonic,1.45,word,m,,,,,,,
,,,,,,,,,,,Arda,001,2023-11-08_13h09.58.364,vowel_harmony,2023.2.3,Win32,59.98440405,390.3671,391.3666,,,,,,,,,,,,,,,,,,,,,,,,,,391.3668,392.084,z,1,0.686,,392.0841,392.0844,,0,174,174,281,1,282,afel,,,,,4,notharmonic,1.8,nw,z,,,,,,,
,,,,,,,,,,,Arda,001,2023-11-08_13h09.58.364,vowel_harmony,2023.2.3,Win32,59.98440405,392.0852,393.0842,,,,,,,,,,,,,,,,,,,,,,,,,,393.0843,394.0197,m,1,0.9034,,394.0198,394.02,,0,175,175,16,1,17,yavaş,5087,231.1331,2886,0.3155,5,harmonic,1.6,word,m,,,,,,,
,,,,,,,,,,,Arda,001,2023-11-08_13h09.58.364,vowel_harmony,2023.2.3,Win32,59.98440405,394.0209,395.0203,,,,,,,,,,,,,,,,,,,,,,,,,,395.0204,395.8215,z,1,0.772,,395.8215,395.8218,,0,176,176,332,1,333,tahane,,,,,6,notharmonic,1.85,nw,z,,,,,,,
,,,,,,,,,,,Arda,001,2023-11-08_13h09.58.364,vowel_harmony,2023.2.3,Win32,59.98440405,395.8227,396.8224,,,,,,,,,,,,,,,,,,,,,,,,,,396.8225,397.3718,m,1,0.5195,,397.3719,397.3719,,0,177,177,76,1,77,ilişki,1675,76.1054,1524,0.1666,6,harmonic,1.8,word,m,,,,,,,
,,,,,,,,,,,Arda,001,2023-11-08_13h09.58.364,vowel_harmony,2023.2.3,Win32,59.98440405,397.3724,398.3738,,,,,,,,,,,,,,,,,,,,,,,,,,398.374,398.9906,m,1,0.5854,,398.9908,398.9909,,0,178,178,105,1,106,sahip,10887,494.6621,9847,1.0765,5,notharmonic,1.25,word,m,,,,,,,
,,,,,,,,,,,Arda,001,2023-11-08_13h09.58.364,vowel_harmony,2023.2.3,Win32,59.98440405,398.9917,399.9923,,,,,,,,,,,,,,,,,,,,,,,,,,399.9924,400.4594,m,1,0.4358,,400.4595,400.4597,,0,179,179,84,1,85,ülke,3121,141.8059,2801,0.3062,4,harmonic,1.65,word,m,,,,,,,
,,,,,,,,,,,Arda,001,2023-11-08_13h09.58.364,vowel_harmony,2023.2.3,Win32,59.98440405,400.4606,401.4601,,,,,,,,,,,,,,,,,,,,,,,,,,401.4602,401.9609,m,1,0.4686,,401.961,401.9612,,0,180,180,5,1,6,bebek,3301,149.9843,2794,0.3054,5,harmonic,1.6,word,m,,,,,,,
,,,,,,,,,,,Arda,001,2023-11-08_13h09.58.364,vowel_harmony,2023.2.3,Win32,59.98440405,401.9624,402.961,,,,,,,,,,,,,,,,,,,,,,,,,,402.961,403.6292,m,1,0.6393,,403.6294,403.6296,,0,181,181,98,1,99,paket,1532,69.608,1392,0.1522,5,notharmonic,1.55,word,m,,,,,,,
,,,,,,,,,,,Arda,001,2023-11-08_13h09.58.364,vowel_harmony,2023.2.3,Win32,59.98440405,403.6305,404.6302,,,,,,,,,,,,,,,,,,,,,,,,,,404.6303,405.1805,m,1,0.5228,,405.1807,405.1809,,0,182,182,32,1,33,temel,4231,192.2399,3851,0.421,5,harmonic,1.55,word,m,,,,,,,
,,,,,,,,,,,Arda,001,2023-11-08_13h09.58.364,vowel_harmony,2023.2.3,Win32,59.98440405,405.1819,406.1818,,,,,,,,,,,,,,,,,,,,,,,,,,406.182,407.1658,z,1,0.9534,,407.1659,407.1662,,0,183,183,221,1,222,yaypın,,,,,6,harmonic,1.75,nw,z,,,,,,,
,,,,,,,,,,,Arda,001,2023-11-08_13h09.58.364,vowel_harmony,2023.2.3,Win32,59.98440405,407.1671,408.1667,,,,,,,,,,,,,,,,,,,,,,,,,,408.1668,409.0344,m,1,0.8357,,409.0346,409.0348,,0,184,184,47,1,48,kaza,740,33.6227,679,0.0742,4,harmonic,1.85,word,m,,,,,,,
,,,,,,,,,,,Arda,001,2023-11-08_13h09.58.364,vowel_harmony,2023.2.3,Win32,59.98440405,409.0358,410.0354,,,,,,,,,,,,,,,,,,,,,,,,,,410.0355,410.7526,z,1,0.6854,,410.7528,410.7531,,0,185,185,342,1,343,kulön,,,,,5,notharmonic,1.9,nw,z,,,,,,,
,,,,,,,,,,,Arda,001,2023-11-08_13h09.58.364,vowel_harmony,2023.2.3,Win32,59.98440405,410.7542,411.7535,,,,,,,,,,,,,,,,,,,,,,,,,,411.7536,412.4375,m,1,0.6539,,412.4376,412.4378,,0,186,186,155,1,156,ilaç,1366,62.0656,1215,0.1328,4,notharmonic,1.75,word,m,,,,,,,
,,,,,,,,,,,Arda,001,2023-11-08_13h09.58.364,vowel_harmony,2023.2.3,Win32,59.98440405,412.4385,413.439,,,,,,,,,,,,,,,,,,,,,,,,,,413.4391,414.0898,m,1,0.6188,,414.0899,414.0901,,0,187,187,9,1,10,karar,8108,368.3954,7436,0.8129,5,harmonic,1.6,word,m,,,,,,,
,,,,,,,,,,,Arda,001,2023-11-08_13h09.58.364,vowel_harmony,2023.2.3,Win32,59.98440405,414.0913,415.0905,,,,,,,,,,,,,,,,,,,,,,,,,,415.0907,415.8408,z,1,0.7269,,415.841,415.8411,,0,188,188,202,1,203,güvin,,,,,5,harmonic,1.95,nw,z,,,,,,,
,,,,,,,,,,,Arda,001,2023-11-08_13h09.58.364,vowel_harmony,2023.2.3,Win32,59.98440405,415.8421,416.8421,,,,,,,,,,,,,,,,,,,,,,,,,,416.8421,417.5767,z,1,0.7017,,417.5768,417.5769,,0,189,189,191,1,192,doab,,,,,4,harmonic,2,nw,z,,,,,,,
,,,,,,,,,,,Arda,001,2023-11-08_13h09.58.364,vowel_harmony,2023.2.3,Win32,59.98440405,417.5781,418.5774,,,,,,,,,,,,,,,,,,,,,,,,,,418.5776,419.3116,m,1,0.7024,,419.3117,419.3119,,0,190,190,64,1,65,lise,888,40.3472,816,0.0892,4,harmonic,1.5,word,m,,,,,,,
,,,,,,,,,,,Arda,001,2023-11-08_13h09.58.364,vowel_harmony,2023.2.3,Win32,59.98440405,419.313,420.3125,,,,,,,,,,,,,,,,,,,,,,,,,,420.3127,420.9799,z,1,0.6398,,420.9799,420.9802,,0,191,191,230,1,231,bikir,,,,,5,harmonic,1.75,nw,z,,,,,,,
,,,,,,,,,,,Arda,001,2023-11-08_13h09.58.364,vowel_harmony,2023.2.3,Win32,59.98440405,420.9811,421.981,,,,,,,,,,,,,,,,,,,,,,,,,,421.981,422.6816,z,1,0.6763,,422.6818,422.682,,0,192,192,305,1,306,tamü,,,,,4,notharmonic,1.75,nw,z,,,,,,,
,,,,,,,,,,,Arda,001,2023-11-08_13h09.58.364,vowel_harmony,2023.2.3,Win32,59.98440405,422.6836,423.6826,,,,,,,,,,,,,,,,,,,,,,,,,,423.6826,424.4242,z,1,0.7189,,424.4243,424.4246,,0,193,193,198,1,199,yarbız,,,,,6,harmonic,1.95,nw,z,,,,,,,
,,,,,,,,,,,Arda,001,2023-11-08_13h09.58.364,vowel_harmony,2023.2.3,Win32,59.98440405,424.4252,425.4175,,,,,,,,,,,,,,,,,,,,,,,,,,425.4176,426.0183,z,1,0.576,,426.0184,426.0186,,0,194,194,227,1,228,zekö,,,,,4,harmonic,1.9,nw,z,,,,,,,
,,,,,,,,,,,Arda,001,2023-11-08_13h09.58.364,vowel_harmony,2023.2.3,Win32,59.98440405,426.0197,427.0193,,,,,,,,,,,,,,,,,,,,,,,,,,427.0194,427.7199,z,1,0.669,,427.72,427.7202,,0,195,195,311,1,312,dedya,,,,,5,notharmonic,1.9,nw,z,,,,,,,
,,,,,,,,,,,Arda,001,2023-11-08_13h09.58.364,vowel_harmony,2023.2.3,Win32,59.98440405,427.7213,428.7207,,,,,,,,,,,,,,,,,,,,,,,,,,428.7208,429.9888,z,1,1.2387,,429.9889,429.9891,,0,196,196,292,1,293,kinam,,,,,5,notharmonic,1.85,nw,z,,,,,,,
,,,,,,,,,,,Arda,001,2023-11-08_13h09.58.364,vowel_harmony,2023.2.3,Win32,59.98440405,429.9903,430.9899,,,,,,,,,,,,,,,,,,,,,,,,,,430.99,431.5737,m,1,0.5528,,431.5737,431.5741,,0,197,197,151,1,152,ateş,2108,95.7792,1803,0.1971,4,notharmonic,1.65,word,m,,,,,,,
,,,,,,,,,,,Arda,001,2023-11-08_13h09.58.364,vowel_harmony,2023.2.3,Win32,59.98440405,431.5754,432.5743,,,,,,,,,,,,,,,,,,,,,,,,,,432.5745,433.2418,m,1,0.642,,433.2419,433.2421,,0,198,198,142,1,143,siyasi,2909,132.1734,2445,0.2673,6,notharmonic,1.8,word,m,,,,,,,
,,,,,,,,,,,Arda,001,2023-11-08_13h09.58.364,vowel_harmony,2023.2.3,Win32,59.98440405,433.243,434.2428,,,,,,,,,,,,,,,,,,,,,,,,,,434.2429,434.8604,z,1,0.5854,,434.8605,434.8607,,0,199,199,188,1,189,tonık,,,,,5,harmonic,1.85,nw,z,,,,,,,
,,,,,,,,,,,Arda,001,2023-11-08_13h09.58.364,vowel_harmony,2023.2.3,Win32,59.98440405,434.8619,435.8611,,,,,,,,,,,,,,,,,,,,,,,,,,435.8612,436.4788,z,1,0.5874,,436.4789,436.479,,0,200,200,319,1,320,biho,,,,,4,notharmonic,2,nw,z,,,,,,,
,,,,,,,,,,,Arda,001,2023-11-08_13h09.58.364,vowel_harmony,2023.2.3,Win32,59.98440405,436.4799,437.4796,,,,,,,,,,,,,,,,,,,,,,,,,,437.4798,438.4473,m,1,0.9371,,438.4475,438.4476,,0,201,201,154,1,155,sakin,1855,84.2838,1635,0.1787,5,notharmonic,1.05,word,m,,,,,,,
,,,,,,,,,,,Arda,001,2023-11-08_13h09.58.364,vowel_harmony,2023.2.3,Win32,59.98440405,438.4486,439.4475,,,,,,,,,,,,,,,,,,,,,,,,,,439.4477,440.3659,m,1,0.8866,,440.3659,440.3661,,0,202,202,157,1,158,aktif,1062,48.2531,986,0.1078,5,notharmonic,1.9,word,m,,,,,,,
,,,,,,,,,,,Arda,001,2023-11-08_13h09.58.364,vowel_harmony,2023.2.3,Win32,59.98440405,440.3671,441.3657,,,,,,,,,,,,,,,,,,,,,,,,,,441.3658,442.0672,m,1,0.6738,,442.0673,442.0675,,0,203,203,69,1,70,forma,719,32.6685,597,0.0653,5,harmonic,1.8,word,m,,,,,,,
,,,,,,,,,,,Arda,001,2023-11-08_13h09.58.364,vowel_harmony,2023.2.3,Win32,59.98440405,442.0682,443.0684,,,,,,,,,,,,,,,,,,,,,,,,,,443.0685,443.6847,m,1,0.5831,,443.6847,443.6848,,0,204,204,131,1,132,hakim,1677,76.1962,1559,0.1704,5,notharmonic,1,word,m,,,,,,,
,,,,,,,,,,,Arda,001,2023-11-08_13h09.58.364,vowel_harmony,2023.2.3,Win32,59.98440405,443.6854,444.6865,,,,,,,,,,,,,,,,,,,,,,,,,,444.6865,445.1204,m,1,0.4024,,445.1205,445.1207,,0,205,205,43,1,44,geniş,3380,153.5738,3185,0.3482,5,harmonic,1.35,word,m,,,,,,,
,,,,,,,,,,,Arda,001,2023-11-08_13h09.58.364,vowel_harmony,2023.2.3,Win32,59.98440405,445.1217,446.1209,,,,,,,,,,,,,,,,,,,,,,,,,,446.121,446.6881,m,1,0.5456,,446.6882,446.6883,,0,206,206,95,1,96,takip,4996,226.9984,4651,0.5084,5,notharmonic,1.55,word,m,,,,,,,
,,,,,,,,,,,Arda,001,2023-11-08_13h09.58.364,vowel_harmony,2023.2.3,Win32,59.98440405,446.6892,447.6896,,,,,,,,,,,,,,,,,,,,,,,,,,447.6897,448.4407,z,1,0.7214,,448.4408,448.441,,0,207,207,300,1,301,nilgi,,,,,5,notharmonic,1.85,nw,z,,,,,,,
,,,,,,,,,,,Arda,001,2023-11-08_13h09.58.364,vowel_harmony,2023.2.3,Win32,59.98440405,448.4424,449.4465,,,,,,,,,,,,,,,,,,,,,,,,,,449.4465,450.4416,m,1,0.9688,,450.4416,450.4419,,0,208,208,72,1,73,çorba,1674,76.0599,1513,0.1654,5,harmonic,1.75,word,m,,,,,,,
,,,,,,,,,,,Arda,001,2023-11-08_13h09.58.364,vowel_harmony,2023.2.3,Win32,59.98440405,450.4433,451.443,,,,,,,,,,,,,,,,,,,,,,,,,,451.443,452.9112,z,1,1.4457,,452.9113,452.9117,,0,209,209,273,1,274,nimal,,,,,5,notharmonic,1.9,nw,z,,,,,,,
,,,,,,,,,,,Arda,001,2023-11-08_13h09.58.364,vowel_harmony,2023.2.3,Win32,59.98440405,452.9324,453.9123,,,,,,,,,,,,,,,,,,,,,,,,,,453.9125,454.6464,z,1,0.7057,,454.6465,454.6467,,0,210,210,350,1,351,resun,,,,,5,notharmonic,1.85,nw,z,,,,,,,
,,,,,,,,,,,Arda,001,2023-11-08_13h09.58.364,vowel_harmony,2023.2.3,Win32,59.98440405,454.6476,455.6477,,,,,,,,,,,,,,,,,,,,,,,,,,455.6477,456.3819,m,1,0.7043,,456.382,456.3823,,0,211,211,162,1,163,hariç,1267,57.5675,1233,0.1348,5,notharmonic,1.75,word,m,,,,,,,
,,,,,,,,,,,Arda,001,2023-11-08_13h09.58.364,vowel_harmony,2023.2.3,Win32,59.98440405,456.3835,457.3828,,,,,,,,,,,,,,,,,,,,,,,,,,457.3829,458.0002,m,1,0.5873,,458.0003,458.0005,,0,212,212,125,1,126,ikna,1276,57.9764,1173,0.1282,4,notharmonic,1.85,word,m,,,,,,,
,,,,,,,,,,,Arda,001,2023-11-08_13h09.58.364,vowel_harmony,2023.2.3,Win32,59.98440405,458.0015,459.0013,,,,,,,,,,,,,,,,,,,,,,,,,,459.0014,459.8349,z,1,0.8077,,459.835,459.8353,,0,213,213,240,1,241,hoga,,,,,4,harmonic,1.75,nw,z,,,,,,,
,,,,,,,,,,,Arda,001,2023-11-08_13h09.58.364,vowel_harmony,2023.2.3,Win32,59.98440405,459.8362,460.8361,,,,,,,,,,,,,,,,,,,,,,,,,,460.8362,461.5029,z,1,0.6354,,461.5029,461.5029,,0,214,214,264,1,265,vepü,,,,,4,harmonic,2,nw,z,,,,,,,
,,,,,,,,,,,Arda,001,2023-11-08_13h09.58.364,vowel_harmony,2023.2.3,Win32,59.98440405,461.5034,462.5046,,,,,,,,,,,,,,,,,,,,,,,,,,462.5047,463.155,z,1,0.6196,,463.1551,463.1554,,0,215,215,343,1,344,tarne,,,,,5,notharmonic,1.85,nw,z,,,,,,,
,,,,,,,,,,,Arda,001,2023-11-08_13h09.58.364,vowel_harmony,2023.2.3,Win32,59.98440405,463.1564,464.1559,,,,,,,,,,,,,,,,,,,,,,,,,,464.1559,464.7899,z,1,0.603,,464.7901,464.7904,,0,216,216,265,1,266,parula,,,,,6,harmonic,1.75,nw,z,,,,,,,
,,,,,,,,,,,Arda,001,2023-11-08_13h09.58.364,vowel_harmony,2023.2.3,Win32,59.98440405,464.7913,465.791,,,,,,,,,,,,,,,,,,,,,,,,,,465.7911,466.6588,m,1,0.84,,466.6588,466.659,,0,217,217,103,1,104,tane,5623,255.4868,5075,0.5548,4,notharmonic,1.3,word,m,,,,,,,
,,,,,,,,,,,Arda,001,2023-11-08_13h09.58.364,vowel_harmony,2023.2.3,Win32,59.98440405,466.66,467.6598,,,,,,,,,,,,,,,,,,,,,,,,,,467.6599,468.427,m,1,0.7367,,468.4271,468.4273,,0,218,218,129,1,130,tahmin,2353,106.911,2273,0.2485,6,notharmonic,1.6,word,m,,,,,,,
,,,,,,,,,,,Arda,001,2023-11-08_13h09.58.364,vowel_harmony,2023.2.3,Win32,59.98440405,468.4282,469.4282,,,,,,,,,,,,,,,,,,,,,,,,,,469.4283,470.0797,m,1,0.6269,,470.0798,470.0801,,0,219,219,71,1,72,örnek,3463,157.345,3266,0.357,5,harmonic,1.85,word,m,,,,,,,
,,,,,,,,,,,Arda,001,2023-11-08_13h09.58.364,vowel_harmony,2023.2.3,Win32,59.98440405,470.0812,471.0795,,,,,,,,,,,,,,,,,,,,,,,,,,471.0796,471.9299,z,1,0.8178,,471.9301,471.9302,,0,220,220,181,1,182,rapkı,,,,,5,harmonic,1.85,nw,z,,,,,,,
,,,,,,,,,,,Arda,001,2023-11-08_13h09.58.364,vowel_harmony,2023.2.3,Win32,59.98440405,471.9308,472.9318,,,,,,,,,,,,,,,,,,,,,,,,,,472.9319,473.6653,z,1,0.708,,473.6655,473.6658,,0,221,221,324,1,325,pakeh,,,,,5,notharmonic,1.9,nw,z,,,,,,,
,,,,,,,,,,,Arda,001,2023-11-08_13h09.58.364,vowel_harmony,2023.2.3,Win32,59.98440405,473.6669,474.6577,,,,,,,,,,,,,,,,,,,,,,,,,,474.6577,475.5007,m,1,0.8225,,475.5008,475.501,,0,222,222,163,1,164,limon,1658,75.3329,1481,0.1619,5,notharmonic,1.75,word,m,,,,,,,
,,,,,,,,,,,Arda,001,2023-11-08_13h09.58.364,vowel_harmony,2023.2.3,Win32,59.98440405,475.502,476.5019,,,,,,,,,,,,,,,,,,,,,,,,,,476.502,477.3352,z,1,0.8081,,477.3353,477.3355,,0,223,223,209,1,210,sapor,,,,,5,harmonic,1.8,nw,z,,,,,,,
,,,,,,,,,,,Arda,001,2023-11-08_13h09.58.364,vowel_harmony,2023.2.3,Win32,59.98440405,477.3361,478.3359,,,,,,,,,,,,,,,,,,,,,,,,,,478.336,478.854,m,1,0.4854,,478.8541,478.8544,,0,224,224,172,1,173,milyar,1496,67.9723,1078,0.1178,6,notharmonic,1.85,word,m,,,,,,,
,,,,,,,,,,,Arda,001,2023-11-08_13h09.58.364,vowel_harmony,2023.2.3,Win32,59.98440405,478.8554,479.8552,,,,,,,,,,,,,,,,,,,,,,,,,,479.8553,480.489,z,1,0.6091,,480.4892,480.4894,,0,225,225,277,1,278,balsin,,,,,6,notharmonic,1.85,nw,z,,,,,,,
,,,,,,,,,,,Arda,001,2023-11-08_13h09.58.364,vowel_harmony,2023.2.3,Win32,59.98440405,480.4903,481.4903,,,,,,,,,,,,,,,,,,,,,,,,,,481.4903,482.0638,m,1,0.5512,,482.0638,482.0639,,0,226,226,26,1,27,sebze,1094,49.707,961,0.1051,5,harmonic,1.9,word,m,,,,,,,
,,,,,,,,,,,Arda,001,2023-11-08_13h09.58.364,vowel_harmony,2023.2.3,Win32,59.98440405,482.0643,483.0585,,,,,,,,,,,,,,,,,,,,,,,,,,483.0585,483.6757,z,1,0.5857,,483.6759,483.676,,0,227,227,203,1,204,döves,,,,,5,harmonic,1.8,nw,z,,,,,,,
,,,,,,,,,,,Arda,001,2023-11-08_13h09.58.364,vowel_harmony,2023.2.3,Win32,59.98440405,483.677,484.6765,,,,,,,,,,,,,,,,,,,,,,,,,,484.6766,485.2441,m,1,0.5383,,485.2442,485.2445,,0,228,228,149,1,150,ceza,2611,118.6335,2169,0.2371,4,notharmonic,1.5,word,m,,,,,,,
,,,,,,,,,,,Arda,001,2023-11-08_13h09.58.364,vowel_harmony,2023.2.3,Win32,59.98440405,485.2454,486.2448,,,,,,,,,,,,,,,,,,,,,,,,,,486.245,486.6954,m,1,0.4183,,486.6955,486.6957,,0,229,229,156,1,157,medya,1784,81.0579,1495,0.1634,5,notharmonic,1.35,word,m,,,,,,,
,,,,,,,,,,,Arda,001,2023-11-08_13h09.58.364,vowel_harmony,2023.2.3,Win32,59.98440405,486.6967,487.696,,,,,,,,,,,,,,,,,,,,,,,,,,487.6961,488.3302,z,1,0.6079,,488.3304,488.3305,,0,230,230,298,1,299,yelsın,,,,,6,notharmonic,1.95,nw,z,,,,,,,
,,,,,,,,,,,Arda,001,2023-11-08_13h09.58.364,vowel_harmony,2023.2.3,Win32,59.98440405,488.3314,489.3311,,,,,,,,,,,,,,,,,,,,,,,,,,489.3311,490.0152,m,1,0.6527,,490.0154,490.0156,,0,231,231,40,1,41,tepki,1695,77.0141,1578,0.1725,5,harmonic,1.55,word,m,,,,,,,
,,,,,,,,,,,Arda,001,2023-11-08_13h09.58.364,vowel_harmony,2023.2.3,Win32,59.98440405,490.0164,491.0163,,,,,,,,,,,,,,,,,,,,,,,,,,491.0164,491.6502,z,1,0.6073,,491.6503,491.6505,,0,232,232,318,1,319,yorgün,,,,,6,notharmonic,1.9,nw,z,,,,,,,
,,,,,,,,,,,Arda,001,2023-11-08_13h09.58.364,vowel_harmony,2023.2.3,Win32,59.98440405,491.6515,492.6508,,,,,,,,,,,,,,,,,,,,,,,,,,492.6508,493.1347,m,1,0.4603,,493.1348,493.1351,,0,233,233,35,1,36,hava,4975,226.0443,4398,0.4808,4,harmonic,1,word,m,,,,,,,
,,,,,,,,,,,Arda,001,2023-11-08_13h09.58.364,vowel_harmony,2023.2.3,Win32,59.98440405,493.1365,494.1357,,,,,,,,,,,,,,,,,,,,,,,,,,494.1358,494.7866,m,0,0.6198,,494.7867,494.7869,,0,234,234,237,1,238,taşal,,,,,5,harmonic,1.8,nw,z,,,,,,,
,,,,,,,,,,,Arda,001,2023-11-08_13h09.58.364,vowel_harmony,2023.2.3,Win32,59.98440405,494.7882,495.7876,,,,,,,,,,,,,,,,,,,,,,,,,,495.7877,497.0553,z,1,1.2446,,497.0554,497.0556,,0,235,235,219,1,220,barlum,,,,,6,harmonic,1.9,nw,z,,,,,,,
,,,,,,,,,,,Arda,001,2023-11-08_13h09.58.364,vowel_harmony,2023.2.3,Win32,59.98440405,497.0564,498.0564,,,,,,,,,,,,,,,,,,,,,,,,,,498.0566,498.9074,z,1,0.8236,,498.9076,498.9078,,0,236,236,354,1,355,taden,,,,,5,notharmonic,1.7,nw,z,,,,,,,
,,,,,,,,,,,Arda,001,2023-11-08_13h09.58.364,vowel_harmony,2023.2.3,Win32,59.98440405,498.9087,499.9086,,,,,,,,,,,,,,,,,,,,,,,,,,499.9087,500.8258,z,1,0.8903,,500.826,500.8261,,0,237,237,321,1,322,makih,,,,,5,notharmonic,1.8,nw,z,,,,,,,
,,,,,,,,,,,Arda,001,2023-11-08_13h09.58.364,vowel_harmony,2023.2.3,Win32,59.98440405,500.8268,501.826,,,,,,,,,,,,,,,,,,,,,,,,,,501.826,502.3607,z,1,0.5014,,502.3608,502.3612,,0,238,238,288,1,289,molit,,,,,5,notharmonic,1.95,nw,z,,,,,,,
,,,,,,,,,,,Arda,001,2023-11-08_13h09.58.364,vowel_harmony,2023.2.3,Win32,59.98440405,502.3623,503.3684,,,,,,,,,,,,,,,,,,,,,,,,,,503.3684,504.4959,m,1,1.1032,,504.496,504.4962,,0,239,239,143,1,144,kitap,8359,379.7998,6786,0.7418,5,notharmonic,1.9,word,m,,,,,,,
,,,,,,,,,,,Arda,001,2023-11-08_13h09.58.364,vowel_harmony,2023.2.3,Win32,59.98440405,504.4971,505.497,,,,,,,,,,,,,,,,,,,,,,,,,,505.497,506.2148,m,1,0.6861,,506.215,539.4972,space,0,240,240,110,1,111,rüya,1062,48.2531,937,0.1024,4,notharmonic,1.75,word,m,33.2508,,,,,,
,,,,,,,,,,,Arda,001,2023-11-08_13h09.58.364,vowel_harmony,2023.2.3,Win32,59.98440405,539.5072,540.4988,,,,,,,,,,,,,,,,,,,,,,,,,,540.4989,541.2325,z,1,0.707,,541.2325,541.2327,,0,241,241,211,1,212,yarum,,,,,5,harmonic,1.75,nw,z,,,,,,,
,,,,,,,,,,,Arda,001,2023-11-08_13h09.58.364,vowel_harmony,2023.2.3,Win32,59.98440405,541.2335,542.233,,,,,,,,,,,,,,,,,,,,,,,,,,542.2331,542.8669,z,1,0.6047,,542.8669,542.8669,,0,242,242,256,1,257,yaruza,,,,,6,harmonic,1.9,nw,z,,,,,,,
,,,,,,,,,,,Arda,001,2023-11-08_13h09.58.364,vowel_harmony,2023.2.3,Win32,59.98440405,542.8674,543.869,,,,,,,,,,,,,,,,,,,,,,,,,,543.8691,544.536,z,1,0.635,,544.5362,544.5365,,0,243,243,325,1,326,garit,,,,,5,notharmonic,1.85,nw,z,,,,,,,
,,,,,,,,,,,Arda,001,2023-11-08_13h09.58.364,vowel_harmony,2023.2.3,Win32,59.98440405,544.5373,545.5373,,,,,,,,,,,,,,,,,,,,,,,,,,545.5374,546.2045,m,1,0.6405,,546.2046,546.2049,,0,244,244,21,1,22,duygu,1877,85.2834,1760,0.1924,5,harmonic,1.8,word,m,,,,,,,
,,,,,,,,,,,Arda,001,2023-11-08_13h09.58.364,vowel_harmony,2023.2.3,Win32,59.98440405,546.2061,547.2058,,,,,,,,,,,,,,,,,,,,,,,,,,547.2058,547.7232,m,1,0.4857,,547.7233,547.7237,,0,245,245,22,1,23,anlam,1730,78.6043,1617,0.1768,5,harmonic,1.25,word,m,,,,,,,
,,,,,,,,,,,Arda,001,2023-11-08_13h09.58.364,vowel_harmony,2023.2.3,Win32,59.98440405,547.7252,548.724,,,,,,,,,,,,,,,,,,,,,,,,,,548.724,549.358,m,1,0.6048,,549.3581,549.3583,,0,246,246,137,1,138,parti,2613,118.7244,2059,0.2251,5,notharmonic,1.8,word,m,,,,,,,
,,,,,,,,,,,Arda,001,2023-11-08_13h09.58.364,vowel_harmony,2023.2.3,Win32,59.98440405,549.3593,550.3591,,,,,,,,,,,,,,,,,,,,,,,,,,550.3592,550.9924,z,1,0.61,,550.9925,550.9927,,0,247,247,359,1,360,kardez,,,,,6,notharmonic,1.95,nw,z,,,,,,,
,,,,,,,,,,,Arda,001,2023-11-08_13h09.58.364,vowel_harmony,2023.2.3,Win32,59.98440405,550.9937,551.9937,,,,,,,,,,,,,,,,,,,,,,,,,,551.9939,552.7947,z,1,0.7691,,552.7948,552.795,,0,248,248,344,1,345,barika,,,,,6,notharmonic,1.75,nw,z,,,,,,,
,,,,,,,,,,,Arda,001,2023-11-08_13h09.58.364,vowel_harmony,2023.2.3,Win32,59.98440405,552.7959,553.7952,,,,,,,,,,,,,,,,,,,,,,,,,,553.7954,554.3785,z,1,0.5506,,554.3785,554.3785,,0,249,249,336,1,337,diyam,,,,,5,notharmonic,1.85,nw,z,,,,,,,
,,,,,,,,,,,Arda,001,2023-11-08_13h09.58.364,vowel_harmony,2023.2.3,Win32,59.98440405,554.3793,555.3805,,,,,,,,,,,,,,,,,,,,,,,,,,555.3807,556.1315,z,1,0.7188,,556.1317,556.1319,,0,250,250,208,1,209,yayram,,,,,6,harmonic,1.85,nw,z,,,,,,,
,,,,,,,,,,,Arda,001,2023-11-08_13h09.58.364,vowel_harmony,2023.2.3,Win32,59.98440405,556.133,557.1325,,,,,,,,,,,,,,,,,,,,,,,,,,557.1326,557.5999,z,1,0.4362,,557.6,557.6003,,0,251,251,341,1,342,işgan,,,,,5,notharmonic,1.95,nw,z,,,,,,,
,,,,,,,,,,,Arda,001,2023-11-08_13h09.58.364,vowel_harmony,2023.2.3,Win32,59.98440405,557.6014,558.6006,,,,,,,,,,,,,,,,,,,,,,,,,,558.6007,559.184,m,1,0.5604,,559.1842,559.1844,,0,252,252,74,1,75,başarı,1398,63.5196,1300,0.1421,6,harmonic,1.2,word,m,,,,,,,
,,,,,,,,,,,Arda,001,2023-11-08_13h09.58.364,vowel_harmony,2023.2.3,Win32,59.98440405,559.1854,560.1851,,,,,,,,,,,,,,,,,,,,,,,,,,560.1852,560.8029,z,1,0.5871,,560.803,560.8032,,0,253,253,228,1,229,haytam,,,,,6,harmonic,1.75,nw,z,,,,,,,
,,,,,,,,,,,Arda,001,2023-11-08_13h09.58.364,vowel_harmony,2023.2.3,Win32,59.98440405,560.8042,561.8037,,,,,,,,,,,,,,,,,,,,,,,,,,561.8038,562.5211,z,1,0.6865,,562.5213,562.5215,,0,254,254,276,1,277,iptap,,,,,5,notharmonic,1.95,nw,z,,,,,,,
,,,,,,,,,,,Arda,001,2023-11-08_13h09.58.364,vowel_harmony,2023.2.3,Win32,59.98440405,562.5228,563.5223,,,,,,,,,,,,,,,,,,,,,,,,,,563.5224,564.1393,z,1,0.59,,564.1394,564.1396,,0,255,255,226,1,227,tefem,,,,,5,harmonic,1.75,nw,z,,,,,,,
,,,,,,,,,,,Arda,001,2023-11-08_13h09.58.364,vowel_harmony,2023.2.3,Win32,59.98440405,564.1405,565.14,,,,,,,,,,,,,,,,,,,,,,,,,,565.1401,565.6235,z,1,0.4588,,565.6235,565.6238,,0,256,256,186,1,187,habık,,,,,5,harmonic,1.9,nw,z,,,,,,,
,,,,,,,,,,,Arda,001,2023-11-08_13h09.58.364,vowel_harmony,2023.2.3,Win32,59.98440405,565.6247,566.6249,,,,,,,,,,,,,,,,,,,,,,,,,,566.625,567.1422,z,1,0.4857,,567.1423,567.1426,,0,257,257,220,1,221,denbi,,,,,5,harmonic,1.75,nw,z,,,,,,,
,,,,,,,,,,,Arda,001,2023-11-08_13h09.58.364,vowel_harmony,2023.2.3,Win32,59.98440405,567.1435,568.1434,,,,,,,,,,,,,,,,,,,,,,,,,,568.1435,568.8773,m,1,0.7035,,568.8774,568.8776,,0,258,258,30,1,31,çevre,1662,75.5147,1409,0.154,5,harmonic,1.55,word,m,,,,,,,
,,,,,,,,,,,Arda,001,2023-11-08_13h09.58.364,vowel_harmony,2023.2.3,Win32,59.98440405,568.8785,569.8783,,,,,,,,,,,,,,,,,,,,,,,,,,569.8784,570.4624,z,1,0.5528,,570.4625,570.4627,,0,259,259,284,1,285,deval,,,,,5,notharmonic,1.75,nw,z,,,,,,,
,,,,,,,,,,,Arda,001,2023-11-08_13h09.58.364,vowel_harmony,2023.2.3,Win32,59.98440405,570.4637,571.4633,,,,,,,,,,,,,,,,,,,,,,,,,,571.4634,571.9971,m,1,0.5019,,571.9973,571.9974,,0,260,260,25,1,26,rapor,703,31.9415,617,0.0675,5,harmonic,1.8,word,m,,,,,,,
,,,,,,,,,,,Arda,001,2023-11-08_13h09.58.364,vowel_harmony,2023.2.3,Win32,59.98440405,571.9984,572.9979,,,,,,,,,,,,,,,,,,,,,,,,,,572.998,573.7657,m,1,0.7376,,573.7658,573.766,,0,261,261,88,1,89,yalnız,5891,267.6637,5440,0.5947,6,harmonic,1.6,word,m,,,,,,,
,,,,,,,,,,,Arda,001,2023-11-08_13h09.58.364,vowel_harmony,2023.2.3,Win32,59.98440405,573.767,574.7655,,,,,,,,,,,,,,,,,,,,,,,,,,574.7655,575.4169,m,1,0.6185,,575.4171,575.4174,,0,262,262,80,1,81,merkez,1445,65.6551,1255,0.1372,6,harmonic,1.8,word,m,,,,,,,
,,,,,,,,,,,Arda,001,2023-11-08_13h09.58.364,vowel_harmony,2023.2.3,Win32,59.98440405,575.4185,576.4181,,,,,,,,,,,,,,,,,,,,,,,,,,576.4182,577.1023,z,1,0.6537,,577.1024,577.1026,,0,263,263,210,1,211,şevci,,,,,5,harmonic,1.75,nw,z,,,,,,,
,,,,,,,,,,,Arda,001,2023-11-08_13h09.58.364,vowel_harmony,2023.2.3,Win32,59.98440405,577.1036,578.1034,,,,,,,,,,,,,,,,,,,,,,,,,,578.1036,578.6538,m,1,0.5211,,578.654,578.6542,,0,264,264,146,1,147,mavi,2206,100.2319,1934,0.2114,4,notharmonic,1.45,word,m,,,,,,,
,,,,,,,,,,,Arda,001,2023-11-08_13h09.58.364,vowel_harmony,2023.2.3,Win32,59.98440405,578.655,579.6544,,,,,,,,,,,,,,,,,,,,,,,,,,579.6545,580.3051,z,1,0.62,,580.3053,580.3055,,0,265,265,207,1,208,örtre,,,,,5,harmonic,1.85,nw,z,,,,,,,
,,,,,,,,,,,Arda,001,2023-11-08_13h09.58.364,vowel_harmony,2023.2.3,Win32,59.98440405,580.3067,581.3061,,,,,,,,,,,,,,,,,,,,,,,,,,581.3063,581.9739,z,1,0.6357,,581.9741,581.9743,,0,266,266,270,1,271,miyaj,,,,,5,notharmonic,1.9,nw,z,,,,,,,
,,,,,,,,,,,Arda,001,2023-11-08_13h09.58.364,vowel_harmony,2023.2.3,Win32,59.98440405,581.9755,582.9747,,,,,,,,,,,,,,,,,,,,,,,,,,582.9747,583.7253,z,1,0.7197,,583.7255,583.7259,,0,267,267,289,1,290,karmen,,,,,6,notharmonic,1.75,nw,z,,,,,,,
,,,,,,,,,,,Arda,001,2023-11-08_13h09.58.364,vowel_harmony,2023.2.3,Win32,59.98440405,583.727,584.7263,,,,,,,,,,,,,,,,,,,,,,,,,,584.7265,585.4761,m,1,0.7177,,585.4761,585.4762,,0,268,268,132,1,133,modern,2326,105.6842,2031,0.222,6,notharmonic,1.85,word,m,,,,,,,
,,,,,,,,,,,Arda,001,2023-11-08_13h09.58.364,vowel_harmony,2023.2.3,Win32,59.98440405,585.4768,586.4781,,,,,,,,,,,,,,,,,,,,,,,,,,586.4781,587.2789,m,1,0.7694,,587.2791,587.2792,,0,269,269,6,1,7,hayal,4498,204.3713,4079,0.4459,5,harmonic,1.45,word,m,,,,,,,
,,,,,,,,,,,Arda,001,2023-11-08_13h09.58.364,vowel_harmony,2023.2.3,Win32,59.98440405,587.2801,588.2798,,,,,,,,,,,,,,,,,,,,,,,,,,588.28,588.9805,m,1,0.6688,,588.9807,588.9809,,0,270,270,144,1,145,garip,2567,116.6343,2355,0.2574,5,notharmonic,1.65,word,m,,,,,,,
,,,,,,,,,,,Arda,001,2023-11-08_13h09.58.364,vowel_harmony,2023.2.3,Win32,59.98440405,588.9818,589.982,,,,,,,,,,,,,,,,,,,,,,,,,,589.982,590.9159,m,1,0.9031,,590.9161,590.9163,,0,271,271,111,1,112,kahve,2634,119.6785,2283,0.2496,5,notharmonic,1.85,word,m,,,,,,,
,,,,,,,,,,,Arda,001,2023-11-08_13h09.58.364,vowel_harmony,2023.2.3,Win32,59.98440405,590.9172,591.9171,,,,,,,,,,,,,,,,,,,,,,,,,,591.9172,592.7681,z,1,0.8194,,592.7681,592.7683,,0,272,272,238,1,239,kocı,,,,,4,harmonic,1.95,nw,z,,,,,,,
,,,,,,,,,,,Arda,001,2023-11-08_13h09.58.364,vowel_harmony,2023.2.3,Win32,59.98440405,592.7693,593.769,,,,,,,,,,,,,,,,,,,,,,,,,,593.7691,594.4533,m,1,0.6521,,594.4534,594.4538,,0,273,273,96,1,97,dahil,3189,144.8955,3060,0.3345,5,notharmonic,1.7,word,m,,,,,,,
,,,,,,,,,,,Arda,001,2023-11-08_13h09.58.364,vowel_harmony,2023.2.3,Win32,59.98440405,594.4552,595.4539,,,,,,,,,,,,,,,,,,,,,,,,,,595.454,596.0537,z,1,0.5763,,596.0539,596.0541,,0,274,274,222,1,223,gelü,,,,,4,harmonic,1.75,nw,z,,,,,,,
,,,,,,,,,,,Arda,001,2023-11-08_13h09.58.364,vowel_harmony,2023.2.3,Win32,59.98440405,596.0549,597.0553,,,,,,,,,,,,,,,,,,,,,,,,,,597.0554,597.6557,z,1,0.5772,,597.6557,597.656,,0,275,275,199,1,200,movu,,,,,4,harmonic,1.9,nw,z,,,,,,,
,,,,,,,,,,,Arda,001,2023-11-08_13h09.58.364,vowel_harmony,2023.2.3,Win32,59.98440405,597.657,598.6571,,,,,,,,,,,,,,,,,,,,,,,,,,598.6572,599.2242,m,1,0.5364,,599.2244,599.2246,,0,276,276,179,1,180,dakika,5891,267.6637,5207,0.5692,6,notharmonic,1.75,word,m,,,,,,,
,,,,,,,,,,,Arda,001,2023-11-08_13h09.58.364,vowel_harmony,2023.2.3,Win32,59.98440405,599.2255,600.2253,,,,,,,,,,,,,,,,,,,,,,,,,,600.2254,600.7586,z,1,0.5038,,600.7588,600.7591,,0,277,277,247,1,248,hafgın,,,,,6,harmonic,2,nw,z,,,,,,,
,,,,,,,,,,,Arda,001,2023-11-08_13h09.58.364,vowel_harmony,2023.2.3,Win32,59.98440405,600.7602,601.7602,,,,,,,,,,,,,,,,,,,,,,,,,,601.7603,602.3105,m,1,0.5185,,602.3106,602.3109,,0,278,278,79,1,80,durum,6783,308.1926,6431,0.703,5,harmonic,1.7,word,m,,,,,,,
,,,,,,,,,,,Arda,001,2023-11-08_13h09.58.364,vowel_harmony,2023.2.3,Win32,59.98440405,602.3121,603.3114,,,,,,,,,,,,,,,,,,,,,,,,,,603.3115,603.9286,m,1,0.5865,,603.9289,603.9292,,0,279,279,159,1,160,vakit,3476,157.9357,3298,0.3605,5,notharmonic,1.65,word,m,,,,,,,
,,,,,,,,,,,Arda,001,2023-11-08_13h09.58.364,vowel_harmony,2023.2.3,Win32,59.98440405,603.9302,604.9297,,,,,,,,,,,,,,,,,,,,,,,,,,604.9299,605.5639,z,1,0.6056,,605.5641,605.5643,,0,280,280,254,1,255,millek,,,,,6,harmonic,1.8,nw,z,,,,,,,
,,,,,,,,,,,Arda,001,2023-11-08_13h09.58.364,vowel_harmony,2023.2.3,Win32,59.98440405,605.5656,606.5646,,,,,,,,,,,,,,,,,,,,,,,,,,606.5647,607.2991,z,1,0.7034,,607.2992,607.2994,,0,281,281,295,1,296,haylin,,,,,6,notharmonic,1.8,nw,z,,,,,,,
,,,,,,,,,,,Arda,001,2023-11-08_13h09.58.364,vowel_harmony,2023.2.3,Win32,59.98440405,607.3007,608.3,,,,,,,,,,,,,,,,,,,,,,,,,,608.3001,609.0831,z,1,0.7504,,609.0831,609.0832,,0,282,282,306,1,307,otet,,,,,4,notharmonic,1.95,nw,z,,,,,,,
,,,,,,,,,,,Arda,001,2023-11-08_13h09.58.364,vowel_harmony,2023.2.3,Win32,59.98440405,609.0838,610.0854,,,,,,,,,,,,,,,,,,,,,,,,,,610.0854,610.6022,z,1,0.4912,,610.6025,610.6028,,0,283,283,214,1,215,vecü,,,,,4,harmonic,1.95,nw,z,,,,,,,
,,,,,,,,,,,Arda,001,2023-11-08_13h09.58.364,vowel_harmony,2023.2.3,Win32,59.98440405,610.6039,611.6034,,,,,,,,,,,,,,,,,,,,,,,,,,611.6035,612.2873,m,1,0.6603,,612.2875,612.2877,,0,284,284,140,1,141,sahil,481,21.8547,443,0.0484,5,notharmonic,1.45,word,m,,,,,,,
,,,,,,,,,,,Arda,001,2023-11-08_13h09.58.364,vowel_harmony,2023.2.3,Win32,59.98440405,612.2887,613.2885,,,,,,,,,,,,,,,,,,,,,,,,,,613.2885,613.9888,z,1,0.67,,613.9889,613.9891,,0,285,285,201,1,202,ergiy,,,,,5,harmonic,1.85,nw,z,,,,,,,
,,,,,,,,,,,Arda,001,2023-11-08_13h09.58.364,vowel_harmony,2023.2.3,Win32,59.98440405,613.9899,614.9901,,,,,,,,,,,,,,,,,,,,,,,,,,614.9902,615.6741,m,1,0.658,,615.6742,615.6745,,0,286,286,148,1,149,selam,1868,84.8745,1764,0.1928,5,notharmonic,1.35,word,m,,,,,,,
,,,,,,,,,,,Arda,001,2023-11-08_13h09.58.364,vowel_harmony,2023.2.3,Win32,59.98440405,615.6757,616.6747,,,,,,,,,,,,,,,,,,,,,,,,,,616.6748,617.3093,m,1,0.6061,,617.3094,617.3097,,0,287,287,62,1,63,cümle,1911,86.8283,1765,0.193,5,harmonic,1.85,word,m,,,,,,,
,,,,,,,,,,,Arda,001,2023-11-08_13h09.58.364,vowel_harmony,2023.2.3,Win32,59.98440405,617.3107,618.31,,,,,,,,,,,,,,,,,,,,,,,,,,618.3101,618.9772,z,1,0.6354,,618.9774,618.9777,,0,288,288,278,1,279,sekon,,,,,5,notharmonic,1.85,nw,z,,,,,,,
,,,,,,,,,,,Arda,001,2023-11-08_13h09.58.364,vowel_harmony,2023.2.3,Win32,59.98440405,618.9793,619.9785,,,,,,,,,,,,,,,,,,,,,,,,,,619.9785,620.4627,m,1,0.4537,,620.4628,620.4631,,0,289,289,11,1,12,umut,1988,90.3268,1818,0.1987,4,harmonic,1.55,word,m,,,,,,,
,,,,,,,,,,,Arda,001,2023-11-08_13h09.58.364,vowel_harmony,2023.2.3,Win32,59.98440405,620.4642,621.4632,,,,,,,,,,,,,,,,,,,,,,,,,,621.4633,622.0634,z,1,0.5686,,622.0635,622.0638,,0,290,290,239,1,240,şekik,,,,,5,harmonic,1.7,nw,z,,,,,,,
,,,,,,,,,,,Arda,001,2023-11-08_13h09.58.364,vowel_harmony,2023.2.3,Win32,59.98440405,622.0648,623.0645,,,,,,,,,,,,,,,,,,,,,,,,,,623.0647,623.7976,z,1,0.7096,,623.7977,623.7977,,0,291,291,204,1,205,gerkez,,,,,6,harmonic,1.9,nw,z,,,,,,,
,,,,,,,,,,,Arda,001,2023-11-08_13h09.58.364,vowel_harmony,2023.2.3,Win32,59.98440405,623.7979,624.7988,,,,,,,,,,,,,,,,,,,,,,,,,,624.7988,625.4493,m,1,0.6223,,625.4493,625.4493,,0,292,292,23,1,24,kurum,986,44.7999,882,0.0964,5,harmonic,1.75,word,m,,,,,,,
,,,,,,,,,,,Arda,001,2023-11-08_13h09.58.364,vowel_harmony,2023.2.3,Win32,59.98440405,625.45,626.4504,,,,,,,,,,,,,,,,,,,,,,,,,,626.4505,627.5013,m,1,1.0184,,627.5013,627.5015,,0,293,293,100,1,101,düşman,1065,48.3894,962,0.1052,6,notharmonic,1.85,word,m,,,,,,,
,,,,,,,,,,,Arda,001,2023-11-08_13h09.58.364,vowel_harmony,2023.2.3,Win32,59.98440405,627.5018,628.5025,,,,,,,,,,,,,,,,,,,,,,,,,,628.5025,629.0863,z,1,0.5536,,629.0863,629.0864,,0,294,294,246,1,247,orkın,,,,,5,harmonic,1.9,nw,z,,,,,,,
,,,,,,,,,,,Arda,001,2023-11-08_13h09.58.364,vowel_harmony,2023.2.3,Win32,59.98440405,629.0868,630.0873,,,,,,,,,,,,,,,,,,,,,,,,,,630.0874,630.7221,z,1,0.6096,,630.7222,630.7225,,0,295,295,271,1,272,mimal,,,,,5,notharmonic,1.8,nw,z,,,,,,,
,,,,,,,,,,,Arda,001,2023-11-08_13h09.58.364,vowel_harmony,2023.2.3,Win32,59.98440405,630.7233,631.7224,,,,,,,,,,,,,,,,,,,,,,,,,,631.7224,632.5073,m,1,0.7517,,632.5074,632.5077,,0,296,296,101,1,102,imza,1358,61.7021,1253,0.137,4,notharmonic,1.65,word,m,,,,,,,
,,,,,,,,,,,Arda,001,2023-11-08_13h09.58.364,vowel_harmony,2023.2.3,Win32,59.98440405,632.5086,633.5073,,,,,,,,,,,,,,,,,,,,,,,,,,633.5073,634.2415,m,1,0.7071,,634.2415,634.2416,,0,297,297,33,1,34,moda,1381,62.7472,1231,0.1346,4,harmonic,1.55,word,m,,,,,,,
,,,,,,,,,,,Arda,001,2023-11-08_13h09.58.364,vowel_harmony,2023.2.3,Win32,59.98440405,634.2421,635.2425,,,,,,,,,,,,,,,,,,,,,,,,,,635.2425,635.7763,m,1,0.5011,,635.7763,635.7763,,0,298,298,104,1,105,cevap,5232,237.7213,4822,0.5271,5,notharmonic,1.85,word,m,,,,,,,
,,,,,,,,,,,Arda,001,2023-11-08_13h09.58.364,vowel_harmony,2023.2.3,Win32,59.98440405,635.7767,636.7775,,,,,,,,,,,,,,,,,,,,,,,,,,636.7775,637.4628,m,1,0.6626,,637.463,637.4632,,0,299,299,24,1,25,yorgun,1153,52.3877,1108,0.1211,6,harmonic,1.55,word,m,,,,,,,
,,,,,,,,,,,Arda,001,2023-11-08_13h09.58.364,vowel_harmony,2023.2.3,Win32,59.98440405,637.4641,638.463,,,,,,,,,,,,,,,,,,,,,,,,,,638.4632,639.164,m,1,0.6737,,639.1642,639.1645,,0,300,300,78,1,79,ulusal,1551,70.4713,1355,0.1481,6,harmonic,1.75,word,m,,,,,,,
,,,,,,,,,,,Arda,001,2023-11-08_13h09.58.364,vowel_harmony,2023.2.3,Win32,59.98440405,639.1654,640.1649,,,,,,,,,,,,,,,,,,,,,,,,,,640.165,640.8655,z,1,0.6686,,640.8656,640.8659,,0,301,301,355,1,356,adül,,,,,4,notharmonic,1.85,nw,z,,,,,,,
,,,,,,,,,,,Arda,001,2023-11-08_13h09.58.364,vowel_harmony,2023.2.3,Win32,59.98440405,640.8669,641.8669,,,,,,,,,,,,,,,,,,,,,,,,,,641.8671,642.8845,m,1,0.9902,,642.8847,642.8851,,0,302,302,55,1,56,akıl,2208,100.3228,2004,0.2191,4,harmonic,1,word,m,,,,,,,
,,,,,,,,,,,Arda,001,2023-11-08_13h09.58.364,vowel_harmony,2023.2.3,Win32,59.98440405,642.8865,643.8852,,,,,,,,,,,,,,,,,,,,,,,,,,643.8854,644.9024,m,1,0.9957,,644.9025,644.9026,,0,303,303,28,1,29,parlak,1142,51.888,1088,0.1189,6,harmonic,1.7,word,m,,,,,,,
,,,,,,,,,,,Arda,001,2023-11-08_13h09.58.364,vowel_harmony,2023.2.3,Win32,59.98440405,644.9035,645.9042,,,,,,,,,,,,,,,,,,,,,,,,,,645.9043,646.6539,z,1,0.7277,,646.6539,646.654,,0,304,304,249,1,250,hurıt,,,,,5,harmonic,1.95,nw,z,,,,,,,
,,,,,,,,,,,Arda,001,2023-11-08_13h09.58.364,vowel_harmony,2023.2.3,Win32,59.98440405,646.6549,647.6559,,,,,,,,,,,,,,,,,,,,,,,,,,647.656,648.2898,m,1,0.6026,,648.2899,648.2906,,0,305,305,102,1,103,esas,1965,89.2818,1795,0.1962,4,notharmonic,1.75,word,m,,,,,,,
,,,,,,,,,,,Arda,001,2023-11-08_13h09.58.364,vowel_harmony,2023.2.3,Win32,59.98440405,648.2918,649.2915,,,,,,,,,,,,,,,,,,,,,,,,,,649.2915,650.0751,m,1,0.7532,,650.0751,650.0754,,0,306,306,107,1,108,merak,5806,263.8016,5524,0.6039,5,notharmonic,1.65,word,m,,,,,,,
,,,,,,,,,,,Arda,001,2023-11-08_13h09.58.364,vowel_harmony,2023.2.3,Win32,59.98440405,650.0764,651.0759,,,,,,,,,,,,,,,,,,,,,,,,,,651.076,651.542,m,1,0.4412,,651.542,651.5421,,0,307,307,45,1,46,bilgi,5981,271.7529,5353,0.5852,5,harmonic,1.5,word,m,,,,,,,
,,,,,,,,,,,Arda,001,2023-11-08_13h09.58.364,vowel_harmony,2023.2.3,Win32,59.98440405,651.5424,652.5439,,,,,,,,,,,,,,,,,,,,,,,,,,652.544,653.0117,m,1,0.44,,653.0118,653.0121,,0,308,308,49,1,50,şeker,4708,213.9128,4170,0.4559,5,harmonic,1.6,word,m,,,,,,,
,,,,,,,,,,,Arda,001,2023-11-08_13h09.58.364,vowel_harmony,2023.2.3,Win32,59.98440405,653.0131,654.0121,,,,,,,,,,,,,,,,,,,,,,,,,,654.0122,654.8463,z,1,0.8105,,654.8463,654.8466,,0,309,309,231,1,232,norgun,,,,,6,harmonic,1.75,nw,z,,,,,,,
,,,,,,,,,,,Arda,001,2023-11-08_13h09.58.364,vowel_harmony,2023.2.3,Win32,59.98440405,654.8475,655.8473,,,,,,,,,,,,,,,,,,,,,,,,,,655.8475,656.498,z,1,0.6205,,656.4982,656.4984,,0,310,310,233,1,234,devpi,,,,,5,harmonic,1.8,nw,z,,,,,,,
,,,,,,,,,,,Arda,001,2023-11-08_13h09.58.364,vowel_harmony,2023.2.3,Win32,59.98440405,656.4993,657.4982,,,,,,,,,,,,,,,,,,,,,,,,,,657.4983,658.1326,z,1,0.6024,,658.1327,658.1331,,0,311,311,267,1,268,nokuma,,,,,6,harmonic,1.75,nw,z,,,,,,,
,,,,,,,,,,,Arda,001,2023-11-08_13h09.58.364,vowel_harmony,2023.2.3,Win32,59.98440405,658.134,659.1339,,,,,,,,,,,,,,,,,,,,,,,,,,659.1341,659.8681,z,1,0.7041,,659.8683,659.8685,,0,312,312,212,1,213,ortat,,,,,5,harmonic,1.7,nw,z,,,,,,,
,,,,,,,,,,,Arda,001,2023-11-08_13h09.58.364,vowel_harmony,2023.2.3,Win32,59.98440405,659.8696,660.8691,,,,,,,,,,,,,,,,,,,,,,,,,,660.8691,661.6194,z,1,0.7234,,661.6194,661.6197,,0,313,313,183,1,184,orkın,,,,,5,harmonic,1.9,nw,z,,,,,,,
,,,,,,,,,,,Arda,001,2023-11-08_13h09.58.364,vowel_harmony,2023.2.3,Win32,59.98440405,661.6206,662.621,,,,,,,,,,,,,,,,,,,,,,,,,,662.6212,663.3041,z,1,0.6512,,663.3041,663.3042,,0,314,314,312,1,313,şahmin,,,,,6,notharmonic,1.8,nw,z,,,,,,,
,,,,,,,,,,,Arda,001,2023-11-08_13h09.58.364,vowel_harmony,2023.2.3,Win32,59.98440405,663.3047,664.3056,,,,,,,,,,,,,,,,,,,,,,,,,,664.3057,664.8723,z,1,0.5346,,664.8724,664.8726,,0,315,315,353,1,354,ikno,,,,,4,notharmonic,1.95,nw,z,,,,,,,
,,,,,,,,,,,Arda,001,2023-11-08_13h09.58.364,vowel_harmony,2023.2.3,Win32,59.98440405,664.8733,665.8741,,,,,,,,,,,,,,,,,,,,,,,,,,665.8742,667.6258,m,1,1.7213,,667.6259,667.6262,,0,316,316,3,1,4,minik,2916,132.4915,2594,0.2836,5,harmonic,1.6,word,m,,,,,,,
,,,,,,,,,,,Arda,001,2023-11-08_13h09.58.364,vowel_harmony,2023.2.3,Win32,59.98440405,667.6272,668.627,,,,,,,,,,,,,,,,,,,,,,,,,,668.6271,669.2609,m,1,0.6035,,669.2611,669.2613,,0,317,317,4,1,5,metre,1156,52.5241,1015,0.111,5,harmonic,1.7,word,m,,,,,,,
,,,,,,,,,,,Arda,001,2023-11-08_13h09.58.364,vowel_harmony,2023.2.3,Win32,59.98440405,669.2623,670.2622,,,,,,,,,,,,,,,,,,,,,,,,,,670.2624,670.7121,m,0,0.4267,,670.7124,670.7125,,0,318,318,275,1,276,tahçe,,,,,5,notharmonic,1.95,nw,z,,,,,,,
,,,,,,,,,,,Arda,001,2023-11-08_13h09.58.364,vowel_harmony,2023.2.3,Win32,59.98440405,670.7138,671.7133,,,,,,,,,,,,,,,,,,,,,,,,,,671.7134,672.7849,z,1,1.0497,,672.785,672.7852,,0,319,319,357,1,358,işarek,,,,,6,notharmonic,1.95,nw,z,,,,,,,
,,,,,,,,,,,Arda,001,2023-11-08_13h09.58.364,vowel_harmony,2023.2.3,Win32,59.98440405,672.7858,673.782,,,,,,,,,,,,,,,,,,,,,,,,,,673.7822,674.366,z,1,0.5537,,674.366,674.3663,,0,320,320,272,1,273,daken,,,,,5,notharmonic,1.8,nw,z,,,,,,,
,,,,,,,,,,,Arda,001,2023-11-08_13h09.58.364,vowel_harmony,2023.2.3,Win32,59.98440405,674.3672,675.3658,,,,,,,,,,,,,,,,,,,,,,,,,,675.3658,676.935,m,1,1.546,,676.9351,676.9355,,0,321,321,37,1,38,hayvan,2363,107.3653,1894,0.2071,6,harmonic,1.5,word,m,,,,,,,
,,,,,,,,,,,Arda,001,2023-11-08_13h09.58.364,vowel_harmony,2023.2.3,Win32,59.98440405,676.9367,677.936,,,,,,,,,,,,,,,,,,,,,,,,,,677.9361,678.5365,m,1,0.5696,,678.5367,678.537,,0,322,322,15,1,16,hayat,7922,359.9443,7314,0.7996,5,harmonic,1.9,word,m,,,,,,,
,,,,,,,,,,,Arda,001,2023-11-08_13h09.58.364,vowel_harmony,2023.2.3,Win32,59.98440405,678.5381,679.5379,,,,,,,,,,,,,,,,,,,,,,,,,,679.538,680.2384,m,1,0.6689,,680.2385,680.2387,,0,323,323,115,1,116,saniye,1088,49.4344,984,0.1076,6,notharmonic,1.35,word,m,,,,,,,
,,,,,,,,,,,Arda,001,2023-11-08_13h09.58.364,vowel_harmony,2023.2.3,Win32,59.98440405,680.2401,681.2396,,,,,,,,,,,,,,,,,,,,,,,,,,681.2397,681.923,z,1,0.6539,,681.9231,681.9233,,0,324,324,262,1,263,sauk,,,,,4,harmonic,1.85,nw,z,,,,,,,
,,,,,,,,,,,Arda,001,2023-11-08_13h09.58.364,vowel_harmony,2023.2.3,Win32,59.98440405,681.9242,682.9233,,,,,,,,,,,,,,,,,,,,,,,,,,682.9234,684.6428,z,1,1.688,,684.6429,684.6432,,0,325,325,253,1,254,meslet,,,,,6,harmonic,1.85,nw,z,,,,,,,
,,,,,,,,,,,Arda,001,2023-11-08_13h09.58.364,vowel_harmony,2023.2.3,Win32,59.98440405,684.6441,685.644,,,,,,,,,,,,,,,,,,,,,,,,,,685.644,686.7949,m,1,1.124,,686.795,686.7952,,0,326,326,168,1,169,kilo,3389,153.9827,2646,0.2893,4,notharmonic,1.65,word,m,,,,,,,
,,,,,,,,,,,Arda,001,2023-11-08_13h09.58.364,vowel_harmony,2023.2.3,Win32,59.98440405,686.7962,687.7959,,,,,,,,,,,,,,,,,,,,,,,,,,687.7959,688.5128,m,1,0.6846,,688.5129,688.5131,,0,327,327,119,1,120,kulüp,649,29.488,467,0.0511,5,notharmonic,1.4,word,m,,,,,,,
,,,,,,,,,,,Arda,001,2023-11-08_13h09.58.364,vowel_harmony,2023.2.3,Win32,59.98440405,688.5139,689.5144,,,,,,,,,,,,,,,,,,,,,,,,,,689.5145,690.9488,m,1,1.4033,,690.949,690.9492,,0,328,328,48,1,49,teşvik,932,42.3464,867,0.0948,6,harmonic,1.8,word,m,,,,,,,
,,,,,,,,,,,Arda,001,2023-11-08_13h09.58.364,vowel_harmony,2023.2.3,Win32,59.98440405,690.9504,691.9502,,,,,,,,,,,,,,,,,,,,,,,,,,691.9503,692.6176,z,1,0.6411,,692.6177,692.618,,0,329,329,232,1,233,kanur,,,,,5,harmonic,1.7,nw,z,,,,,,,
,,,,,,,,,,,Arda,001,2023-11-08_13h09.58.364,vowel_harmony,2023.2.3,Win32,59.98440405,692.6189,693.6186,,,,,,,,,,,,,,,,,,,,,,,,,,693.6186,694.2188,m,1,0.5725,,694.2189,694.2193,,0,330,330,161,1,162,komik,1617,73.4701,1506,0.1646,5,notharmonic,1.75,word,m,,,,,,,
,,,,,,,,,,,Arda,001,2023-11-08_13h09.58.364,vowel_harmony,2023.2.3,Win32,59.98440405,694.2205,695.219,,,,,,,,,,,,,,,,,,,,,,,,,,695.219,695.8874,z,1,0.6357,,695.8875,695.8878,,0,331,331,293,1,294,esnan,,,,,5,notharmonic,1.85,nw,z,,,,,,,
,,,,,,,,,,,Arda,001,2023-11-08_13h09.58.364,vowel_harmony,2023.2.3,Win32,59.98440405,695.8888,696.888,,,,,,,,,,,,,,,,,,,,,,,,,,696.8884,697.5054,m,1,0.5852,,697.5055,697.5057,,0,332,332,167,1,168,adalet,1611,73.1975,1388,0.1517,6,notharmonic,1.65,word,m,,,,,,,
,,,,,,,,,,,Arda,001,2023-11-08_13h09.58.364,vowel_harmony,2023.2.3,Win32,59.98440405,697.5066,698.5065,,,,,,,,,,,,,,,,,,,,,,,,,,698.5066,699.1404,z,1,0.6052,,699.1406,699.1408,,0,333,333,299,1,300,fihal,,,,,5,notharmonic,1.95,nw,z,,,,,,,
,,,,,,,,,,,Arda,001,2023-11-08_13h09.58.364,vowel_harmony,2023.2.3,Win32,59.98440405,699.142,700.1413,,,,,,,,,,,,,,,,,,,,,,,,,,700.1413,700.8255,m,1,0.6578,,700.8256,700.8259,,0,334,334,65,1,66,fikir,2552,115.9528,2413,0.2638,5,harmonic,1.9,word,m,,,,,,,
,,,,,,,,,,,Arda,001,2023-11-08_13h09.58.364,vowel_harmony,2023.2.3,Win32,59.98440405,700.8268,701.8267,,,,,,,,,,,,,,,,,,,,,,,,,,701.8269,702.5941,m,1,0.7422,,702.5943,702.5945,,0,335,335,130,1,131,hamile,1075,48.8437,877,0.0959,6,notharmonic,1.5,word,m,,,,,,,
,,,,,,,,,,,Arda,001,2023-11-08_13h09.58.364,vowel_harmony,2023.2.3,Win32,59.98440405,702.5958,703.5948,,,,,,,,,,,,,,,,,,,,,,,,,,703.595,704.262,z,1,0.6361,,704.2623,704.2624,,0,336,336,351,1,352,seğlık,,,,,6,notharmonic,1.9,nw,z,,,,,,,
,,,,,,,,,,,Arda,001,2023-11-08_13h09.58.364,vowel_harmony,2023.2.3,Win32,59.98440405,704.2636,705.2637,,,,,,,,,,,,,,,,,,,,,,,,,,705.2638,705.9476,z,1,0.6541,,705.9478,705.948,,0,337,337,340,1,341,minya,,,,,5,notharmonic,1.95,nw,z,,,,,,,
,,,,,,,,,,,Arda,001,2023-11-08_13h09.58.364,vowel_harmony,2023.2.3,Win32,59.98440405,705.9489,706.9484,,,,,,,,,,,,,,,,,,,,,,,,,,706.9486,708.3664,z,1,1.3864,,708.3666,708.3668,,0,338,338,266,1,267,düştön,,,,,6,harmonic,1.9,nw,z,,,,,,,
,,,,,,,,,,,Arda,001,2023-11-08_13h09.58.364,vowel_harmony,2023.2.3,Win32,59.98440405,708.3678,709.3673,,,,,,,,,,,,,,,,,,,,,,,,,,709.3674,710.0182,z,1,0.6201,,710.0183,710.0186,,0,339,339,274,1,275,pisan,,,,,5,notharmonic,1.75,nw,z,,,,,,,
,,,,,,,,,,,Arda,001,2023-11-08_13h09.58.364,vowel_harmony,2023.2.3,Win32,59.98440405,710.0199,711.0192,,,,,,,,,,,,,,,,,,,,,,,,,,711.0193,711.6408,z,1,0.5977,,711.6408,711.6412,,0,340,340,291,1,292,mepan,,,,,5,notharmonic,1.75,nw,z,,,,,,,
,,,,,,,,,,,Arda,001,2023-11-08_13h09.58.364,vowel_harmony,2023.2.3,Win32,59.98440405,711.642,712.6378,,,,,,,,,,,,,,,,,,,,,,,,,,712.6379,713.3046,m,1,0.6417,,713.3047,713.305,,0,341,341,13,1,14,nokta,2085,94.7341,1939,0.212,5,harmonic,1.5,word,m,,,,,,,
,,,,,,,,,,,Arda,001,2023-11-08_13h09.58.364,vowel_harmony,2023.2.3,Win32,59.98440405,713.3059,714.3058,,,,,,,,,,,,,,,,,,,,,,,,,,714.3058,714.9399,z,1,0.6058,,714.94,714.9404,,0,342,342,241,1,242,porlam,,,,,6,harmonic,2,nw,z,,,,,,,
,,,,,,,,,,,Arda,001,2023-11-08_13h09.58.364,vowel_harmony,2023.2.3,Win32,59.98440405,714.9415,715.9482,,,,,,,,,,,,,,,,,,,,,,,,,,715.9483,716.7915,z,1,0.8194,,716.7917,716.7919,,0,343,343,260,1,261,yarlam,,,,,6,harmonic,1.75,nw,z,,,,,,,
,,,,,,,,,,,Arda,001,2023-11-08_13h09.58.364,vowel_harmony,2023.2.3,Win32,59.98440405,716.7927,717.7927,,,,,,,,,,,,,,,,,,,,,,,,,,717.7928,718.6934,m,1,0.8706,,718.6936,718.6938,,0,344,344,66,1,67,sanık,768,34.8949,699,0.0764,5,harmonic,1.85,word,m,,,,,,,
,,,,,,,,,,,Arda,001,2023-11-08_13h09.58.364,vowel_harmony,2023.2.3,Win32,59.98440405,718.6947,719.6946,,,,,,,,,,,,,,,,,,,,,,,,,,719.6947,720.8625,z,1,1.1375,,720.8626,720.8628,,0,345,345,329,1,330,taif,,,,,4,notharmonic,1.8,nw,z,,,,,,,
,,,,,,,,,,,Arda,001,2023-11-08_13h09.58.364,vowel_harmony,2023.2.3,Win32,59.98440405,720.8639,721.8634,,,,,,,,,,,,,,,,,,,,,,,,,,721.8635,723.1388,z,1,1.2528,,723.1389,723.1391,,0,346,346,347,1,348,tekram,,,,,6,notharmonic,1.95,nw,z,,,,,,,
,,,,,,,,,,,Arda,001,2023-11-08_13h09.58.364,vowel_harmony,2023.2.3,Win32,59.98440405,723.1399,724.1323,,,,,,,,,,,,,,,,,,,,,,,,,,724.1324,724.7997,z,1,0.6362,,724.7998,724.8002,,0,347,347,213,1,214,kaun,,,,,4,harmonic,1.7,nw,z,,,,,,,
,,,,,,,,,,,Arda,001,2023-11-08_13h09.58.364,vowel_harmony,2023.2.3,Win32,59.98440405,724.8013,725.8006,,,,,,,,,,,,,,,,,,,,,,,,,,725.8007,726.4679,m,1,0.6381,,726.4679,726.4682,,0,348,348,53,1,54,gelir,7578,344.3143,7014,0.7668,5,harmonic,1.4,word,m,,,,,,,
,,,,,,,,,,,Arda,001,2023-11-08_13h09.58.364,vowel_harmony,2023.2.3,Win32,59.98440405,726.4693,727.4685,,,,,,,,,,,,,,,,,,,,,,,,,,727.4685,728.7371,z,1,1.237,,728.7372,728.7376,,0,349,349,339,1,340,asmel,,,,,5,notharmonic,1.95,nw,z,,,,,,,
,,,,,,,,,,,Arda,001,2023-11-08_13h09.58.364,vowel_harmony,2023.2.3,Win32,59.98440405,728.7386,729.7374,,,,,,,,,,,,,,,,,,,,,,,,,,729.7374,730.3549,z,1,0.5867,,730.3552,730.3554,,0,350,350,215,1,216,aydo,,,,,4,harmonic,1.9,nw,z,,,,,,,
,,,,,,,,,,,Arda,001,2023-11-08_13h09.58.364,vowel_harmony,2023.2.3,Win32,59.98440405,730.3564,731.3562,,,,,,,,,,,,,,,,,,,,,,,,,,731.3563,732.1903,m,1,0.8028,,732.1905,732.1908,,0,351,351,116,1,117,daire,621,28.2158,503,0.055,5,notharmonic,1,word,m,,,,,,,
,,,,,,,,,,,Arda,001,2023-11-08_13h09.58.364,vowel_harmony,2023.2.3,Win32,59.98440405,732.192,733.1914,,,,,,,,,,,,,,,,,,,,,,,,,,733.1915,733.7592,z,1,0.5456,,733.7592,733.7596,,0,352,352,244,1,245,kaof,,,,,4,harmonic,1.9,nw,z,,,,,,,
,,,,,,,,,,,Arda,001,2023-11-08_13h09.58.364,vowel_harmony,2023.2.3,Win32,59.98440405,733.7605,734.7597,,,,,,,,,,,,,,,,,,,,,,,,,,734.7597,735.3769,m,1,0.5853,,735.377,735.3772,,0,353,353,173,1,174,sade,1193,54.2052,1114,0.1218,4,notharmonic,1.55,word,m,,,,,,,
,,,,,,,,,,,Arda,001,2023-11-08_13h09.58.364,vowel_harmony,2023.2.3,Win32,59.98440405,735.3782,736.3779,,,,,,,,,,,,,,,,,,,,,,,,,,736.378,737.0619,m,1,0.6543,,737.0621,737.0623,,0,354,354,73,1,74,millet,1658,75.3329,1508,0.1649,6,harmonic,1.7,word,m,,,,,,,
,,,,,,,,,,,Arda,001,2023-11-08_13h09.58.364,vowel_harmony,2023.2.3,Win32,59.98440405,737.0636,738.0629,,,,,,,,,,,,,,,,,,,,,,,,,,738.0629,739.0302,m,1,0.9373,,739.0304,739.0305,,0,355,355,58,1,59,ayak,2143,97.3694,1931,0.2111,4,harmonic,1,word,m,,,,,,,
,,,,,,,,,,,Arda,001,2023-11-08_13h09.58.364,vowel_harmony,2023.2.3,Win32,59.98440405,739.0315,740.0316,,,,,,,,,,,,,,,,,,,,,,,,,,740.0317,740.7152,z,1,0.6525,,740.7155,740.7157,,0,356,356,245,1,246,bıyan,,,,,5,harmonic,1.7,nw,z,,,,,,,
,,,,,,,,,,,Arda,001,2023-11-08_13h09.58.364,vowel_harmony,2023.2.3,Win32,59.98440405,740.7166,741.7164,,,,,,,,,,,,,,,,,,,,,,,,,,741.7164,742.5341,m,1,0.7856,,742.5342,742.5344,,0,357,357,59,1,60,köpek,1044,47.4352,901,0.0985,5,harmonic,1.75,word,m,,,,,,,
,,,,,,,,,,,Arda,001,2023-11-08_13h09.58.364,vowel_harmony,2023.2.3,Win32,59.98440405,742.5353,743.5348,,,,,,,,,,,,,,,,,,,,,,,,,,743.5348,744.2521,z,1,0.6889,,744.2522,744.2525,,0,358,358,248,1,249,şegim,,,,,5,harmonic,1.9,nw,z,,,,,,,
,,,,,,,,,,,Arda,001,2023-11-08_13h09.58.364,vowel_harmony,2023.2.3,Win32,59.98440405,744.2538,745.2534,,,,,,,,,,,,,,,,,,,,,,,,,,745.2534,745.9874,z,1,0.7055,,745.9876,745.9878,,0,359,359,317,1,318,mevul,,,,,5,notharmonic,1.95,nw,z,,,,,,,
,,,,,,,,,,,Arda,001,2023-11-08_13h09.58.364,vowel_harmony,2023.2.3,Win32,59.98440405,,,,,,,,,,,,,,,,,,,,,,,,,,,,,,,,,,,,,,,,,,,,,,,,,,,,,,,745.9896,748.4077,space,2.3961,