Welcome_screen.started,Welcome_screen.stopped,key_respwelcome.keys,key_respwelcome.rt,key_respwelcome.duration,intro_x.thisRepN,intro_x.thisTrialN,intro_x.thisN,intro_x.thisIndex,intro_x.ran,Introduction,participant,session,date,expName,psychopyVersion,OS,frameRate,Fixation.started,Fixation.stopped,Studypractice.started,Studypractice.stopped,key_respstudy.keys,key_respstudy.corr,key_respstudy.rt,key_respstudy.duration,rt,corr,Feedback.started,Feedback.stopped,practice_loop.thisRepN,practice_loop.thisTrialN,practice_loop.thisN,practice_loop.thisIndex,practice_loop.ran,item_nr_p,target_p,isHarmonic_p,target_cond_p,CorrAns_p,Instraction.started,Instraction.stopped,key_respınstraction.keys,key_respınstraction.rt,key_respınstraction.duration,TestTrial.started,TestTrial.stopped,key_respTest.keys,key_respTest.corr,key_respTest.rt,key_respTest.duration,Pause.started,Pause.stopped,key_resp_xx.keys,test_loop.thisRepN,test_loop.thisTrialN,test_loop.thisN,test_loop.thisIndex,test_loop.ran,item_nr,target,BlogFreq_A1,BlogFreqpm_A1,BlogCD_A1,BlogCDPc_A1,WordLength_A1,isHarmonic_A1,old20,target_cond,CorrAns,key_resp_xx.rt,key_resp_xx.duration,Goodbye_screen.started,Goodbye_screen.stopped,key_respgoodbye.keys,key_respgoodbye.rt,key_respgoodbye.duration
0.0303,1.5391,space,1.4905,,0,0,0,0,1,"Deneye hoş geldiniz,

Devam etmek için BOŞLUK tuşuna basınız.",ayşe,001,2023-11-07_23h11.50.066,vowel_harmony,2023.2.3,Win32,59.81576744,,,,,,,,,,,,,,,,,,,,,,,,,,,,,,,,,,,,,,,,,,,,,,,,,,,,,,,,,,,
1.5409,4.0378,space,2.48,,0,1,1,1,1,"Bu çalışma Valencia Üniversitesi kapsamında yürütülmektedir. Deneydeki göreviniz, ekrana çıkacak Türkçe sözcüklerin kelime olup olmadığını belirlemenizdir. Eğer sözcük gerçek bir kelime ise ""m"" tuşuna, değil ise ""z"" tuşuna basınız.   

Devam etmek için BOŞLUK tuşuna basınız.",ayşe,001,2023-11-07_23h11.50.066,vowel_harmony,2023.2.3,Win32,59.81576744,,,,,,,,,,,,,,,,,,,,,,,,,,,,,,,,,,,,,,,,,,,,,,,,,,,,,,,,,,,
4.0381,6.2214,space,2.1643,,0,2,2,2,1,"Her sözcük için en fazla iki saniyede cevap vermeniz beklenmektedir. Aksi takdirde deney bir sonraki sözcük ile devam eder. 
Bu çalışmada oldukça hızlı ve doğru cevaplama yapmanız beklenmektedir.

Devam etmek için BOŞLUK tuşuna basınız.",ayşe,001,2023-11-07_23h11.50.066,vowel_harmony,2023.2.3,Win32,59.81576744,,,,,,,,,,,,,,,,,,,,,,,,,,,,,,,,,,,,,,,,,,,,,,,,,,,,,,,,,,,
6.2217,10.0698,space,3.8253,,0,3,3,3,1,"Çalışmaya başlamadan önce ufak bir pratik yer almaktadır.
Kelimedir: ""m""
Kelime değildir: ""z""

Pratik teste başlamak için BOŞLUK tuşuna basınız. ",ayşe,001,2023-11-07_23h11.50.066,vowel_harmony,2023.2.3,Win32,59.81576744,,,,,,,,,,,,,,,,,,,,,,,,,,,,,,,,,,,,,,,,,,,,,,,,,,,,,,,,,,,
,,,,,,,,,,,ayşe,001,2023-11-07_23h11.50.066,vowel_harmony,2023.2.3,Win32,59.81576744,10.0828,11.0846,11.0849,20.4826,m,1,9.3754,,9.3754,1,20.483,21.9821,0,0,0,2,1,3,memur,notharmonic,word,m,,,,,,,,,,,,,,,,,,,,,,,,,,,,,,,,,,,,,
,,,,,,,,,,,ayşe,001,2023-11-07_23h11.50.066,vowel_harmony,2023.2.3,Win32,59.81576744,21.9837,22.9817,22.9817,28.0971,z,1,5.0953,,5.0953,1,28.0972,29.5967,0,1,1,14,1,15,pimer,harmonic,nw,z,,,,,,,,,,,,,,,,,,,,,,,,,,,,,,,,,,,,,
,,,,,,,,,,,ayşe,001,2023-11-07_23h11.50.066,vowel_harmony,2023.2.3,Win32,59.81576744,29.5971,30.5964,30.5964,33.4958,m,1,2.8789,,2.8789,1,33.4959,34.9955,0,2,2,3,1,4,ihlal,notharmonic,word,m,,,,,,,,,,,,,,,,,,,,,,,,,,,,,,,,,,,,,
,,,,,,,,,,,ayşe,001,2023-11-07_23h11.50.066,vowel_harmony,2023.2.3,Win32,59.81576744,34.996,35.9952,35.9952,37.7782,m,1,1.7683,,1.7683,1,37.7783,39.2778,0,3,3,0,1,1,ihale,notharmonic,word,m,,,,,,,,,,,,,,,,,,,,,,,,,,,,,,,,,,,,,
,,,,,,,,,,,ayşe,001,2023-11-07_23h11.50.066,vowel_harmony,2023.2.3,Win32,59.81576744,39.2782,40.2775,40.2776,41.2607,m,0,0.9626,,0.9626,0,41.2607,42.7603,0,4,4,10,1,11,mahne,notharmonic,nw,z,,,,,,,,,,,,,,,,,,,,,,,,,,,,,,,,,,,,,
,,,,,,,,,,,ayşe,001,2023-11-07_23h11.50.066,vowel_harmony,2023.2.3,Win32,59.81576744,42.7607,43.7602,43.7602,44.5102,m,1,0.7304,,0.7304,1,44.5102,46.0096,0,5,5,5,1,6,bahçe,notharmonic,word,m,,,,,,,,,,,,,,,,,,,,,,,,,,,,,,,,,,,,,
,,,,,,,,,,,ayşe,001,2023-11-07_23h11.50.066,vowel_harmony,2023.2.3,Win32,59.81576744,46.0101,47.0094,47.0094,47.8591,z,1,0.8294,,0.8294,1,47.8593,49.3587,0,6,6,8,1,9,tahip,notharmonic,nw,z,,,,,,,,,,,,,,,,,,,,,,,,,,,,,,,,,,,,,
,,,,,,,,,,,ayşe,001,2023-11-07_23h11.50.066,vowel_harmony,2023.2.3,Win32,59.81576744,49.3592,50.3585,50.3586,51.0084,m,1,0.6388,,0.6388,1,51.0084,52.508,0,7,7,7,1,8,oran,harmonic,word,m,,,,,,,,,,,,,,,,,,,,,,,,,,,,,,,,,,,,,
,,,,,,,,,,,ayşe,001,2023-11-07_23h11.50.066,vowel_harmony,2023.2.3,Win32,59.81576744,52.5084,53.5078,53.5078,54.4909,z,1,0.9646,,0.9646,1,54.4909,55.9905,0,8,8,9,1,10,orat,harmonic,nw,z,,,,,,,,,,,,,,,,,,,,,,,,,,,,,,,,,,,,,
,,,,,,,,,,,ayşe,001,2023-11-07_23h11.50.066,vowel_harmony,2023.2.3,Win32,59.81576744,55.9909,56.9904,56.9904,58.2067,z,1,1.1976,,1.1976,1,58.2068,59.7064,0,9,9,13,1,14,pilar,notharmonic,nw,z,,,,,,,,,,,,,,,,,,,,,,,,,,,,,,,,,,,,,
,,,,,,,,,,,ayşe,001,2023-11-07_23h11.50.066,vowel_harmony,2023.2.3,Win32,59.81576744,59.7067,60.7061,60.7061,61.8058,z,1,1.0785,,1.0785,1,61.806,63.3055,0,10,10,11,1,12,geki,harmonic,nw,z,,,,,,,,,,,,,,,,,,,,,,,,,,,,,,,,,,,,,
,,,,,,,,,,,ayşe,001,2023-11-07_23h11.50.066,vowel_harmony,2023.2.3,Win32,59.81576744,63.306,64.3053,64.3053,65.2884,m,1,0.9667,,0.9667,1,65.2884,66.788,0,11,11,1,1,2,veri,harmonic,word,m,,,,,,,,,,,,,,,,,,,,,,,,,,,,,,,,,,,,,
,,,,,,,,,,,ayşe,001,2023-11-07_23h11.50.066,vowel_harmony,2023.2.3,Win32,59.81576744,66.7884,67.7878,67.7878,68.571,z,1,0.7717,,0.7717,1,68.571,70.0711,0,12,12,15,1,16,mımal,harmonic,nw,z,,,,,,,,,,,,,,,,,,,,,,,,,,,,,,,,,,,,,
,,,,,,,,,,,ayşe,001,2023-11-07_23h11.50.066,vowel_harmony,2023.2.3,Win32,59.81576744,70.0716,71.0704,71.0705,71.7204,m,1,0.6321,,0.6321,1,71.7205,73.2198,0,13,13,6,1,7,pilot,notharmonic,word,m,,,,,,,,,,,,,,,,,,,,,,,,,,,,,,,,,,,,,
,,,,,,,,,,,ayşe,001,2023-11-07_23h11.50.066,vowel_harmony,2023.2.3,Win32,59.81576744,73.2204,74.2196,74.2196,74.8861,z,1,0.6453,,0.6453,1,74.8862,76.3858,0,14,14,12,1,13,ihlot,notharmonic,nw,z,,,,,,,,,,,,,,,,,,,,,,,,,,,,,,,,,,,,,
,,,,,,,,,,,ayşe,001,2023-11-07_23h11.50.066,vowel_harmony,2023.2.3,Win32,59.81576744,76.3862,77.3856,77.3856,78.052,z,0,0.6495,,0.6495,0,78.0521,79.5516,0,15,15,4,1,5,mimar,notharmonic,word,m,,,,,,,,,,,,,,,,,,,,,,,,,,,,,,,,,,,,,
,,,,,,,,,,,ayşe,001,2023-11-07_23h11.50.066,vowel_harmony,2023.2.3,Win32,59.81576744,,,,,,,,,,,,,,,,,,,,,,,79.5524,86.0008,space,6.4285,,,,,,,,,,,,,,,,,,,,,,,,,,,,,,,,,
,,,,,,,,,,,ayşe,001,2023-11-07_23h11.50.066,vowel_harmony,2023.2.3,Win32,59.81576744,86.0632,87.0166,,,,,,,,,,,,,,,,,,,,,,,,,,87.0169,87.95,z,1,0.903,,87.9502,87.9533,,0,0,0,193,1,194,yokın,,,,,5,harmonic,1.85,nw,z,,,,,,,
,,,,,,,,,,,ayşe,001,2023-11-07_23h11.50.066,vowel_harmony,2023.2.3,Win32,59.81576744,87.9536,88.9495,,,,,,,,,,,,,,,,,,,,,,,,,,88.9495,90.9488,,0,,,90.9489,90.9491,,0,1,1,104,1,105,cevap,5232,237.7213,4822,0.5271,5,notharmonic,1.85,word,m,,,,,,,
,,,,,,,,,,,ayşe,001,2023-11-07_23h11.50.066,vowel_harmony,2023.2.3,Win32,59.81576744,90.9593,91.9488,,,,,,,,,,,,,,,,,,,,,,,,,,91.9489,92.5821,z,1,0.6133,,92.5821,92.5822,,0,2,2,272,1,273,daken,,,,,5,notharmonic,1.8,nw,z,,,,,,,
,,,,,,,,,,,ayşe,001,2023-11-07_23h11.50.066,vowel_harmony,2023.2.3,Win32,59.81576744,92.5825,93.5818,,,,,,,,,,,,,,,,,,,,,,,,,,93.5818,94.2315,m,1,0.6253,,94.2316,94.2318,,0,3,3,15,1,16,hayat,7922,359.9443,7314,0.7996,5,harmonic,1.9,word,m,,,,,,,
,,,,,,,,,,,ayşe,001,2023-11-07_23h11.50.066,vowel_harmony,2023.2.3,Win32,59.81576744,94.2323,95.2313,,,,,,,,,,,,,,,,,,,,,,,,,,95.2313,95.8811,z,0,0.6309,,95.8813,95.8814,,0,4,4,66,1,67,sanık,768,34.8949,699,0.0764,5,harmonic,1.85,word,m,,,,,,,
,,,,,,,,,,,ayşe,001,2023-11-07_23h11.50.066,vowel_harmony,2023.2.3,Win32,59.81576744,95.8817,96.8808,,,,,,,,,,,,,,,,,,,,,,,,,,96.8809,98.3307,z,1,1.4296,,98.3308,98.3309,,0,5,5,198,1,199,yarbız,,,,,6,harmonic,1.95,nw,z,,,,,,,
,,,,,,,,,,,ayşe,001,2023-11-07_23h11.50.066,vowel_harmony,2023.2.3,Win32,59.81576744,98.3312,99.3305,,,,,,,,,,,,,,,,,,,,,,,,,,99.3306,100.4968,z,1,1.1476,,100.4969,100.497,,0,6,6,323,1,324,devak,,,,,5,notharmonic,1.75,nw,z,,,,,,,
,,,,,,,,,,,ayşe,001,2023-11-07_23h11.50.066,vowel_harmony,2023.2.3,Win32,59.81576744,100.4974,101.4973,,,,,,,,,,,,,,,,,,,,,,,,,,101.4975,102.1807,z,1,0.6569,,102.1809,102.1817,,0,7,7,324,1,325,pakeh,,,,,5,notharmonic,1.9,nw,z,,,,,,,
,,,,,,,,,,,ayşe,001,2023-11-07_23h11.50.066,vowel_harmony,2023.2.3,Win32,59.81576744,102.1822,103.1854,,,,,,,,,,,,,,,,,,,,,,,,,,103.1854,103.9801,z,1,0.7712,,103.9803,103.9809,,0,8,8,275,1,276,tahçe,,,,,5,notharmonic,1.95,nw,z,,,,,,,
,,,,,,,,,,,ayşe,001,2023-11-07_23h11.50.066,vowel_harmony,2023.2.3,Win32,59.81576744,103.9818,104.98,,,,,,,,,,,,,,,,,,,,,,,,,,104.9801,105.6964,z,1,0.6845,,105.6966,105.6972,,0,9,9,196,1,197,bilön,,,,,5,harmonic,1.9,nw,z,,,,,,,
,,,,,,,,,,,ayşe,001,2023-11-07_23h11.50.066,vowel_harmony,2023.2.3,Win32,59.81576744,105.6981,106.6961,,,,,,,,,,,,,,,,,,,,,,,,,,106.6963,107.6294,z,1,0.9016,,107.6296,107.6301,,0,10,10,304,1,305,annö,,,,,4,notharmonic,1.95,nw,z,,,,,,,
,,,,,,,,,,,ayşe,001,2023-11-07_23h11.50.066,vowel_harmony,2023.2.3,Win32,59.81576744,107.631,108.6347,,,,,,,,,,,,,,,,,,,,,,,,,,108.6347,109.1683,m,1,0.5172,,109.1685,109.1686,,0,11,11,178,1,179,dikkat,6230,283.0665,5888,0.6437,6,notharmonic,2.05,word,m,,,,,,,
,,,,,,,,,,,ayşe,001,2023-11-07_23h11.50.066,vowel_harmony,2023.2.3,Win32,59.81576744,109.1689,110.1619,,,,,,,,,,,,,,,,,,,,,,,,,,110.162,111.4619,z,1,1.2645,,111.4622,111.4627,,0,12,12,211,1,212,yarum,,,,,5,harmonic,1.75,nw,z,,,,,,,
,,,,,,,,,,,ayşe,001,2023-11-07_23h11.50.066,vowel_harmony,2023.2.3,Win32,59.81576744,111.4634,112.4616,,,,,,,,,,,,,,,,,,,,,,,,,,112.4617,113.5115,m,0,1.026,,113.5117,113.5121,,0,13,13,295,1,296,haylin,,,,,6,notharmonic,1.8,nw,z,,,,,,,
,,,,,,,,,,,ayşe,001,2023-11-07_23h11.50.066,vowel_harmony,2023.2.3,Win32,59.81576744,113.5129,114.5115,,,,,,,,,,,,,,,,,,,,,,,,,,114.5117,115.2611,m,1,0.7194,,115.2615,115.2619,,0,14,14,7,1,8,hizmet,3023,137.3531,2689,0.294,6,harmonic,1.75,word,m,,,,,,,
,,,,,,,,,,,ayşe,001,2023-11-07_23h11.50.066,vowel_harmony,2023.2.3,Win32,59.81576744,115.2625,116.261,,,,,,,,,,,,,,,,,,,,,,,,,,116.2611,117.4282,z,1,1.1326,,117.4284,117.4286,,0,15,15,318,1,319,yorgün,,,,,6,notharmonic,1.9,nw,z,,,,,,,
,,,,,,,,,,,ayşe,001,2023-11-07_23h11.50.066,vowel_harmony,2023.2.3,Win32,59.81576744,117.429,118.4269,,,,,,,,,,,,,,,,,,,,,,,,,,118.4269,119.4766,z,1,1.0264,,119.4768,119.4773,,0,16,16,205,1,206,kahay,,,,,5,harmonic,1.9,nw,z,,,,,,,
,,,,,,,,,,,ayşe,001,2023-11-07_23h11.50.066,vowel_harmony,2023.2.3,Win32,59.81576744,119.4782,120.4763,,,,,,,,,,,,,,,,,,,,,,,,,,120.4765,121.2428,z,1,0.7345,,121.2429,121.2434,,0,17,17,264,1,265,vepü,,,,,4,harmonic,2,nw,z,,,,,,,
,,,,,,,,,,,ayşe,001,2023-11-07_23h11.50.066,vowel_harmony,2023.2.3,Win32,59.81576744,121.2443,122.2425,,,,,,,,,,,,,,,,,,,,,,,,,,122.2427,122.859,m,1,0.5793,,122.8592,122.8596,,0,18,18,170,1,171,basit,3385,153.801,3177,0.3473,5,notharmonic,1.65,word,m,,,,,,,
,,,,,,,,,,,ayşe,001,2023-11-07_23h11.50.066,vowel_harmony,2023.2.3,Win32,59.81576744,122.8606,123.8589,,,,,,,,,,,,,,,,,,,,,,,,,,123.8591,124.7918,z,1,0.9027,,124.7919,124.7923,,0,19,19,210,1,211,şevci,,,,,5,harmonic,1.75,nw,z,,,,,,,
,,,,,,,,,,,ayşe,001,2023-11-07_23h11.50.066,vowel_harmony,2023.2.3,Win32,59.81576744,124.7936,125.7915,,,,,,,,,,,,,,,,,,,,,,,,,,125.7917,126.4648,m,1,0.6463,,126.4648,126.4649,,0,20,20,153,1,154,inşaat,432,19.6284,376,0.0411,6,notharmonic,1.6,word,m,,,,,,,
,,,,,,,,,,,ayşe,001,2023-11-07_23h11.50.066,vowel_harmony,2023.2.3,Win32,59.81576744,126.4653,127.4583,,,,,,,,,,,,,,,,,,,,,,,,,,127.4585,128.0914,z,1,0.6007,,128.0917,128.0922,,0,21,21,199,1,200,movu,,,,,4,harmonic,1.9,nw,z,,,,,,,
,,,,,,,,,,,ayşe,001,2023-11-07_23h11.50.066,vowel_harmony,2023.2.3,Win32,59.81576744,128.0928,129.0912,,,,,,,,,,,,,,,,,,,,,,,,,,129.0913,130.0911,m,1,0.9669,,130.0914,130.0917,,0,22,22,93,1,94,siyah,2944,133.7637,2527,0.2763,5,notharmonic,1.6,word,m,,,,,,,
,,,,,,,,,,,ayşe,001,2023-11-07_23h11.50.066,vowel_harmony,2023.2.3,Win32,59.81576744,130.0924,131.0905,,,,,,,,,,,,,,,,,,,,,,,,,,131.0906,131.7073,z,1,0.5844,,131.7078,131.7083,,0,23,23,206,1,207,bevek,,,,,5,harmonic,1.75,nw,z,,,,,,,
,,,,,,,,,,,ayşe,001,2023-11-07_23h11.50.066,vowel_harmony,2023.2.3,Win32,59.81576744,131.7088,132.7074,,,,,,,,,,,,,,,,,,,,,,,,,,132.7076,133.64,m,1,0.9047,,133.6402,133.6406,,0,24,24,116,1,117,daire,621,28.2158,503,0.055,5,notharmonic,1,word,m,,,,,,,
,,,,,,,,,,,ayşe,001,2023-11-07_23h11.50.066,vowel_harmony,2023.2.3,Win32,59.81576744,133.6415,134.6397,,,,,,,,,,,,,,,,,,,,,,,,,,134.6398,135.3905,z,1,0.7237,,135.3907,135.391,,0,25,25,352,1,353,yılden,,,,,6,notharmonic,1.8,nw,z,,,,,,,
,,,,,,,,,,,ayşe,001,2023-11-07_23h11.50.066,vowel_harmony,2023.2.3,Win32,59.81576744,135.3915,136.3897,,,,,,,,,,,,,,,,,,,,,,,,,,136.39,137.0392,m,1,0.6179,,137.0394,137.0398,,0,26,26,81,1,82,üretim,1593,72.3796,1283,0.1403,6,harmonic,1.6,word,m,,,,,,,
,,,,,,,,,,,ayşe,001,2023-11-07_23h11.50.066,vowel_harmony,2023.2.3,Win32,59.81576744,137.0406,138.0388,,,,,,,,,,,,,,,,,,,,,,,,,,138.0389,138.6403,m,1,0.5789,,138.6404,138.6404,,0,27,27,4,1,5,metre,1156,52.5241,1015,0.111,5,harmonic,1.7,word,m,,,,,,,
,,,,,,,,,,,ayşe,001,2023-11-07_23h11.50.066,vowel_harmony,2023.2.3,Win32,59.81576744,138.641,139.6385,,,,,,,,,,,,,,,,,,,,,,,,,,139.6386,140.4219,z,1,0.7463,,140.422,140.4225,,0,28,28,309,1,310,yorgen,,,,,6,notharmonic,1.9,nw,z,,,,,,,
,,,,,,,,,,,ayşe,001,2023-11-07_23h11.50.066,vowel_harmony,2023.2.3,Win32,59.81576744,140.4233,141.4216,,,,,,,,,,,,,,,,,,,,,,,,,,141.4218,141.9717,m,1,0.5233,,141.9719,141.9723,,0,29,29,0,1,1,sanat,3121,141.8059,2485,0.2717,5,harmonic,1.4,word,m,,,,,,,
,,,,,,,,,,,ayşe,001,2023-11-07_23h11.50.066,vowel_harmony,2023.2.3,Win32,59.81576744,141.973,142.9709,,,,,,,,,,,,,,,,,,,,,,,,,,142.9711,143.6042,m,1,0.5961,,143.6044,143.6048,,0,30,30,145,1,146,iddia,2430,110.4096,2295,0.2509,5,notharmonic,1.85,word,m,,,,,,,
,,,,,,,,,,,ayşe,001,2023-11-07_23h11.50.066,vowel_harmony,2023.2.3,Win32,59.81576744,143.6059,144.6039,,,,,,,,,,,,,,,,,,,,,,,,,,144.6039,145.2206,m,1,0.5893,,145.2207,145.221,,0,31,31,117,1,118,nasip,1069,48.5711,1042,0.1139,5,notharmonic,1.8,word,m,,,,,,,
,,,,,,,,,,,ayşe,001,2023-11-07_23h11.50.066,vowel_harmony,2023.2.3,Win32,59.81576744,145.222,146.2203,,,,,,,,,,,,,,,,,,,,,,,,,,146.2205,146.6201,m,0,0.3692,,146.6202,146.6207,,0,32,32,230,1,231,bikir,,,,,5,harmonic,1.75,nw,z,,,,,,,
,,,,,,,,,,,ayşe,001,2023-11-07_23h11.50.066,vowel_harmony,2023.2.3,Win32,59.81576744,146.6217,147.62,,,,,,,,,,,,,,,,,,,,,,,,,,147.6201,148.4199,z,1,0.7756,,148.4201,148.4206,,0,33,33,254,1,255,millek,,,,,6,harmonic,1.8,nw,z,,,,,,,
,,,,,,,,,,,ayşe,001,2023-11-07_23h11.50.066,vowel_harmony,2023.2.3,Win32,59.81576744,148.4214,149.4195,,,,,,,,,,,,,,,,,,,,,,,,,,149.4198,150.1693,m,1,0.7171,,150.1695,150.1699,,0,34,34,47,1,48,kaza,740,33.6227,679,0.0742,4,harmonic,1.85,word,m,,,,,,,
,,,,,,,,,,,ayşe,001,2023-11-07_23h11.50.066,vowel_harmony,2023.2.3,Win32,59.81576744,150.1711,151.1692,,,,,,,,,,,,,,,,,,,,,,,,,,151.1692,151.7858,z,1,0.5909,,151.786,151.7864,,0,35,35,283,1,284,fahe,,,,,4,notharmonic,1.95,nw,z,,,,,,,
,,,,,,,,,,,ayşe,001,2023-11-07_23h11.50.066,vowel_harmony,2023.2.3,Win32,59.81576744,151.7873,152.79,,,,,,,,,,,,,,,,,,,,,,,,,,152.7901,153.553,z,1,0.7295,,153.5532,153.5533,,0,36,36,186,1,187,habık,,,,,5,harmonic,1.9,nw,z,,,,,,,
,,,,,,,,,,,ayşe,001,2023-11-07_23h11.50.066,vowel_harmony,2023.2.3,Win32,59.81576744,153.5538,154.5517,,,,,,,,,,,,,,,,,,,,,,,,,,154.5518,156.218,z,1,1.6343,,156.2182,156.2186,,0,37,37,181,1,182,rapkı,,,,,5,harmonic,1.85,nw,z,,,,,,,
,,,,,,,,,,,ayşe,001,2023-11-07_23h11.50.066,vowel_harmony,2023.2.3,Win32,59.81576744,156.2196,157.2176,,,,,,,,,,,,,,,,,,,,,,,,,,157.2178,157.9022,m,1,0.6572,,157.9024,157.9026,,0,38,38,11,1,12,umut,1988,90.3268,1818,0.1987,4,harmonic,1.55,word,m,,,,,,,
,,,,,,,,,,,ayşe,001,2023-11-07_23h11.50.066,vowel_harmony,2023.2.3,Win32,59.81576744,157.9031,158.9006,,,,,,,,,,,,,,,,,,,,,,,,,,158.9007,159.6338,z,1,0.7014,,159.6339,159.6344,,0,39,39,197,1,198,ranar,,,,,5,harmonic,1.75,nw,z,,,,,,,
,,,,,,,,,,,ayşe,001,2023-11-07_23h11.50.066,vowel_harmony,2023.2.3,Win32,59.81576744,159.6353,160.6335,,,,,,,,,,,,,,,,,,,,,,,,,,160.6337,162.6331,,0,,,162.6334,162.6338,,0,40,40,190,1,191,reklen,,,,,6,harmonic,1.8,nw,z,,,,,,,
,,,,,,,,,,,ayşe,001,2023-11-07_23h11.50.066,vowel_harmony,2023.2.3,Win32,59.81576744,162.6347,163.6331,,,,,,,,,,,,,,,,,,,,,,,,,,163.6333,164.5497,z,1,0.8908,,164.5498,164.5502,,0,41,41,216,1,217,çeyret,,,,,6,harmonic,1.9,nw,z,,,,,,,
,,,,,,,,,,,ayşe,001,2023-11-07_23h11.50.066,vowel_harmony,2023.2.3,Win32,59.81576744,164.551,165.549,,,,,,,,,,,,,,,,,,,,,,,,,,165.5492,166.9208,m,1,1.3448,,166.9208,166.9209,,0,42,42,95,1,96,takip,4996,226.9984,4651,0.5084,5,notharmonic,1.55,word,m,,,,,,,
,,,,,,,,,,,ayşe,001,2023-11-07_23h11.50.066,vowel_harmony,2023.2.3,Win32,59.81576744,166.9301,167.9318,,,,,,,,,,,,,,,,,,,,,,,,,,167.932,168.7657,m,1,0.8076,,168.766,168.7664,,0,43,43,128,1,129,tatil,2152,97.7783,1865,0.2039,5,notharmonic,1.7,word,m,,,,,,,
,,,,,,,,,,,ayşe,001,2023-11-07_23h11.50.066,vowel_harmony,2023.2.3,Win32,59.81576744,168.7668,169.7649,,,,,,,,,,,,,,,,,,,,,,,,,,169.7651,170.2981,m,1,0.496,,170.2983,170.2987,,0,44,44,151,1,152,ateş,2108,95.7792,1803,0.1971,4,notharmonic,1.65,word,m,,,,,,,
,,,,,,,,,,,ayşe,001,2023-11-07_23h11.50.066,vowel_harmony,2023.2.3,Win32,59.81576744,170.2997,171.2977,,,,,,,,,,,,,,,,,,,,,,,,,,171.2977,171.8976,m,1,0.5683,,171.8978,171.8981,,0,45,45,171,1,172,reklam,1565,71.1074,1244,0.136,6,notharmonic,1.9,word,m,,,,,,,
,,,,,,,,,,,ayşe,001,2023-11-07_23h11.50.066,vowel_harmony,2023.2.3,Win32,59.81576744,171.8992,172.8975,,,,,,,,,,,,,,,,,,,,,,,,,,172.8977,173.3975,z,1,0.4634,,173.3976,173.398,,0,46,46,240,1,241,hoga,,,,,4,harmonic,1.75,nw,z,,,,,,,
,,,,,,,,,,,ayşe,001,2023-11-07_23h11.50.066,vowel_harmony,2023.2.3,Win32,59.81576744,173.399,174.3968,,,,,,,,,,,,,,,,,,,,,,,,,,174.397,175.0803,m,1,0.6574,,175.0804,175.0807,,0,47,47,92,1,93,sahne,1380,62.7017,1238,0.1353,5,notharmonic,1.65,word,m,,,,,,,
,,,,,,,,,,,ayşe,001,2023-11-07_23h11.50.066,vowel_harmony,2023.2.3,Win32,59.81576744,175.0818,176.0798,,,,,,,,,,,,,,,,,,,,,,,,,,176.08,177.7857,z,1,1.6789,,177.7857,177.7859,,0,48,48,256,1,257,yaruza,,,,,6,harmonic,1.9,nw,z,,,,,,,
,,,,,,,,,,,ayşe,001,2023-11-07_23h11.50.066,vowel_harmony,2023.2.3,Win32,59.81576744,177.7865,178.7792,,,,,,,,,,,,,,,,,,,,,,,,,,178.7793,179.3458,m,1,0.5366,,179.3459,179.3462,,0,49,49,173,1,174,sade,1193,54.2052,1114,0.1218,4,notharmonic,1.55,word,m,,,,,,,
,,,,,,,,,,,ayşe,001,2023-11-07_23h11.50.066,vowel_harmony,2023.2.3,Win32,59.81576744,179.3473,180.3454,,,,,,,,,,,,,,,,,,,,,,,,,,180.3456,181.8119,z,1,1.4303,,181.812,181.8125,,0,50,50,358,1,359,yangin,,,,,6,notharmonic,1.9,nw,z,,,,,,,
,,,,,,,,,,,ayşe,001,2023-11-07_23h11.50.066,vowel_harmony,2023.2.3,Win32,59.81576744,181.8135,182.812,,,,,,,,,,,,,,,,,,,,,,,,,,182.8122,183.4953,m,1,0.6563,,183.4956,183.4959,,0,51,51,103,1,104,tane,5623,255.4868,5075,0.5548,4,notharmonic,1.3,word,m,,,,,,,
,,,,,,,,,,,ayşe,001,2023-11-07_23h11.50.066,vowel_harmony,2023.2.3,Win32,59.81576744,183.4966,184.4947,,,,,,,,,,,,,,,,,,,,,,,,,,184.4948,185.2956,z,1,0.7632,,185.2957,185.296,,0,52,52,300,1,301,nilgi,,,,,5,notharmonic,1.85,nw,z,,,,,,,
,,,,,,,,,,,ayşe,001,2023-11-07_23h11.50.066,vowel_harmony,2023.2.3,Win32,59.81576744,185.2966,186.2946,,,,,,,,,,,,,,,,,,,,,,,,,,186.2948,186.8611,m,1,0.5421,,186.8613,186.8617,,0,53,53,136,1,137,beyaz,5517,250.6706,4788,0.5234,5,notharmonic,1.85,word,m,,,,,,,
,,,,,,,,,,,ayşe,001,2023-11-07_23h11.50.066,vowel_harmony,2023.2.3,Win32,59.81576744,186.8624,187.8606,,,,,,,,,,,,,,,,,,,,,,,,,,187.8608,188.7437,z,1,0.8497,,188.7439,188.7443,,0,54,54,289,1,290,karmen,,,,,6,notharmonic,1.75,nw,z,,,,,,,
,,,,,,,,,,,ayşe,001,2023-11-07_23h11.50.066,vowel_harmony,2023.2.3,Win32,59.81576744,188.7453,189.7435,,,,,,,,,,,,,,,,,,,,,,,,,,189.7437,190.3932,z,1,0.6265,,190.3934,190.3939,,0,55,55,247,1,248,hafgın,,,,,6,harmonic,2,nw,z,,,,,,,
,,,,,,,,,,,ayşe,001,2023-11-07_23h11.50.066,vowel_harmony,2023.2.3,Win32,59.81576744,190.3949,191.3932,,,,,,,,,,,,,,,,,,,,,,,,,,191.3933,191.9929,z,1,0.5629,,191.9931,191.9935,,0,56,56,184,1,185,yapor,,,,,5,harmonic,1.9,nw,z,,,,,,,
,,,,,,,,,,,ayşe,001,2023-11-07_23h11.50.066,vowel_harmony,2023.2.3,Win32,59.81576744,191.9944,192.9925,,,,,,,,,,,,,,,,,,,,,,,,,,192.9926,193.6146,m,1,0.6006,,193.6148,193.6148,,0,57,57,83,1,84,küçük,14048,638.2854,12467,1.3629,5,harmonic,1.75,word,m,,,,,,,
,,,,,,,,,,,ayşe,001,2023-11-07_23h11.50.066,vowel_harmony,2023.2.3,Win32,59.81576744,193.615,194.6089,,,,,,,,,,,,,,,,,,,,,,,,,,194.6091,195.4088,z,1,0.7644,,195.409,195.4093,,0,58,58,273,1,274,nimal,,,,,5,notharmonic,1.9,nw,z,,,,,,,
,,,,,,,,,,,ayşe,001,2023-11-07_23h11.50.066,vowel_harmony,2023.2.3,Win32,59.81576744,195.4103,196.4086,,,,,,,,,,,,,,,,,,,,,,,,,,196.4088,197.0752,m,1,0.641,,197.0753,197.0757,,0,59,59,41,1,42,zengin,2193,99.6412,2015,0.2203,6,harmonic,1.65,word,m,,,,,,,
,,,,,,,,,,,ayşe,001,2023-11-07_23h11.50.066,vowel_harmony,2023.2.3,Win32,59.81576744,197.0766,198.0748,,,,,,,,,,,,,,,,,,,,,,,,,,198.0749,198.758,z,1,0.649,,198.7581,198.7586,,0,60,60,284,1,285,deval,,,,,5,notharmonic,1.75,nw,z,,,,,,,
,,,,,,,,,,,ayşe,001,2023-11-07_23h11.50.066,vowel_harmony,2023.2.3,Win32,59.81576744,198.7595,199.7629,,,,,,,,,,,,,,,,,,,,,,,,,,199.763,201.1575,m,1,1.3693,,201.1577,201.1581,,0,61,61,69,1,70,forma,719,32.6685,597,0.0653,5,harmonic,1.8,word,m,,,,,,,
,,,,,,,,,,,ayşe,001,2023-11-07_23h11.50.066,vowel_harmony,2023.2.3,Win32,59.81576744,201.1672,202.1574,,,,,,,,,,,,,,,,,,,,,,,,,,202.1575,202.7578,m,1,0.5738,,202.7581,202.7584,,0,62,62,68,1,69,ücret,734,33.35,634,0.0693,5,harmonic,1.85,word,m,,,,,,,
,,,,,,,,,,,ayşe,001,2023-11-07_23h11.50.066,vowel_harmony,2023.2.3,Win32,59.81576744,202.759,203.7569,,,,,,,,,,,,,,,,,,,,,,,,,,203.757,204.4066,z,1,0.6147,,204.4068,204.4072,,0,63,63,261,1,262,kardok,,,,,6,harmonic,1.95,nw,z,,,,,,,
,,,,,,,,,,,ayşe,001,2023-11-07_23h11.50.066,vowel_harmony,2023.2.3,Win32,59.81576744,204.4082,205.4064,,,,,,,,,,,,,,,,,,,,,,,,,,205.4066,206.2063,z,1,0.7745,,206.2065,206.2069,,0,64,64,250,1,251,kakuk,,,,,5,harmonic,1.9,nw,z,,,,,,,
,,,,,,,,,,,ayşe,001,2023-11-07_23h11.50.066,vowel_harmony,2023.2.3,Win32,59.81576744,206.2078,207.206,,,,,,,,,,,,,,,,,,,,,,,,,,207.2061,207.8558,z,1,0.6211,,207.856,207.8564,,0,65,65,329,1,330,taif,,,,,4,notharmonic,1.8,nw,z,,,,,,,
,,,,,,,,,,,ayşe,001,2023-11-07_23h11.50.066,vowel_harmony,2023.2.3,Win32,59.81576744,207.8574,208.8557,,,,,,,,,,,,,,,,,,,,,,,,,,208.8559,209.4389,m,1,0.5554,,209.4391,209.4396,,0,66,66,163,1,164,limon,1658,75.3329,1481,0.1619,5,notharmonic,1.75,word,m,,,,,,,
,,,,,,,,,,,ayşe,001,2023-11-07_23h11.50.066,vowel_harmony,2023.2.3,Win32,59.81576744,209.4405,210.4386,,,,,,,,,,,,,,,,,,,,,,,,,,210.4387,211.1553,z,1,0.6795,,211.1555,211.1558,,0,67,67,265,1,266,parula,,,,,6,harmonic,1.75,nw,z,,,,,,,
,,,,,,,,,,,ayşe,001,2023-11-07_23h11.50.066,vowel_harmony,2023.2.3,Win32,59.81576744,211.1567,212.1548,,,,,,,,,,,,,,,,,,,,,,,,,,212.1549,212.9728,z,1,0.7953,,212.9728,212.9729,,0,68,68,226,1,227,tefem,,,,,5,harmonic,1.75,nw,z,,,,,,,
,,,,,,,,,,,ayşe,001,2023-11-07_23h11.50.066,vowel_harmony,2023.2.3,Win32,59.81576744,212.9732,213.9711,,,,,,,,,,,,,,,,,,,,,,,,,,213.9713,214.871,m,1,0.8626,,214.8713,214.8716,,0,69,69,21,1,22,duygu,1877,85.2834,1760,0.1924,5,harmonic,1.8,word,m,,,,,,,
,,,,,,,,,,,ayşe,001,2023-11-07_23h11.50.066,vowel_harmony,2023.2.3,Win32,59.81576744,214.8724,215.8706,,,,,,,,,,,,,,,,,,,,,,,,,,215.8709,216.3873,m,1,0.4928,,216.3875,216.3879,,0,70,70,71,1,72,örnek,3463,157.345,3266,0.357,5,harmonic,1.85,word,m,,,,,,,
,,,,,,,,,,,ayşe,001,2023-11-07_23h11.50.066,vowel_harmony,2023.2.3,Win32,59.81576744,216.3889,217.3876,,,,,,,,,,,,,,,,,,,,,,,,,,217.3878,217.9927,z,1,0.5789,,217.9927,217.9928,,0,71,71,259,1,260,hayuk,,,,,5,harmonic,1.95,nw,z,,,,,,,
,,,,,,,,,,,ayşe,001,2023-11-07_23h11.50.066,vowel_harmony,2023.2.3,Win32,59.81576744,217.9931,218.9865,,,,,,,,,,,,,,,,,,,,,,,,,,218.9866,219.4712,m,1,0.4587,,219.4713,219.4714,,0,72,72,100,1,101,düşman,1065,48.3894,962,0.1052,6,notharmonic,1.85,word,m,,,,,,,
,,,,,,,,,,,ayşe,001,2023-11-07_23h11.50.066,vowel_harmony,2023.2.3,Win32,59.81576744,219.472,220.4754,,,,,,,,,,,,,,,,,,,,,,,,,,220.4755,221.0373,m,1,0.5315,,221.0375,221.0376,,0,73,73,140,1,141,sahil,481,21.8547,443,0.0484,5,notharmonic,1.45,word,m,,,,,,,
,,,,,,,,,,,ayşe,001,2023-11-07_23h11.50.066,vowel_harmony,2023.2.3,Win32,59.81576744,221.038,222.0359,,,,,,,,,,,,,,,,,,,,,,,,,,222.036,222.5216,m,1,0.4644,,222.5217,222.5219,,0,74,74,159,1,160,vakit,3476,157.9357,3298,0.3605,5,notharmonic,1.65,word,m,,,,,,,
,,,,,,,,,,,ayşe,001,2023-11-07_23h11.50.066,vowel_harmony,2023.2.3,Win32,59.81576744,222.5222,223.5188,,,,,,,,,,,,,,,,,,,,,,,,,,223.519,224.2185,z,1,0.6677,,224.2186,224.219,,0,75,75,281,1,282,afel,,,,,4,notharmonic,1.8,nw,z,,,,,,,
,,,,,,,,,,,ayşe,001,2023-11-07_23h11.50.066,vowel_harmony,2023.2.3,Win32,59.81576744,224.2201,225.2232,,,,,,,,,,,,,,,,,,,,,,,,,,225.2232,225.7735,m,1,0.5337,,225.7736,225.7737,,0,76,76,125,1,126,ikna,1276,57.9764,1173,0.1282,4,notharmonic,1.85,word,m,,,,,,,
,,,,,,,,,,,ayşe,001,2023-11-07_23h11.50.066,vowel_harmony,2023.2.3,Win32,59.81576744,225.774,226.7733,,,,,,,,,,,,,,,,,,,,,,,,,,226.7734,227.2728,m,1,0.4777,,227.2728,227.2732,,0,77,77,160,1,161,hakem,603,27.3979,473,0.0517,5,notharmonic,1.3,word,m,,,,,,,
,,,,,,,,,,,ayşe,001,2023-11-07_23h11.50.066,vowel_harmony,2023.2.3,Win32,59.81576744,227.2735,228.2724,,,,,,,,,,,,,,,,,,,,,,,,,,228.2724,229.0344,z,1,0.7349,,229.0345,229.0349,,0,78,78,253,1,254,meslet,,,,,6,harmonic,1.85,nw,z,,,,,,,
,,,,,,,,,,,ayşe,001,2023-11-07_23h11.50.066,vowel_harmony,2023.2.3,Win32,59.81576744,229.0359,230.0347,,,,,,,,,,,,,,,,,,,,,,,,,,230.0348,230.4391,z,1,0.3773,,230.4392,230.4392,,0,79,79,303,1,304,fisor,,,,,5,notharmonic,1.9,nw,z,,,,,,,
,,,,,,,,,,,ayşe,001,2023-11-07_23h11.50.066,vowel_harmony,2023.2.3,Win32,59.81576744,230.4396,231.4337,,,,,,,,,,,,,,,,,,,,,,,,,,231.4338,232.1338,m,1,0.668,,232.134,232.1343,,0,80,80,12,1,13,konu,5400,245.3546,5110,0.5586,4,harmonic,1,word,m,,,,,,,
,,,,,,,,,,,ayşe,001,2023-11-07_23h11.50.066,vowel_harmony,2023.2.3,Win32,59.81576744,232.1352,233.1397,,,,,,,,,,,,,,,,,,,,,,,,,,233.1397,233.7343,m,1,0.563,,233.7344,233.7347,,0,81,81,137,1,138,parti,2613,118.7244,2059,0.2251,5,notharmonic,1.8,word,m,,,,,,,
,,,,,,,,,,,ayşe,001,2023-11-07_23h11.50.066,vowel_harmony,2023.2.3,Win32,59.81576744,233.7351,234.7332,,,,,,,,,,,,,,,,,,,,,,,,,,234.7333,235.2835,m,1,0.5266,,235.2837,235.284,,0,82,82,146,1,147,mavi,2206,100.2319,1934,0.2114,4,notharmonic,1.45,word,m,,,,,,,
,,,,,,,,,,,ayşe,001,2023-11-07_23h11.50.066,vowel_harmony,2023.2.3,Win32,59.81576744,235.2847,236.2884,,,,,,,,,,,,,,,,,,,,,,,,,,236.2884,237.035,m,1,0.7258,,237.0351,237.0352,,0,83,83,176,1,177,harika,4682,212.7315,4422,0.4834,6,notharmonic,1.9,word,m,,,,,,,
,,,,,,,,,,,ayşe,001,2023-11-07_23h11.50.066,vowel_harmony,2023.2.3,Win32,59.81576744,237.0355,238.032,,,,,,,,,,,,,,,,,,,,,,,,,,238.0326,238.549,m,1,0.4855,,238.5492,238.5496,,0,84,84,150,1,151,sabit,1046,47.5261,915,0.1,5,notharmonic,1.75,word,m,,,,,,,
,,,,,,,,,,,ayşe,001,2023-11-07_23h11.50.066,vowel_harmony,2023.2.3,Win32,59.81576744,238.5504,239.5505,,,,,,,,,,,,,,,,,,,,,,,,,,239.5505,240.0208,m,1,0.4455,,240.0208,240.0208,,0,85,85,60,1,61,doğu,2105,95.6429,1823,0.1993,4,harmonic,1.05,word,m,,,,,,,
,,,,,,,,,,,ayşe,001,2023-11-07_23h11.50.066,vowel_harmony,2023.2.3,Win32,59.81576744,240.0211,241.0159,,,,,,,,,,,,,,,,,,,,,,,,,,241.0161,241.5873,m,1,0.5447,,241.5873,241.5874,,0,86,86,129,1,130,tahmin,2353,106.911,2273,0.2485,6,notharmonic,1.6,word,m,,,,,,,
,,,,,,,,,,,ayşe,001,2023-11-07_23h11.50.066,vowel_harmony,2023.2.3,Win32,59.81576744,241.588,242.5853,,,,,,,,,,,,,,,,,,,,,,,,,,242.5854,243.1873,z,1,0.5842,,243.1873,243.1874,,0,87,87,229,1,230,tonam,,,,,5,harmonic,1.8,nw,z,,,,,,,
,,,,,,,,,,,ayşe,001,2023-11-07_23h11.50.066,vowel_harmony,2023.2.3,Win32,59.81576744,243.1879,244.1877,,,,,,,,,,,,,,,,,,,,,,,,,,244.1877,244.6526,z,1,0.4442,,244.6526,244.6527,,0,88,88,215,1,216,aydo,,,,,4,harmonic,1.9,nw,z,,,,,,,
,,,,,,,,,,,ayşe,001,2023-11-07_23h11.50.066,vowel_harmony,2023.2.3,Win32,59.81576744,244.6531,245.647,,,,,,,,,,,,,,,,,,,,,,,,,,245.6471,246.1525,z,1,0.484,,246.1525,246.1525,,0,89,89,188,1,189,tonık,,,,,5,harmonic,1.85,nw,z,,,,,,,
,,,,,,,,,,,ayşe,001,2023-11-07_23h11.50.066,vowel_harmony,2023.2.3,Win32,59.81576744,246.1528,247.1466,,,,,,,,,,,,,,,,,,,,,,,,,,247.1467,247.7196,z,1,0.5459,,247.7197,247.7198,,0,90,90,327,1,328,parkeş,,,,,6,notharmonic,1.9,nw,z,,,,,,,
,,,,,,,,,,,ayşe,001,2023-11-07_23h11.50.066,vowel_harmony,2023.2.3,Win32,59.81576744,247.7205,248.7135,,,,,,,,,,,,,,,,,,,,,,,,,,248.7137,249.2687,z,1,0.5341,,249.2687,249.2688,,0,91,91,305,1,306,tamü,,,,,4,notharmonic,1.75,nw,z,,,,,,,
,,,,,,,,,,,ayşe,001,2023-11-07_23h11.50.066,vowel_harmony,2023.2.3,Win32,59.81576744,249.2691,250.264,,,,,,,,,,,,,,,,,,,,,,,,,,250.2641,250.6293,z,0,0.3379,,250.6294,250.6299,,0,92,92,75,1,76,roman,1499,68.1086,1281,0.14,5,harmonic,1.6,word,m,,,,,,,
,,,,,,,,,,,ayşe,001,2023-11-07_23h11.50.066,vowel_harmony,2023.2.3,Win32,59.81576744,250.6308,251.6288,,,,,,,,,,,,,,,,,,,,,,,,,,251.6289,252.1136,m,1,0.4531,,252.1137,252.1138,,0,93,93,167,1,168,adalet,1611,73.1975,1388,0.1517,6,notharmonic,1.65,word,m,,,,,,,
,,,,,,,,,,,ayşe,001,2023-11-07_23h11.50.066,vowel_harmony,2023.2.3,Win32,59.81576744,252.1142,253.1117,,,,,,,,,,,,,,,,,,,,,,,,,,253.1117,253.7457,m,1,0.608,,253.746,253.7463,,0,94,94,144,1,145,garip,2567,116.6343,2355,0.2574,5,notharmonic,1.65,word,m,,,,,,,
,,,,,,,,,,,ayşe,001,2023-11-07_23h11.50.066,vowel_harmony,2023.2.3,Win32,59.81576744,253.7469,254.7449,,,,,,,,,,,,,,,,,,,,,,,,,,254.745,255.6283,z,1,0.8461,,255.6285,255.6289,,0,95,95,332,1,333,tahane,,,,,6,notharmonic,1.85,nw,z,,,,,,,
,,,,,,,,,,,ayşe,001,2023-11-07_23h11.50.066,vowel_harmony,2023.2.3,Win32,59.81576744,255.6296,256.6292,,,,,,,,,,,,,,,,,,,,,,,,,,256.6292,257.1613,m,1,0.5095,,257.1615,257.162,,0,96,96,179,1,180,dakika,5891,267.6637,5207,0.5692,6,notharmonic,1.75,word,m,,,,,,,
,,,,,,,,,,,ayşe,001,2023-11-07_23h11.50.066,vowel_harmony,2023.2.3,Win32,59.81576744,257.1626,258.1611,,,,,,,,,,,,,,,,,,,,,,,,,,258.1613,258.8487,m,1,0.661,,258.8488,258.8488,,0,97,97,102,1,103,esas,1965,89.2818,1795,0.1962,4,notharmonic,1.75,word,m,,,,,,,
,,,,,,,,,,,ayşe,001,2023-11-07_23h11.50.066,vowel_harmony,2023.2.3,Win32,59.81576744,258.8491,259.8442,,,,,,,,,,,,,,,,,,,,,,,,,,259.8444,260.5103,m,1,0.6366,,260.5104,260.5109,,0,98,98,110,1,111,rüya,1062,48.2531,937,0.1024,4,notharmonic,1.75,word,m,,,,,,,
,,,,,,,,,,,ayşe,001,2023-11-07_23h11.50.066,vowel_harmony,2023.2.3,Win32,59.81576744,260.5118,261.5099,,,,,,,,,,,,,,,,,,,,,,,,,,261.5101,262.0155,m,1,0.4786,,262.0155,262.0156,,0,99,99,64,1,65,lise,888,40.3472,816,0.0892,4,harmonic,1.5,word,m,,,,,,,
,,,,,,,,,,,ayşe,001,2023-11-07_23h11.50.066,vowel_harmony,2023.2.3,Win32,59.81576744,262.0158,263.0151,,,,,,,,,,,,,,,,,,,,,,,,,,263.0152,263.6108,z,1,0.5785,,263.6109,263.6111,,0,100,100,208,1,209,yayram,,,,,6,harmonic,1.85,nw,z,,,,,,,
,,,,,,,,,,,ayşe,001,2023-11-07_23h11.50.066,vowel_harmony,2023.2.3,Win32,59.81576744,263.6113,264.6094,,,,,,,,,,,,,,,,,,,,,,,,,,264.6096,265.3599,m,1,0.7159,,265.36,265.3602,,0,101,101,61,1,62,yıldız,1775,80.649,1532,0.1675,6,harmonic,1.6,word,m,,,,,,,
,,,,,,,,,,,ayşe,001,2023-11-07_23h11.50.066,vowel_harmony,2023.2.3,Win32,59.81576744,265.3609,266.3588,,,,,,,,,,,,,,,,,,,,,,,,,,266.3589,267.1421,m,1,0.7511,,267.1422,267.1427,,0,102,102,82,1,83,aday,1028,46.7082,873,0.0954,4,harmonic,1.45,word,m,,,,,,,
,,,,,,,,,,,ayşe,001,2023-11-07_23h11.50.066,vowel_harmony,2023.2.3,Win32,59.81576744,267.1436,268.1417,,,,,,,,,,,,,,,,,,,,,,,,,,268.1418,268.7805,z,1,0.612,,268.7805,268.7805,,0,103,103,260,1,261,yarlam,,,,,6,harmonic,1.75,nw,z,,,,,,,
,,,,,,,,,,,ayşe,001,2023-11-07_23h11.50.066,vowel_harmony,2023.2.3,Win32,59.81576744,268.7808,269.7748,,,,,,,,,,,,,,,,,,,,,,,,,,269.775,270.5245,z,1,0.7227,,270.5247,270.525,,0,104,104,337,1,338,bakem,,,,,5,notharmonic,1.7,nw,z,,,,,,,
,,,,,,,,,,,ayşe,001,2023-11-07_23h11.50.066,vowel_harmony,2023.2.3,Win32,59.81576744,270.526,271.5243,,,,,,,,,,,,,,,,,,,,,,,,,,271.5244,272.1911,m,1,0.6289,,272.1913,272.1918,,0,105,105,63,1,64,sultan,1756,79.7857,1368,0.1496,6,harmonic,1.55,word,m,,,,,,,
,,,,,,,,,,,ayşe,001,2023-11-07_23h11.50.066,vowel_harmony,2023.2.3,Win32,59.81576744,272.1926,273.192,,,,,,,,,,,,,,,,,,,,,,,,,,273.1921,273.7404,m,1,0.5229,,273.7406,273.741,,0,106,106,10,1,11,bardak,1728,78.5135,1569,0.1715,6,harmonic,1.6,word,m,,,,,,,
,,,,,,,,,,,ayşe,001,2023-11-07_23h11.50.066,vowel_harmony,2023.2.3,Win32,59.81576744,273.7421,274.7404,,,,,,,,,,,,,,,,,,,,,,,,,,274.7406,275.2749,m,1,0.5057,,275.2749,275.275,,0,107,107,70,1,71,yarın,3440,156.3,3222,0.3522,5,harmonic,1.85,word,m,,,,,,,
,,,,,,,,,,,ayşe,001,2023-11-07_23h11.50.066,vowel_harmony,2023.2.3,Win32,59.81576744,275.2754,276.2783,,,,,,,,,,,,,,,,,,,,,,,,,,276.2783,276.9924,z,1,0.6969,,276.9925,276.9926,,0,108,108,325,1,326,garit,,,,,5,notharmonic,1.85,nw,z,,,,,,,
,,,,,,,,,,,ayşe,001,2023-11-07_23h11.50.066,vowel_harmony,2023.2.3,Win32,59.81576744,276.9931,277.9917,,,,,,,,,,,,,,,,,,,,,,,,,,277.9918,278.8742,m,1,0.8513,,278.8743,278.8744,,0,109,109,162,1,163,hariç,1267,57.5675,1233,0.1348,5,notharmonic,1.75,word,m,,,,,,,
,,,,,,,,,,,ayşe,001,2023-11-07_23h11.50.066,vowel_harmony,2023.2.3,Win32,59.81576744,278.8749,279.8782,,,,,,,,,,,,,,,,,,,,,,,,,,279.8783,280.4888,z,1,0.5854,,280.4889,280.4893,,0,110,110,321,1,322,makih,,,,,5,notharmonic,1.8,nw,z,,,,,,,
,,,,,,,,,,,ayşe,001,2023-11-07_23h11.50.066,vowel_harmony,2023.2.3,Win32,59.81576744,280.4904,281.4934,,,,,,,,,,,,,,,,,,,,,,,,,,281.4935,282.2552,m,1,0.7291,,282.2552,282.2557,,0,111,111,78,1,79,ulusal,1551,70.4713,1355,0.1481,6,harmonic,1.75,word,m,,,,,,,
,,,,,,,,,,,ayşe,001,2023-11-07_23h11.50.066,vowel_harmony,2023.2.3,Win32,59.81576744,282.2567,283.2555,,,,,,,,,,,,,,,,,,,,,,,,,,283.2556,283.9445,z,1,0.668,,283.9446,283.9446,,0,112,112,221,1,222,yaypın,,,,,6,harmonic,1.75,nw,z,,,,,,,
,,,,,,,,,,,ayşe,001,2023-11-07_23h11.50.066,vowel_harmony,2023.2.3,Win32,59.81576744,283.945,284.939,,,,,,,,,,,,,,,,,,,,,,,,,,284.9392,285.9276,z,1,0.9612,,285.9276,285.9276,,0,113,113,241,1,242,porlam,,,,,6,harmonic,2,nw,z,,,,,,,
,,,,,,,,,,,ayşe,001,2023-11-07_23h11.50.066,vowel_harmony,2023.2.3,Win32,59.81576744,285.9279,286.9209,,,,,,,,,,,,,,,,,,,,,,,,,,286.9211,287.5211,m,1,0.5746,,287.5213,287.5217,,0,114,114,121,1,122,mesaj,1604,72.8794,1386,0.1515,5,notharmonic,1.8,word,m,,,,,,,
,,,,,,,,,,,ayşe,001,2023-11-07_23h11.50.066,vowel_harmony,2023.2.3,Win32,59.81576744,287.5224,288.5204,,,,,,,,,,,,,,,,,,,,,,,,,,288.5205,289.5728,z,1,1.0253,,289.5728,289.5728,,0,115,115,204,1,205,gerkez,,,,,6,harmonic,1.9,nw,z,,,,,,,
,,,,,,,,,,,ayşe,001,2023-11-07_23h11.50.066,vowel_harmony,2023.2.3,Win32,59.81576744,289.5732,290.5704,,,,,,,,,,,,,,,,,,,,,,,,,,290.5706,291.2919,m,1,0.7004,,291.2919,291.292,,0,116,116,89,1,90,etki,1234,56.0681,1169,0.1278,4,harmonic,1.4,word,m,,,,,,,
,,,,,,,,,,,ayşe,001,2023-11-07_23h11.50.066,vowel_harmony,2023.2.3,Win32,59.81576744,291.2923,292.2911,,,,,,,,,,,,,,,,,,,,,,,,,,292.2911,292.8533,z,1,0.5301,,292.8535,292.854,,0,117,117,246,1,247,orkın,,,,,5,harmonic,1.9,nw,z,,,,,,,
,,,,,,,,,,,ayşe,001,2023-11-07_23h11.50.066,vowel_harmony,2023.2.3,Win32,59.81576744,292.8543,293.8537,,,,,,,,,,,,,,,,,,,,,,,,,,293.854,294.5189,m,1,0.6425,,294.5191,294.5195,,0,118,118,65,1,66,fikir,2552,115.9528,2413,0.2638,5,harmonic,1.9,word,m,,,,,,,
,,,,,,,,,,,ayşe,001,2023-11-07_23h11.50.066,vowel_harmony,2023.2.3,Win32,59.81576744,294.5205,295.5234,,,,,,,,,,,,,,,,,,,,,,,,,,295.5235,296.324,m,1,0.7785,,296.324,296.3241,,0,119,119,142,1,143,siyasi,2909,132.1734,2445,0.2673,6,notharmonic,1.8,word,m,,,,,,,
,,,,,,,,,,,ayşe,001,2023-11-07_23h11.50.066,vowel_harmony,2023.2.3,Win32,59.81576744,296.3243,297.3182,,,,,,,,,,,,,,,,,,,,,,,,,,297.3183,298.1243,z,1,0.7845,,298.1243,383.3329,space,0,120,120,268,1,269,haldum,,,,,6,harmonic,2,nw,z,85.1895,,,,,,
,,,,,,,,,,,ayşe,001,2023-11-07_23h11.50.066,vowel_harmony,2023.2.3,Win32,59.81576744,383.3436,384.3327,,,,,,,,,,,,,,,,,,,,,,,,,,384.3327,385.0145,z,0,0.651,,385.0149,385.0154,,0,121,121,90,1,91,tarif,2834,128.7657,2611,0.2854,5,notharmonic,1.5,word,m,,,,,,,
,,,,,,,,,,,ayşe,001,2023-11-07_23h11.50.066,vowel_harmony,2023.2.3,Win32,59.81576744,385.0162,386.0151,,,,,,,,,,,,,,,,,,,,,,,,,,386.0153,386.95,z,1,0.9089,,386.95,386.95,,0,122,122,308,1,309,hafer,,,,,5,notharmonic,1.85,nw,z,,,,,,,
,,,,,,,,,,,ayşe,001,2023-11-07_23h11.50.066,vowel_harmony,2023.2.3,Win32,59.81576744,386.9505,387.9472,,,,,,,,,,,,,,,,,,,,,,,,,,387.9473,388.5198,m,1,0.5512,,388.5198,388.5199,,0,123,123,80,1,81,merkez,1445,65.6551,1255,0.1372,6,harmonic,1.8,word,m,,,,,,,
,,,,,,,,,,,ayşe,001,2023-11-07_23h11.50.066,vowel_harmony,2023.2.3,Win32,59.81576744,388.5203,389.5142,,,,,,,,,,,,,,,,,,,,,,,,,,389.5145,390.2644,z,1,0.7171,,390.2645,390.2646,,0,124,124,225,1,226,düvem,,,,,5,harmonic,1.7,nw,z,,,,,,,
,,,,,,,,,,,ayşe,001,2023-11-07_23h11.50.066,vowel_harmony,2023.2.3,Win32,59.81576744,390.265,391.2651,,,,,,,,,,,,,,,,,,,,,,,,,,391.2651,391.8356,z,1,0.5505,,391.8356,391.8357,,0,125,125,236,1,237,toklam,,,,,6,harmonic,1.85,nw,z,,,,,,,
,,,,,,,,,,,ayşe,001,2023-11-07_23h11.50.066,vowel_harmony,2023.2.3,Win32,59.81576744,391.8362,392.8342,,,,,,,,,,,,,,,,,,,,,,,,,,392.8342,393.4175,m,1,0.5612,,393.4176,393.4177,,0,126,126,84,1,85,ülke,3121,141.8059,2801,0.3062,4,harmonic,1.65,word,m,,,,,,,
,,,,,,,,,,,ayşe,001,2023-11-07_23h11.50.066,vowel_harmony,2023.2.3,Win32,59.81576744,393.4181,394.4166,,,,,,,,,,,,,,,,,,,,,,,,,,394.4167,395.1841,m,1,0.7504,,395.1842,395.1843,,0,127,127,130,1,131,hamile,1075,48.8437,877,0.0959,6,notharmonic,1.5,word,m,,,,,,,
,,,,,,,,,,,ayşe,001,2023-11-07_23h11.50.066,vowel_harmony,2023.2.3,Win32,59.81576744,395.1846,396.1787,,,,,,,,,,,,,,,,,,,,,,,,,,396.1789,397.0461,z,1,0.8298,,397.0463,397.0465,,0,128,128,330,1,331,vahçe,,,,,5,notharmonic,1.9,nw,z,,,,,,,
,,,,,,,,,,,ayşe,001,2023-11-07_23h11.50.066,vowel_harmony,2023.2.3,Win32,59.81576744,397.0469,398.0447,,,,,,,,,,,,,,,,,,,,,,,,,,398.0447,398.6842,m,1,0.6182,,398.6843,398.6844,,0,129,129,169,1,170,hikaye,1555,70.653,1405,0.1536,6,notharmonic,1.8,word,m,,,,,,,
,,,,,,,,,,,ayşe,001,2023-11-07_23h11.50.066,vowel_harmony,2023.2.3,Win32,59.81576744,398.6847,399.6823,,,,,,,,,,,,,,,,,,,,,,,,,,399.6824,400.4119,z,1,0.7033,,400.4121,400.4123,,0,130,130,187,1,188,remrin,,,,,6,harmonic,1.9,nw,z,,,,,,,
,,,,,,,,,,,ayşe,001,2023-11-07_23h11.50.066,vowel_harmony,2023.2.3,Win32,59.81576744,400.4127,401.4156,,,,,,,,,,,,,,,,,,,,,,,,,,401.4156,401.9606,z,1,0.5224,,401.961,401.9616,,0,131,131,203,1,204,döves,,,,,5,harmonic,1.8,nw,z,,,,,,,
,,,,,,,,,,,ayşe,001,2023-11-07_23h11.50.066,vowel_harmony,2023.2.3,Win32,59.81576744,401.9621,402.9603,,,,,,,,,,,,,,,,,,,,,,,,,,402.9605,403.4769,z,1,0.4851,,403.477,403.4774,,0,132,132,222,1,223,gelü,,,,,4,harmonic,1.75,nw,z,,,,,,,
,,,,,,,,,,,ayşe,001,2023-11-07_23h11.50.066,vowel_harmony,2023.2.3,Win32,59.81576744,403.4784,404.4765,,,,,,,,,,,,,,,,,,,,,,,,,,404.4766,405.2264,m,1,0.7198,,405.2265,405.2269,,0,133,133,45,1,46,bilgi,5981,271.7529,5353,0.5852,5,harmonic,1.5,word,m,,,,,,,
,,,,,,,,,,,ayşe,001,2023-11-07_23h11.50.066,vowel_harmony,2023.2.3,Win32,59.81576744,405.2279,406.2313,,,,,,,,,,,,,,,,,,,,,,,,,,406.2314,407.0478,z,1,0.7946,,407.0478,407.0479,,0,134,134,341,1,342,işgan,,,,,5,notharmonic,1.95,nw,z,,,,,,,
,,,,,,,,,,,ayşe,001,2023-11-07_23h11.50.066,vowel_harmony,2023.2.3,Win32,59.81576744,407.0483,408.0475,,,,,,,,,,,,,,,,,,,,,,,,,,408.0476,408.6424,m,1,0.5741,,408.6427,408.643,,0,135,135,131,1,132,hakim,1677,76.1962,1559,0.1704,5,notharmonic,1,word,m,,,,,,,
,,,,,,,,,,,ayşe,001,2023-11-07_23h11.50.066,vowel_harmony,2023.2.3,Win32,59.81576744,408.6438,409.647,,,,,,,,,,,,,,,,,,,,,,,,,,409.647,410.3294,z,1,0.6605,,410.3294,410.3294,,0,136,136,244,1,245,kaof,,,,,4,harmonic,1.9,nw,z,,,,,,,
,,,,,,,,,,,ayşe,001,2023-11-07_23h11.50.066,vowel_harmony,2023.2.3,Win32,59.81576744,410.3299,411.3263,,,,,,,,,,,,,,,,,,,,,,,,,,411.3264,411.9246,z,1,0.5671,,411.9247,411.9251,,0,137,137,356,1,357,mergun,,,,,6,notharmonic,1.95,nw,z,,,,,,,
,,,,,,,,,,,ayşe,001,2023-11-07_23h11.50.066,vowel_harmony,2023.2.3,Win32,59.81576744,411.9262,412.9244,,,,,,,,,,,,,,,,,,,,,,,,,,412.9245,413.5977,m,1,0.6462,,413.5977,413.5979,,0,138,138,132,1,133,modern,2326,105.6842,2031,0.222,6,notharmonic,1.85,word,m,,,,,,,
,,,,,,,,,,,ayşe,001,2023-11-07_23h11.50.066,vowel_harmony,2023.2.3,Win32,59.81576744,413.5984,414.5913,,,,,,,,,,,,,,,,,,,,,,,,,,414.5916,415.2417,m,1,0.6218,,415.2418,415.2422,,0,139,139,135,1,136,hafif,3355,152.4379,3101,0.339,5,notharmonic,1.75,word,m,,,,,,,
,,,,,,,,,,,ayşe,001,2023-11-07_23h11.50.066,vowel_harmony,2023.2.3,Win32,59.81576744,415.2426,416.2408,,,,,,,,,,,,,,,,,,,,,,,,,,416.241,416.8806,z,1,0.6123,,416.8806,416.8808,,0,140,140,311,1,312,dedya,,,,,5,notharmonic,1.9,nw,z,,,,,,,
,,,,,,,,,,,ayşe,001,2023-11-07_23h11.50.066,vowel_harmony,2023.2.3,Win32,59.81576744,416.8812,417.8732,,,,,,,,,,,,,,,,,,,,,,,,,,417.8734,418.5115,z,1,0.6166,,418.5115,418.5116,,0,141,141,220,1,221,denbi,,,,,5,harmonic,1.75,nw,z,,,,,,,
,,,,,,,,,,,ayşe,001,2023-11-07_23h11.50.066,vowel_harmony,2023.2.3,Win32,59.81576744,418.512,419.5062,,,,,,,,,,,,,,,,,,,,,,,,,,419.5064,420.1078,z,1,0.5677,,420.1079,420.1079,,0,142,142,276,1,277,iptap,,,,,5,notharmonic,1.95,nw,z,,,,,,,
,,,,,,,,,,,ayşe,001,2023-11-07_23h11.50.066,vowel_harmony,2023.2.3,Win32,59.81576744,420.1083,421.106,,,,,,,,,,,,,,,,,,,,,,,,,,421.106,421.7394,z,1,0.6086,,421.7397,421.7401,,0,143,143,344,1,345,barika,,,,,6,notharmonic,1.75,nw,z,,,,,,,
,,,,,,,,,,,ayşe,001,2023-11-07_23h11.50.066,vowel_harmony,2023.2.3,Win32,59.81576744,421.7409,422.7435,,,,,,,,,,,,,,,,,,,,,,,,,,422.7436,423.4448,z,1,0.6793,,423.4448,423.4451,,0,144,144,248,1,249,şegim,,,,,5,harmonic,1.9,nw,z,,,,,,,
,,,,,,,,,,,ayşe,001,2023-11-07_23h11.50.066,vowel_harmony,2023.2.3,Win32,59.81576744,423.4457,424.4385,,,,,,,,,,,,,,,,,,,,,,,,,,424.4386,425.0053,m,1,0.544,,425.0055,425.0058,,0,145,145,127,1,128,şahane,1153,52.3877,1108,0.1211,6,notharmonic,1.8,word,m,,,,,,,
,,,,,,,,,,,ayşe,001,2023-11-07_23h11.50.066,vowel_harmony,2023.2.3,Win32,59.81576744,425.0066,426.0048,,,,,,,,,,,,,,,,,,,,,,,,,,426.0049,426.7389,m,1,0.6968,,426.739,426.7394,,0,146,146,54,1,55,yedek,825,37.4847,732,0.08,5,harmonic,1.65,word,m,,,,,,,
,,,,,,,,,,,ayşe,001,2023-11-07_23h11.50.066,vowel_harmony,2023.2.3,Win32,59.81576744,426.7397,427.7387,,,,,,,,,,,,,,,,,,,,,,,,,,427.739,428.2543,z,1,0.4925,,428.2544,428.2549,,0,147,147,195,1,196,netüm,,,,,5,harmonic,1.95,nw,z,,,,,,,
,,,,,,,,,,,ayşe,001,2023-11-07_23h11.50.066,vowel_harmony,2023.2.3,Win32,59.81576744,428.2558,429.254,,,,,,,,,,,,,,,,,,,,,,,,,,429.2541,429.9587,z,1,0.6776,,429.9589,429.9589,,0,148,148,270,1,271,miyaj,,,,,5,notharmonic,1.9,nw,z,,,,,,,
,,,,,,,,,,,ayşe,001,2023-11-07_23h11.50.066,vowel_harmony,2023.2.3,Win32,59.81576744,429.9593,430.954,,,,,,,,,,,,,,,,,,,,,,,,,,430.9542,431.4538,m,1,0.4677,,431.4541,431.4544,,0,149,149,62,1,63,cümle,1911,86.8283,1765,0.193,5,harmonic,1.85,word,m,,,,,,,
,,,,,,,,,,,ayşe,001,2023-11-07_23h11.50.066,vowel_harmony,2023.2.3,Win32,59.81576744,431.4551,432.4539,,,,,,,,,,,,,,,,,,,,,,,,,,432.4541,433.3087,z,1,0.8282,,433.3087,433.3088,,0,150,150,353,1,354,ikno,,,,,4,notharmonic,1.95,nw,z,,,,,,,
,,,,,,,,,,,ayşe,001,2023-11-07_23h11.50.066,vowel_harmony,2023.2.3,Win32,59.81576744,433.3092,434.3033,,,,,,,,,,,,,,,,,,,,,,,,,,434.3035,434.8749,m,1,0.5498,,434.875,434.8751,,0,151,151,59,1,60,köpek,1044,47.4352,901,0.0985,5,harmonic,1.75,word,m,,,,,,,
,,,,,,,,,,,ayşe,001,2023-11-07_23h11.50.066,vowel_harmony,2023.2.3,Win32,59.81576744,434.8754,435.8693,,,,,,,,,,,,,,,,,,,,,,,,,,435.8694,436.6193,z,1,0.7124,,436.6195,436.6201,,0,152,152,285,1,286,iklon,,,,,5,notharmonic,1.85,nw,z,,,,,,,
,,,,,,,,,,,ayşe,001,2023-11-07_23h11.50.066,vowel_harmony,2023.2.3,Win32,59.81576744,436.6208,437.6187,,,,,,,,,,,,,,,,,,,,,,,,,,437.6188,439.6183,,0,,,439.6184,439.6189,,0,153,153,359,1,360,kardez,,,,,6,notharmonic,1.95,nw,z,,,,,,,
,,,,,,,,,,,ayşe,001,2023-11-07_23h11.50.066,vowel_harmony,2023.2.3,Win32,59.81576744,439.6281,440.6228,,,,,,,,,,,,,,,,,,,,,,,,,,440.6229,441.5844,m,1,0.9403,,441.5846,441.585,,0,154,154,166,1,167,maden,402,18.2653,339,0.0371,5,notharmonic,1.45,word,m,,,,,,,
,,,,,,,,,,,ayşe,001,2023-11-07_23h11.50.066,vowel_harmony,2023.2.3,Win32,59.81576744,441.5861,442.5844,,,,,,,,,,,,,,,,,,,,,,,,,,442.5846,443.323,m,1,0.7116,,443.323,443.3231,,0,155,155,134,1,135,iptal,793,36.0308,725,0.0793,5,notharmonic,1.35,word,m,,,,,,,
,,,,,,,,,,,ayşe,001,2023-11-07_23h11.50.066,vowel_harmony,2023.2.3,Win32,59.81576744,443.3234,444.3223,,,,,,,,,,,,,,,,,,,,,,,,,,444.3223,445.1397,z,1,0.801,,445.1398,445.14,,0,156,156,280,1,281,adalek,,,,,6,notharmonic,1.85,nw,z,,,,,,,
,,,,,,,,,,,ayşe,001,2023-11-07_23h11.50.066,vowel_harmony,2023.2.3,Win32,59.81576744,445.1403,446.1332,,,,,,,,,,,,,,,,,,,,,,,,,,446.1334,446.7192,m,1,0.5589,,446.7193,446.7194,,0,157,157,96,1,97,dahil,3189,144.8955,3060,0.3345,5,notharmonic,1.7,word,m,,,,,,,
,,,,,,,,,,,ayşe,001,2023-11-07_23h11.50.066,vowel_harmony,2023.2.3,Win32,59.81576744,446.7198,447.7222,,,,,,,,,,,,,,,,,,,,,,,,,,447.7222,448.3681,m,1,0.6226,,448.3681,448.3682,,0,158,158,49,1,50,şeker,4708,213.9128,4170,0.4559,5,harmonic,1.6,word,m,,,,,,,
,,,,,,,,,,,ayşe,001,2023-11-07_23h11.50.066,vowel_harmony,2023.2.3,Win32,59.81576744,448.3685,449.371,,,,,,,,,,,,,,,,,,,,,,,,,,449.371,451.3654,,0,,,451.3655,451.366,,0,159,159,338,1,339,pardön,,,,,6,notharmonic,1.95,nw,z,,,,,,,
,,,,,,,,,,,ayşe,001,2023-11-07_23h11.50.066,vowel_harmony,2023.2.3,Win32,59.81576744,451.367,452.3663,,,,,,,,,,,,,,,,,,,,,,,,,,452.3663,453.0817,m,1,0.6888,,453.0818,453.0823,,0,160,160,13,1,14,nokta,2085,94.7341,1939,0.212,5,harmonic,1.5,word,m,,,,,,,
,,,,,,,,,,,ayşe,001,2023-11-07_23h11.50.066,vowel_harmony,2023.2.3,Win32,59.81576744,453.0833,454.0817,,,,,,,,,,,,,,,,,,,,,,,,,,454.0817,455.2148,m,1,1.1023,,455.215,455.2154,,0,161,161,164,1,165,sinema,1575,71.5618,1304,0.1426,6,notharmonic,1.8,word,m,,,,,,,
,,,,,,,,,,,ayşe,001,2023-11-07_23h11.50.066,vowel_harmony,2023.2.3,Win32,59.81576744,455.2163,456.2189,,,,,,,,,,,,,,,,,,,,,,,,,,456.2189,457.4361,m,1,1.2002,,457.4361,457.4362,,0,162,162,39,1,40,yaygın,1061,48.2076,1019,0.1114,6,harmonic,1.35,word,m,,,,,,,
,,,,,,,,,,,ayşe,001,2023-11-07_23h11.50.066,vowel_harmony,2023.2.3,Win32,59.81576744,457.4365,458.4312,,,,,,,,,,,,,,,,,,,,,,,,,,458.4314,459.6306,z,1,1.1718,,459.631,459.6316,,0,163,163,234,1,235,düzöt,,,,,5,harmonic,2.05,nw,z,,,,,,,
,,,,,,,,,,,ayşe,001,2023-11-07_23h11.50.066,vowel_harmony,2023.2.3,Win32,59.81576744,459.6401,460.6302,,,,,,,,,,,,,,,,,,,,,,,,,,460.6305,461.2863,z,1,0.6345,,461.2863,461.2864,,0,164,164,333,1,334,heyran,,,,,6,notharmonic,1.85,nw,z,,,,,,,
,,,,,,,,,,,ayşe,001,2023-11-07_23h11.50.066,vowel_harmony,2023.2.3,Win32,59.81576744,461.2868,462.2804,,,,,,,,,,,,,,,,,,,,,,,,,,462.2805,462.8682,z,1,0.5615,,462.8683,462.8683,,0,165,165,312,1,313,şahmin,,,,,6,notharmonic,1.8,nw,z,,,,,,,
,,,,,,,,,,,ayşe,001,2023-11-07_23h11.50.066,vowel_harmony,2023.2.3,Win32,59.81576744,462.8687,463.8624,,,,,,,,,,,,,,,,,,,,,,,,,,463.8624,464.4623,m,1,0.5688,,464.4625,464.4629,,0,166,166,99,1,100,ilave,3173,144.1685,2619,0.2863,5,notharmonic,1.85,word,m,,,,,,,
,,,,,,,,,,,ayşe,001,2023-11-07_23h11.50.066,vowel_harmony,2023.2.3,Win32,59.81576744,464.464,465.462,,,,,,,,,,,,,,,,,,,,,,,,,,465.4621,467.4618,,0,,,467.462,467.4623,,0,167,167,331,1,332,ehun,,,,,4,notharmonic,1.95,nw,z,,,,,,,
,,,,,,,,,,,ayşe,001,2023-11-07_23h11.50.066,vowel_harmony,2023.2.3,Win32,59.81576744,467.4633,468.4613,,,,,,,,,,,,,,,,,,,,,,,,,,468.4613,469.0782,z,1,0.5865,,469.0784,469.0787,,0,168,168,245,1,246,bıyan,,,,,5,harmonic,1.7,nw,z,,,,,,,
,,,,,,,,,,,ayşe,001,2023-11-07_23h11.50.066,vowel_harmony,2023.2.3,Win32,59.81576744,469.0796,470.0777,,,,,,,,,,,,,,,,,,,,,,,,,,470.0779,470.7112,m,1,0.6034,,470.7114,470.7118,,0,169,169,174,1,175,bugün,13879,630.6067,12842,1.4039,5,notharmonic,1.85,word,m,,,,,,,
,,,,,,,,,,,ayşe,001,2023-11-07_23h11.50.066,vowel_harmony,2023.2.3,Win32,59.81576744,470.7125,471.7112,,,,,,,,,,,,,,,,,,,,,,,,,,471.7113,472.3492,m,1,0.6168,,472.3492,472.3492,,0,170,170,124,1,125,ilan,1579,71.7435,1499,0.1639,4,notharmonic,1,word,m,,,,,,,
,,,,,,,,,,,ayşe,001,2023-11-07_23h11.50.066,vowel_harmony,2023.2.3,Win32,59.81576744,472.3496,473.3437,,,,,,,,,,,,,,,,,,,,,,,,,,473.3438,473.8935,m,1,0.5129,,473.8937,473.8941,,0,171,171,57,1,58,bölüm,1910,86.7828,1605,0.1755,5,harmonic,1.45,word,m,,,,,,,
,,,,,,,,,,,ayşe,001,2023-11-07_23h11.50.066,vowel_harmony,2023.2.3,Win32,59.81576744,473.8951,474.8933,,,,,,,,,,,,,,,,,,,,,,,,,,474.8934,475.2599,m,1,0.3363,,475.2601,475.2605,,0,172,172,5,1,6,bebek,3301,149.9843,2794,0.3054,5,harmonic,1.6,word,m,,,,,,,
,,,,,,,,,,,ayşe,001,2023-11-07_23h11.50.066,vowel_harmony,2023.2.3,Win32,59.81576744,475.2614,476.2649,,,,,,,,,,,,,,,,,,,,,,,,,,476.2649,477.0762,m,1,0.7832,,477.0763,477.0767,,0,173,173,24,1,25,yorgun,1153,52.3877,1108,0.1211,6,harmonic,1.55,word,m,,,,,,,
,,,,,,,,,,,ayşe,001,2023-11-07_23h11.50.066,vowel_harmony,2023.2.3,Win32,59.81576744,477.0777,478.0761,,,,,,,,,,,,,,,,,,,,,,,,,,478.0762,478.6307,m,1,0.5334,,478.6308,478.6308,,0,174,174,3,1,4,minik,2916,132.4915,2594,0.2836,5,harmonic,1.6,word,m,,,,,,,
,,,,,,,,,,,ayşe,001,2023-11-07_23h11.50.066,vowel_harmony,2023.2.3,Win32,59.81576744,478.631,479.6255,,,,,,,,,,,,,,,,,,,,,,,,,,479.6256,480.4086,z,1,0.7521,,480.4087,480.4092,,0,175,175,277,1,278,balsin,,,,,6,notharmonic,1.85,nw,z,,,,,,,
,,,,,,,,,,,ayşe,001,2023-11-07_23h11.50.066,vowel_harmony,2023.2.3,Win32,59.81576744,480.4102,481.4085,,,,,,,,,,,,,,,,,,,,,,,,,,481.4086,482.03,z,1,0.6002,,482.0301,482.0301,,0,176,176,294,1,295,mesap,,,,,5,notharmonic,1.8,nw,z,,,,,,,
,,,,,,,,,,,ayşe,001,2023-11-07_23h11.50.066,vowel_harmony,2023.2.3,Win32,59.81576744,482.0304,483.0302,,,,,,,,,,,,,,,,,,,,,,,,,,483.0303,483.7976,m,1,0.7458,,483.7977,483.7978,,0,177,177,46,1,47,takım,4370,198.5555,3726,0.4073,5,harmonic,1.7,word,m,,,,,,,
,,,,,,,,,,,ayşe,001,2023-11-07_23h11.50.066,vowel_harmony,2023.2.3,Win32,59.81576744,483.7981,484.791,,,,,,,,,,,,,,,,,,,,,,,,,,484.7911,486.5958,z,1,1.7834,,486.5958,486.5959,,0,178,178,345,1,346,bardeş,,,,,6,notharmonic,1.95,nw,z,,,,,,,
,,,,,,,,,,,ayşe,001,2023-11-07_23h11.50.066,vowel_harmony,2023.2.3,Win32,59.81576744,486.5963,487.5903,,,,,,,,,,,,,,,,,,,,,,,,,,487.5903,488.3567,m,1,0.7376,,488.3569,488.3573,,0,179,179,16,1,17,yavaş,5087,231.1331,2886,0.3155,5,harmonic,1.6,word,m,,,,,,,
,,,,,,,,,,,ayşe,001,2023-11-07_23h11.50.066,vowel_harmony,2023.2.3,Win32,59.81576744,488.3584,489.3567,,,,,,,,,,,,,,,,,,,,,,,,,,489.3568,489.9565,z,1,0.5708,,489.9567,489.9571,,0,180,180,213,1,214,kaun,,,,,4,harmonic,1.7,nw,z,,,,,,,
,,,,,,,,,,,ayşe,001,2023-11-07_23h11.50.066,vowel_harmony,2023.2.3,Win32,59.81576744,489.9581,490.9561,,,,,,,,,,,,,,,,,,,,,,,,,,490.9563,491.7728,z,1,0.7847,,491.7729,491.7734,,0,181,181,209,1,210,sapor,,,,,5,harmonic,1.8,nw,z,,,,,,,
,,,,,,,,,,,ayşe,001,2023-11-07_23h11.50.066,vowel_harmony,2023.2.3,Win32,59.81576744,491.7742,492.7724,,,,,,,,,,,,,,,,,,,,,,,,,,492.7725,493.2611,m,1,0.4617,,493.2611,493.2612,,0,182,182,115,1,116,saniye,1088,49.4344,984,0.1076,6,notharmonic,1.35,word,m,,,,,,,
,,,,,,,,,,,ayşe,001,2023-11-07_23h11.50.066,vowel_harmony,2023.2.3,Win32,59.81576744,493.2614,494.2557,,,,,,,,,,,,,,,,,,,,,,,,,,494.2558,494.8449,z,1,0.5679,,494.8449,494.845,,0,183,183,223,1,224,kakon,,,,,5,harmonic,1.85,nw,z,,,,,,,
,,,,,,,,,,,ayşe,001,2023-11-07_23h11.50.066,vowel_harmony,2023.2.3,Win32,59.81576744,494.8452,495.8383,,,,,,,,,,,,,,,,,,,,,,,,,,495.8384,496.5049,z,1,0.6315,,496.5051,496.5055,,0,184,184,237,1,238,taşal,,,,,5,harmonic,1.8,nw,z,,,,,,,
,,,,,,,,,,,ayşe,001,2023-11-07_23h11.50.066,vowel_harmony,2023.2.3,Win32,59.81576744,496.5067,497.5055,,,,,,,,,,,,,,,,,,,,,,,,,,497.5056,498.1882,m,1,0.6566,,498.1884,498.1888,,0,185,185,156,1,157,medya,1784,81.0579,1495,0.1634,5,notharmonic,1.35,word,m,,,,,,,
,,,,,,,,,,,ayşe,001,2023-11-07_23h11.50.066,vowel_harmony,2023.2.3,Win32,59.81576744,498.1895,499.1876,,,,,,,,,,,,,,,,,,,,,,,,,,499.1877,499.7595,m,1,0.545,,499.7595,499.7596,,0,186,186,36,1,37,meslek,1082,49.1618,976,0.1067,6,harmonic,1.9,word,m,,,,,,,
,,,,,,,,,,,ayşe,001,2023-11-07_23h11.50.066,vowel_harmony,2023.2.3,Win32,59.81576744,499.76,500.754,,,,,,,,,,,,,,,,,,,,,,,,,,500.754,501.2539,m,1,0.468,,501.254,501.2544,,0,187,187,138,1,139,kardeş,1270,57.7038,1174,0.1283,6,notharmonic,1.9,word,m,,,,,,,
,,,,,,,,,,,ayşe,001,2023-11-07_23h11.50.066,vowel_harmony,2023.2.3,Win32,59.81576744,501.2554,502.2541,,,,,,,,,,,,,,,,,,,,,,,,,,502.2543,503.0703,m,1,0.7793,,503.0704,503.0709,,0,188,188,38,1,39,dönem,2820,128.1296,2437,0.2664,5,harmonic,1.4,word,m,,,,,,,
,,,,,,,,,,,ayşe,001,2023-11-07_23h11.50.066,vowel_harmony,2023.2.3,Win32,59.81576744,503.0716,504.07,,,,,,,,,,,,,,,,,,,,,,,,,,504.0703,504.803,z,1,0.7013,,504.8031,504.8035,,0,189,189,282,1,283,taöz,,,,,4,notharmonic,1.9,nw,z,,,,,,,
,,,,,,,,,,,ayşe,001,2023-11-07_23h11.50.066,vowel_harmony,2023.2.3,Win32,59.81576744,504.8045,505.8076,,,,,,,,,,,,,,,,,,,,,,,,,,505.8076,506.4695,m,1,0.6383,,506.4696,506.4702,,0,190,190,154,1,155,sakin,1855,84.2838,1635,0.1787,5,notharmonic,1.05,word,m,,,,,,,
,,,,,,,,,,,ayşe,001,2023-11-07_23h11.50.066,vowel_harmony,2023.2.3,Win32,59.81576744,506.4709,507.4691,,,,,,,,,,,,,,,,,,,,,,,,,,507.4691,508.2521,m,1,0.7602,,508.2523,508.2526,,0,191,191,58,1,59,ayak,2143,97.3694,1931,0.2111,4,harmonic,1,word,m,,,,,,,
,,,,,,,,,,,ayşe,001,2023-11-07_23h11.50.066,vowel_harmony,2023.2.3,Win32,59.81576744,508.2536,509.2512,,,,,,,,,,,,,,,,,,,,,,,,,,509.2512,510.6342,m,1,1.3578,,510.6342,510.6343,,0,192,192,50,1,51,kanun,1198,54.4324,1010,0.1104,5,harmonic,1.6,word,m,,,,,,,
,,,,,,,,,,,ayşe,001,2023-11-07_23h11.50.066,vowel_harmony,2023.2.3,Win32,59.81576744,510.6357,511.634,,,,,,,,,,,,,,,,,,,,,,,,,,511.6341,512.3171,z,1,0.6632,,512.3172,512.3173,,0,193,193,310,1,311,yandeş,,,,,6,notharmonic,1.95,nw,z,,,,,,,
,,,,,,,,,,,ayşe,001,2023-11-07_23h11.50.066,vowel_harmony,2023.2.3,Win32,59.81576744,512.3187,513.3171,,,,,,,,,,,,,,,,,,,,,,,,,,513.3171,514.05,z,0,0.7064,,514.0501,514.0503,,0,194,194,126,1,127,adet,4367,198.4192,3768,0.4119,4,notharmonic,1.4,word,m,,,,,,,
,,,,,,,,,,,ayşe,001,2023-11-07_23h11.50.066,vowel_harmony,2023.2.3,Win32,59.81576744,514.0516,515.0508,,,,,,,,,,,,,,,,,,,,,,,,,,515.0511,515.6681,m,1,0.5903,,515.6682,515.6686,,0,195,195,123,1,124,haber,4559,207.1429,4151,0.4538,5,notharmonic,1.85,word,m,,,,,,,
,,,,,,,,,,,ayşe,001,2023-11-07_23h11.50.066,vowel_harmony,2023.2.3,Win32,59.81576744,515.669,516.672,,,,,,,,,,,,,,,,,,,,,,,,,,516.672,517.2359,m,1,0.5424,,517.236,517.236,,0,196,196,27,1,28,bölge,1283,58.2944,1123,0.1228,5,harmonic,1.65,word,m,,,,,,,
,,,,,,,,,,,ayşe,001,2023-11-07_23h11.50.066,vowel_harmony,2023.2.3,Win32,59.81576744,517.2363,518.2332,,,,,,,,,,,,,,,,,,,,,,,,,,518.2333,519.2378,z,1,0.9832,,519.2378,519.2379,,0,197,197,290,1,291,aipa,,,,,4,notharmonic,1.95,nw,z,,,,,,,
,,,,,,,,,,,ayşe,001,2023-11-07_23h11.50.066,vowel_harmony,2023.2.3,Win32,59.81576744,519.2383,520.2326,,,,,,,,,,,,,,,,,,,,,,,,,,520.2327,521.799,z,1,1.5377,,521.7991,521.7996,,0,198,198,238,1,239,kocı,,,,,4,harmonic,1.95,nw,z,,,,,,,
,,,,,,,,,,,ayşe,001,2023-11-07_23h11.50.066,vowel_harmony,2023.2.3,Win32,59.81576744,521.8087,522.7987,,,,,,,,,,,,,,,,,,,,,,,,,,522.7988,523.45,z,1,0.6285,,523.45,523.4501,,0,199,199,326,1,327,ailo,,,,,4,notharmonic,1.75,nw,z,,,,,,,
,,,,,,,,,,,ayşe,001,2023-11-07_23h11.50.066,vowel_harmony,2023.2.3,Win32,59.81576744,523.4504,524.4486,,,,,,,,,,,,,,,,,,,,,,,,,,524.4487,525.3319,z,1,0.8521,,525.3321,525.3325,,0,200,200,319,1,320,biho,,,,,4,notharmonic,2,nw,z,,,,,,,
,,,,,,,,,,,ayşe,001,2023-11-07_23h11.50.066,vowel_harmony,2023.2.3,Win32,59.81576744,525.3332,526.3314,,,,,,,,,,,,,,,,,,,,,,,,,,526.3316,526.8979,m,1,0.5347,,526.8981,526.8985,,0,201,201,87,1,88,mümkün,6604,300.0596,6264,0.6848,6,harmonic,1.9,word,m,,,,,,,
,,,,,,,,,,,ayşe,001,2023-11-07_23h11.50.066,vowel_harmony,2023.2.3,Win32,59.81576744,526.8994,527.8978,,,,,,,,,,,,,,,,,,,,,,,,,,527.8979,528.8156,z,1,0.8898,,528.8156,528.8156,,0,202,202,354,1,355,taden,,,,,5,notharmonic,1.7,nw,z,,,,,,,
,,,,,,,,,,,ayşe,001,2023-11-07_23h11.50.066,vowel_harmony,2023.2.3,Win32,59.81576744,528.8159,529.8139,,,,,,,,,,,,,,,,,,,,,,,,,,529.814,530.4805,m,1,0.6348,,530.4808,530.4812,,0,203,203,76,1,77,ilişki,1675,76.1054,1524,0.1666,6,harmonic,1.8,word,m,,,,,,,
,,,,,,,,,,,ayşe,001,2023-11-07_23h11.50.066,vowel_harmony,2023.2.3,Win32,59.81576744,530.4819,531.48,,,,,,,,,,,,,,,,,,,,,,,,,,531.4801,532.0134,m,1,0.4958,,532.0135,532.014,,0,204,204,98,1,99,paket,1532,69.608,1392,0.1522,5,notharmonic,1.55,word,m,,,,,,,
,,,,,,,,,,,ayşe,001,2023-11-07_23h11.50.066,vowel_harmony,2023.2.3,Win32,59.81576744,532.0149,533.013,,,,,,,,,,,,,,,,,,,,,,,,,,533.0131,533.9629,z,1,0.9215,,533.963,533.9635,,0,205,205,287,1,288,haköm,,,,,5,notharmonic,1.9,nw,z,,,,,,,
,,,,,,,,,,,ayşe,001,2023-11-07_23h11.50.066,vowel_harmony,2023.2.3,Win32,59.81576744,533.9644,534.9627,,,,,,,,,,,,,,,,,,,,,,,,,,534.9628,535.5624,m,1,0.5625,,535.5626,535.563,,0,206,206,101,1,102,imza,1358,61.7021,1253,0.137,4,notharmonic,1.65,word,m,,,,,,,
,,,,,,,,,,,ayşe,001,2023-11-07_23h11.50.066,vowel_harmony,2023.2.3,Win32,59.81576744,535.564,536.562,,,,,,,,,,,,,,,,,,,,,,,,,,536.5622,537.129,z,1,0.5399,,537.1293,537.1297,,0,207,207,297,1,298,sapet,,,,,5,notharmonic,1.85,nw,z,,,,,,,
,,,,,,,,,,,ayşe,001,2023-11-07_23h11.50.066,vowel_harmony,2023.2.3,Win32,59.81576744,537.1304,538.1337,,,,,,,,,,,,,,,,,,,,,,,,,,538.1337,538.7951,z,1,0.6372,,538.7953,538.7958,,0,208,208,231,1,232,norgun,,,,,6,harmonic,1.75,nw,z,,,,,,,
,,,,,,,,,,,ayşe,001,2023-11-07_23h11.50.066,vowel_harmony,2023.2.3,Win32,59.81576744,538.7967,539.7946,,,,,,,,,,,,,,,,,,,,,,,,,,539.7947,540.3781,z,1,0.5513,,540.3783,540.3788,,0,209,209,298,1,299,yelsın,,,,,6,notharmonic,1.95,nw,z,,,,,,,
,,,,,,,,,,,ayşe,001,2023-11-07_23h11.50.066,vowel_harmony,2023.2.3,Win32,59.81576744,540.3796,541.3776,,,,,,,,,,,,,,,,,,,,,,,,,,541.3779,541.9277,z,1,0.5195,,541.9279,541.9283,,0,210,210,202,1,203,güvin,,,,,5,harmonic,1.95,nw,z,,,,,,,
,,,,,,,,,,,ayşe,001,2023-11-07_23h11.50.066,vowel_harmony,2023.2.3,Win32,59.81576744,541.9292,542.9274,,,,,,,,,,,,,,,,,,,,,,,,,,542.9275,543.6772,m,1,0.7178,,543.6774,543.6778,,0,211,211,139,1,140,lira,1253,56.9314,947,0.1035,4,notharmonic,1.4,word,m,,,,,,,
,,,,,,,,,,,ayşe,001,2023-11-07_23h11.50.066,vowel_harmony,2023.2.3,Win32,59.81576744,543.6788,544.677,,,,,,,,,,,,,,,,,,,,,,,,,,544.6771,545.4267,m,1,0.7197,,545.4269,545.4274,,0,212,212,119,1,120,kulüp,649,29.488,467,0.0511,5,notharmonic,1.4,word,m,,,,,,,
,,,,,,,,,,,ayşe,001,2023-11-07_23h11.50.066,vowel_harmony,2023.2.3,Win32,59.81576744,545.4282,546.4265,,,,,,,,,,,,,,,,,,,,,,,,,,546.4267,547.1435,z,1,0.6846,,547.1437,547.1441,,0,213,213,191,1,192,doab,,,,,4,harmonic,2,nw,z,,,,,,,
,,,,,,,,,,,ayşe,001,2023-11-07_23h11.50.066,vowel_harmony,2023.2.3,Win32,59.81576744,547.1447,548.1445,,,,,,,,,,,,,,,,,,,,,,,,,,548.1445,548.6593,m,1,0.4794,,548.6595,548.6599,,0,214,214,177,1,178,tekrar,10788,490.1639,9352,1.0224,6,notharmonic,1.85,word,m,,,,,,,
,,,,,,,,,,,ayşe,001,2023-11-07_23h11.50.066,vowel_harmony,2023.2.3,Win32,59.81576744,548.661,549.6591,,,,,,,,,,,,,,,,,,,,,,,,,,549.6592,550.8589,z,1,1.1703,,550.8591,550.8595,,0,215,215,252,1,253,anlgı,,,,,5,harmonic,1.9,nw,z,,,,,,,
,,,,,,,,,,,ayşe,001,2023-11-07_23h11.50.066,vowel_harmony,2023.2.3,Win32,59.81576744,550.8605,551.8587,,,,,,,,,,,,,,,,,,,,,,,,,,551.8588,552.6431,m,1,0.7524,,552.6433,552.6434,,0,216,216,40,1,41,tepki,1695,77.0141,1578,0.1725,5,harmonic,1.55,word,m,,,,,,,
,,,,,,,,,,,ayşe,001,2023-11-07_23h11.50.066,vowel_harmony,2023.2.3,Win32,59.81576744,552.6437,553.6473,,,,,,,,,,,,,,,,,,,,,,,,,,553.6473,554.2082,m,1,0.5292,,554.2084,554.2087,,0,217,217,148,1,149,selam,1868,84.8745,1764,0.1928,5,notharmonic,1.35,word,m,,,,,,,
,,,,,,,,,,,ayşe,001,2023-11-07_23h11.50.066,vowel_harmony,2023.2.3,Win32,59.81576744,554.2097,555.2081,,,,,,,,,,,,,,,,,,,,,,,,,,555.2083,555.7591,m,1,0.52,,555.7592,555.7593,,0,218,218,111,1,112,kahve,2634,119.6785,2283,0.2496,5,notharmonic,1.85,word,m,,,,,,,
,,,,,,,,,,,ayşe,001,2023-11-07_23h11.50.066,vowel_harmony,2023.2.3,Win32,59.81576744,555.7598,556.7574,,,,,,,,,,,,,,,,,,,,,,,,,,556.7574,557.3956,z,1,0.6112,,557.3957,557.3957,,0,219,219,235,1,236,oşup,,,,,4,harmonic,1.75,nw,z,,,,,,,
,,,,,,,,,,,ayşe,001,2023-11-07_23h11.50.066,vowel_harmony,2023.2.3,Win32,59.81576744,557.396,558.3905,,,,,,,,,,,,,,,,,,,,,,,,,,558.3905,558.9071,z,1,0.4844,,558.9073,558.9077,,0,220,220,200,1,201,duşın,,,,,5,harmonic,1.9,nw,z,,,,,,,
,,,,,,,,,,,ayşe,001,2023-11-07_23h11.50.066,vowel_harmony,2023.2.3,Win32,59.81576744,558.9087,559.907,,,,,,,,,,,,,,,,,,,,,,,,,,559.9072,560.4067,z,1,0.4669,,560.4069,560.4075,,0,221,221,249,1,250,hurıt,,,,,5,harmonic,1.95,nw,z,,,,,,,
,,,,,,,,,,,ayşe,001,2023-11-07_23h11.50.066,vowel_harmony,2023.2.3,Win32,59.81576744,560.4083,561.4064,,,,,,,,,,,,,,,,,,,,,,,,,,561.4065,561.9229,z,1,0.4914,,561.9231,561.9235,,0,222,222,269,1,270,vekü,,,,,4,harmonic,2,nw,z,,,,,,,
,,,,,,,,,,,ayşe,001,2023-11-07_23h11.50.066,vowel_harmony,2023.2.3,Win32,59.81576744,561.9246,562.9225,,,,,,,,,,,,,,,,,,,,,,,,,,562.9227,563.4944,z,1,0.5448,,563.4944,563.4945,,0,223,223,278,1,279,sekon,,,,,5,notharmonic,1.85,nw,z,,,,,,,
,,,,,,,,,,,ayşe,001,2023-11-07_23h11.50.066,vowel_harmony,2023.2.3,Win32,59.81576744,563.4948,564.4892,,,,,,,,,,,,,,,,,,,,,,,,,,564.4894,565.023,z,1,0.5008,,565.0232,565.0235,,0,224,224,291,1,292,mepan,,,,,5,notharmonic,1.75,nw,z,,,,,,,
,,,,,,,,,,,ayşe,001,2023-11-07_23h11.50.066,vowel_harmony,2023.2.3,Win32,59.81576744,565.0241,566.0223,,,,,,,,,,,,,,,,,,,,,,,,,,566.0225,567.0052,z,1,0.9463,,567.0054,567.006,,0,225,225,255,1,256,yokın,,,,,5,harmonic,1.85,nw,z,,,,,,,
,,,,,,,,,,,ayşe,001,2023-11-07_23h11.50.066,vowel_harmony,2023.2.3,Win32,59.81576744,567.0067,568.0054,,,,,,,,,,,,,,,,,,,,,,,,,,568.0056,568.7384,m,1,0.7021,,568.7386,568.739,,0,226,226,113,1,114,model,1200,54.5232,1082,0.1183,5,notharmonic,1.75,word,m,,,,,,,
,,,,,,,,,,,ayşe,001,2023-11-07_23h11.50.066,vowel_harmony,2023.2.3,Win32,59.81576744,568.7397,569.7379,,,,,,,,,,,,,,,,,,,,,,,,,,569.7379,570.371,z,1,0.6008,,570.3712,570.3717,,0,227,227,348,1,349,aife,,,,,4,notharmonic,1.75,nw,z,,,,,,,
,,,,,,,,,,,ayşe,001,2023-11-07_23h11.50.066,vowel_harmony,2023.2.3,Win32,59.81576744,570.3726,571.3707,,,,,,,,,,,,,,,,,,,,,,,,,,571.3709,571.8874,m,1,0.4919,,571.8876,571.8882,,0,228,228,43,1,44,geniş,3380,153.5738,3185,0.3482,5,harmonic,1.35,word,m,,,,,,,
,,,,,,,,,,,ayşe,001,2023-11-07_23h11.50.066,vowel_harmony,2023.2.3,Win32,59.81576744,571.8889,572.8871,,,,,,,,,,,,,,,,,,,,,,,,,,572.8873,573.4535,z,1,0.5292,,573.4536,573.4541,,0,229,229,350,1,351,resun,,,,,5,notharmonic,1.85,nw,z,,,,,,,
,,,,,,,,,,,ayşe,001,2023-11-07_23h11.50.066,vowel_harmony,2023.2.3,Win32,59.81576744,573.4551,574.4556,,,,,,,,,,,,,,,,,,,,,,,,,,574.4556,575.1701,m,1,0.6855,,575.1704,575.1708,,0,230,230,165,1,166,gazete,1402,63.7013,1270,0.1388,6,notharmonic,1.8,word,m,,,,,,,
,,,,,,,,,,,ayşe,001,2023-11-07_23h11.50.066,vowel_harmony,2023.2.3,Win32,59.81576744,575.1715,576.1696,,,,,,,,,,,,,,,,,,,,,,,,,,576.1696,576.8434,m,1,0.6465,,576.8435,576.8436,,0,231,231,161,1,162,komik,1617,73.4701,1506,0.1646,5,notharmonic,1.75,word,m,,,,,,,
,,,,,,,,,,,ayşe,001,2023-11-07_23h11.50.066,vowel_harmony,2023.2.3,Win32,59.81576744,576.844,577.8416,,,,,,,,,,,,,,,,,,,,,,,,,,577.8416,578.4858,m,1,0.6207,,578.486,578.4866,,0,232,232,42,1,43,ürün,2268,103.0489,1954,0.2136,4,harmonic,1.1,word,m,,,,,,,
,,,,,,,,,,,ayşe,001,2023-11-07_23h11.50.066,vowel_harmony,2023.2.3,Win32,59.81576744,578.4874,579.4855,,,,,,,,,,,,,,,,,,,,,,,,,,579.4855,579.9694,m,1,0.4491,,579.9696,579.9701,,0,233,233,33,1,34,moda,1381,62.7472,1231,0.1346,4,harmonic,1.55,word,m,,,,,,,
,,,,,,,,,,,ayşe,001,2023-11-07_23h11.50.066,vowel_harmony,2023.2.3,Win32,59.81576744,579.9705,580.9698,,,,,,,,,,,,,,,,,,,,,,,,,,580.9699,581.6739,z,1,0.6838,,581.6739,581.6739,,0,234,234,242,1,243,kahon,,,,,5,harmonic,1.85,nw,z,,,,,,,
,,,,,,,,,,,ayşe,001,2023-11-07_23h11.50.066,vowel_harmony,2023.2.3,Win32,59.81576744,581.6744,582.668,,,,,,,,,,,,,,,,,,,,,,,,,,582.6683,583.318,m,1,0.6168,,583.3183,583.319,,0,235,235,107,1,108,merak,5806,263.8016,5524,0.6039,5,notharmonic,1.65,word,m,,,,,,,
,,,,,,,,,,,ayşe,001,2023-11-07_23h11.50.066,vowel_harmony,2023.2.3,Win32,59.81576744,583.3197,584.3177,,,,,,,,,,,,,,,,,,,,,,,,,,584.3179,584.8017,z,1,0.4551,,584.8023,584.8025,,0,236,236,328,1,329,kirul,,,,,5,notharmonic,1.95,nw,z,,,,,,,
,,,,,,,,,,,ayşe,001,2023-11-07_23h11.50.066,vowel_harmony,2023.2.3,Win32,59.81576744,584.8029,585.8055,,,,,,,,,,,,,,,,,,,,,,,,,,585.8056,586.5059,m,1,0.6783,,586.5059,586.5059,,0,237,237,91,1,92,ifade,6177,280.6584,5726,0.626,5,notharmonic,1.7,word,m,,,,,,,
,,,,,,,,,,,ayşe,001,2023-11-07_23h11.50.066,vowel_harmony,2023.2.3,Win32,59.81576744,586.5063,587.5002,,,,,,,,,,,,,,,,,,,,,,,,,,587.5004,588.168,z,1,0.6415,,588.1683,588.1684,,0,238,238,302,1,303,işgar,,,,,5,notharmonic,1.9,nw,z,,,,,,,
,,,,,,,,,,,ayşe,001,2023-11-07_23h11.50.066,vowel_harmony,2023.2.3,Win32,59.81576744,588.1689,589.1665,,,,,,,,,,,,,,,,,,,,,,,,,,589.1667,589.6379,m,1,0.4446,,589.6379,589.638,,0,239,239,73,1,74,millet,1658,75.3329,1508,0.1649,6,harmonic,1.7,word,m,,,,,,,
,,,,,,,,,,,ayşe,001,2023-11-07_23h11.50.066,vowel_harmony,2023.2.3,Win32,59.81576744,589.6385,590.6329,,,,,,,,,,,,,,,,,,,,,,,,,,590.633,591.1662,z,1,0.507,,591.1665,610.7798,space,0,240,240,192,1,193,vecö,,,,,4,harmonic,1.95,nw,z,19.5859,,,,,,
,,,,,,,,,,,ayşe,001,2023-11-07_23h11.50.066,vowel_harmony,2023.2.3,Win32,59.81576744,610.7908,611.7838,,,,,,,,,,,,,,,,,,,,,,,,,,611.7839,612.3674,m,1,0.5677,,612.3675,612.3675,,0,241,241,56,1,57,sağlam,1818,82.6027,1720,0.188,6,harmonic,1.6,word,m,,,,,,,
,,,,,,,,,,,ayşe,001,2023-11-07_23h11.50.066,vowel_harmony,2023.2.3,Win32,59.81576744,612.368,613.3624,,,,,,,,,,,,,,,,,,,,,,,,,,613.3624,613.8683,m,1,0.479,,613.8683,613.8684,,0,242,242,175,1,176,aile,3655,166.0687,3126,0.3417,4,notharmonic,1,word,m,,,,,,,
,,,,,,,,,,,ayşe,001,2023-11-07_23h11.50.066,vowel_harmony,2023.2.3,Win32,59.81576744,613.8687,614.866,,,,,,,,,,,,,,,,,,,,,,,,,,614.8661,615.5339,z,1,0.6513,,615.5339,615.5341,,0,243,243,279,1,280,tadde,,,,,5,notharmonic,1.8,nw,z,,,,,,,
,,,,,,,,,,,ayşe,001,2023-11-07_23h11.50.066,vowel_harmony,2023.2.3,Win32,59.81576744,615.5344,616.5279,,,,,,,,,,,,,,,,,,,,,,,,,,616.5281,617.215,m,1,0.661,,617.215,617.2151,,0,244,244,157,1,158,aktif,1062,48.2531,986,0.1078,5,notharmonic,1.9,word,m,,,,,,,
,,,,,,,,,,,ayşe,001,2023-11-07_23h11.50.066,vowel_harmony,2023.2.3,Win32,59.81576744,617.2155,618.2103,,,,,,,,,,,,,,,,,,,,,,,,,,618.2105,619.0318,z,1,0.8004,,619.0318,619.0319,,0,245,245,263,1,264,duzur,,,,,5,harmonic,1.8,nw,z,,,,,,,
,,,,,,,,,,,ayşe,001,2023-11-07_23h11.50.066,vowel_harmony,2023.2.3,Win32,59.81576744,619.0323,620.0307,,,,,,,,,,,,,,,,,,,,,,,,,,620.0307,620.5602,m,1,0.5021,,620.5604,620.5607,,0,246,246,155,1,156,ilaç,1366,62.0656,1215,0.1328,4,notharmonic,1.75,word,m,,,,,,,
,,,,,,,,,,,ayşe,001,2023-11-07_23h11.50.066,vowel_harmony,2023.2.3,Win32,59.81576744,620.5611,621.5648,,,,,,,,,,,,,,,,,,,,,,,,,,621.5649,622.1935,z,1,0.6031,,622.1936,622.1937,,0,247,247,251,1,252,oştay,,,,,5,harmonic,1.95,nw,z,,,,,,,
,,,,,,,,,,,ayşe,001,2023-11-07_23h11.50.066,vowel_harmony,2023.2.3,Win32,59.81576744,622.194,623.1932,,,,,,,,,,,,,,,,,,,,,,,,,,623.1932,623.9141,z,1,0.6946,,623.9141,623.9142,,0,248,248,239,1,240,şekik,,,,,5,harmonic,1.7,nw,z,,,,,,,
,,,,,,,,,,,ayşe,001,2023-11-07_23h11.50.066,vowel_harmony,2023.2.3,Win32,59.81576744,623.9146,624.9096,,,,,,,,,,,,,,,,,,,,,,,,,,624.9096,625.4427,m,1,0.5022,,625.4429,625.4432,,0,249,249,172,1,173,milyar,1496,67.9723,1078,0.1178,6,notharmonic,1.85,word,m,,,,,,,
,,,,,,,,,,,ayşe,001,2023-11-07_23h11.50.066,vowel_harmony,2023.2.3,Win32,59.81576744,625.4436,626.4424,,,,,,,,,,,,,,,,,,,,,,,,,,626.4425,627.0593,m,1,0.5815,,627.0593,627.0594,,0,250,250,53,1,54,gelir,7578,344.3143,7014,0.7668,5,harmonic,1.4,word,m,,,,,,,
,,,,,,,,,,,ayşe,001,2023-11-07_23h11.50.066,vowel_harmony,2023.2.3,Win32,59.81576744,627.0599,628.0577,,,,,,,,,,,,,,,,,,,,,,,,,,628.0578,628.6741,z,1,0.5907,,628.6742,628.6747,,0,251,251,343,1,344,tarne,,,,,5,notharmonic,1.85,nw,z,,,,,,,
,,,,,,,,,,,ayşe,001,2023-11-07_23h11.50.066,vowel_harmony,2023.2.3,Win32,59.81576744,628.6756,629.6737,,,,,,,,,,,,,,,,,,,,,,,,,,629.6738,630.3124,m,1,0.6118,,630.3124,630.3124,,0,252,252,26,1,27,sebze,1094,49.707,961,0.1051,5,harmonic,1.9,word,m,,,,,,,
,,,,,,,,,,,ayşe,001,2023-11-07_23h11.50.066,vowel_harmony,2023.2.3,Win32,59.81576744,630.3127,631.3067,,,,,,,,,,,,,,,,,,,,,,,,,,631.3068,631.8902,m,1,0.56,,631.8904,631.8908,,0,253,253,32,1,33,temel,4231,192.2399,3851,0.421,5,harmonic,1.55,word,m,,,,,,,
,,,,,,,,,,,ayşe,001,2023-11-07_23h11.50.066,vowel_harmony,2023.2.3,Win32,59.81576744,631.8916,632.8897,,,,,,,,,,,,,,,,,,,,,,,,,,632.8898,633.591,z,1,0.6733,,633.5911,633.5911,,0,254,254,292,1,293,kinam,,,,,5,notharmonic,1.85,nw,z,,,,,,,
,,,,,,,,,,,ayşe,001,2023-11-07_23h11.50.066,vowel_harmony,2023.2.3,Win32,59.81576744,633.5915,634.5892,,,,,,,,,,,,,,,,,,,,,,,,,,634.5893,635.4559,z,1,0.8435,,635.4561,635.4564,,0,255,255,342,1,343,kulön,,,,,5,notharmonic,1.9,nw,z,,,,,,,
,,,,,,,,,,,ayşe,001,2023-11-07_23h11.50.066,vowel_harmony,2023.2.3,Win32,59.81576744,635.4573,636.4555,,,,,,,,,,,,,,,,,,,,,,,,,,636.4555,637.0079,m,1,0.5257,,637.0079,637.008,,0,256,256,109,1,110,milyon,3936,178.8362,2958,0.3234,6,notharmonic,1.75,word,m,,,,,,,
,,,,,,,,,,,ayşe,001,2023-11-07_23h11.50.066,vowel_harmony,2023.2.3,Win32,59.81576744,637.0082,638.0052,,,,,,,,,,,,,,,,,,,,,,,,,,638.0052,638.6908,z,1,0.6644,,638.6909,638.691,,0,257,257,212,1,213,ortat,,,,,5,harmonic,1.7,nw,z,,,,,,,
,,,,,,,,,,,ayşe,001,2023-11-07_23h11.50.066,vowel_harmony,2023.2.3,Win32,59.81576744,638.6914,639.6883,,,,,,,,,,,,,,,,,,,,,,,,,,639.6884,640.4098,z,1,0.6952,,640.4098,640.4099,,0,258,258,357,1,358,işarek,,,,,6,notharmonic,1.95,nw,z,,,,,,,
,,,,,,,,,,,ayşe,001,2023-11-07_23h11.50.066,vowel_harmony,2023.2.3,Win32,59.81576744,640.4103,641.4043,,,,,,,,,,,,,,,,,,,,,,,,,,641.4044,642.9542,z,1,1.5179,,642.9543,642.9547,,0,259,259,227,1,228,zekö,,,,,4,harmonic,1.9,nw,z,,,,,,,
,,,,,,,,,,,ayşe,001,2023-11-07_23h11.50.066,vowel_harmony,2023.2.3,Win32,59.81576744,642.9556,643.9537,,,,,,,,,,,,,,,,,,,,,,,,,,643.9538,644.5868,z,1,0.6103,,644.587,644.5874,,0,260,260,339,1,340,asmel,,,,,5,notharmonic,1.95,nw,z,,,,,,,
,,,,,,,,,,,ayşe,001,2023-11-07_23h11.50.066,vowel_harmony,2023.2.3,Win32,59.81576744,644.5884,645.5867,,,,,,,,,,,,,,,,,,,,,,,,,,645.5868,646.4033,z,1,0.7878,,646.4033,646.4038,,0,261,261,322,1,323,normin,,,,,6,notharmonic,1.95,nw,z,,,,,,,
,,,,,,,,,,,ayşe,001,2023-11-07_23h11.50.066,vowel_harmony,2023.2.3,Win32,59.81576744,646.4048,647.4031,,,,,,,,,,,,,,,,,,,,,,,,,,647.4033,647.9861,z,1,0.5512,,647.9862,647.9866,,0,262,262,201,1,202,ergiy,,,,,5,harmonic,1.85,nw,z,,,,,,,
,,,,,,,,,,,ayşe,001,2023-11-07_23h11.50.066,vowel_harmony,2023.2.3,Win32,59.81576744,647.9877,648.9859,,,,,,,,,,,,,,,,,,,,,,,,,,648.9861,649.5859,m,1,0.5651,,649.586,649.5865,,0,263,263,14,1,15,yaşam,4348,197.5559,3918,0.4283,5,harmonic,1.4,word,m,,,,,,,
,,,,,,,,,,,ayşe,001,2023-11-07_23h11.50.066,vowel_harmony,2023.2.3,Win32,59.81576744,649.5873,650.5856,,,,,,,,,,,,,,,,,,,,,,,,,,650.5858,651.1686,m,1,0.5514,,651.1688,651.1692,,0,264,264,8,1,9,güven,1433,65.1098,1300,0.1421,5,harmonic,1.35,word,m,,,,,,,
,,,,,,,,,,,ayşe,001,2023-11-07_23h11.50.066,vowel_harmony,2023.2.3,Win32,59.81576744,651.1702,652.1685,,,,,,,,,,,,,,,,,,,,,,,,,,652.1687,652.6583,m,1,0.463,,652.6583,652.6584,,0,265,265,114,1,115,nisan,2321,105.457,2044,0.2235,5,notharmonic,1.6,word,m,,,,,,,
,,,,,,,,,,,ayşe,001,2023-11-07_23h11.50.066,vowel_harmony,2023.2.3,Win32,59.81576744,652.6586,653.6519,,,,,,,,,,,,,,,,,,,,,,,,,,653.652,654.1346,m,1,0.4583,,654.1348,654.1352,,0,266,266,30,1,31,çevre,1662,75.5147,1409,0.154,5,harmonic,1.55,word,m,,,,,,,
,,,,,,,,,,,ayşe,001,2023-11-07_23h11.50.066,vowel_harmony,2023.2.3,Win32,59.81576744,654.1363,655.1346,,,,,,,,,,,,,,,,,,,,,,,,,,655.1347,655.5343,m,1,0.3666,,655.5345,655.535,,0,267,267,29,1,30,huzur,1911,86.8283,1799,0.1967,5,harmonic,1.8,word,m,,,,,,,
,,,,,,,,,,,ayşe,001,2023-11-07_23h11.50.066,vowel_harmony,2023.2.3,Win32,59.81576744,655.5359,656.5344,,,,,,,,,,,,,,,,,,,,,,,,,,656.5346,657.0673,m,0,0.5044,,657.0675,657.0679,,0,268,268,316,1,317,misaf,,,,,5,notharmonic,1.85,nw,z,,,,,,,
,,,,,,,,,,,ayşe,001,2023-11-07_23h11.50.066,vowel_harmony,2023.2.3,Win32,59.81576744,657.0689,658.072,,,,,,,,,,,,,,,,,,,,,,,,,,658.072,660.0667,,0,,,660.0668,660.0672,,0,269,269,243,1,244,korguf,,,,,6,harmonic,2,nw,z,,,,,,,
,,,,,,,,,,,ayşe,001,2023-11-07_23h11.50.066,vowel_harmony,2023.2.3,Win32,59.81576744,660.0682,661.0664,,,,,,,,,,,,,,,,,,,,,,,,,,661.0665,661.7663,m,1,0.6683,,661.7665,661.7669,,0,270,270,106,1,107,esnaf,315,14.3124,284,0.031,5,notharmonic,1.55,word,m,,,,,,,
,,,,,,,,,,,ayşe,001,2023-11-07_23h11.50.066,vowel_harmony,2023.2.3,Win32,59.81576744,661.7678,662.7662,,,,,,,,,,,,,,,,,,,,,,,,,,662.7663,663.3161,m,0,0.5146,,663.3163,663.3166,,0,271,271,271,1,272,mimal,,,,,5,notharmonic,1.8,nw,z,,,,,,,
,,,,,,,,,,,ayşe,001,2023-11-07_23h11.50.066,vowel_harmony,2023.2.3,Win32,59.81576744,663.3175,664.3158,,,,,,,,,,,,,,,,,,,,,,,,,,664.3159,665.6153,z,1,1.2685,,665.6155,665.6159,,0,272,272,313,1,314,ikas,,,,,4,notharmonic,1.85,nw,z,,,,,,,
,,,,,,,,,,,ayşe,001,2023-11-07_23h11.50.066,vowel_harmony,2023.2.3,Win32,59.81576744,665.6168,666.6151,,,,,,,,,,,,,,,,,,,,,,,,,,666.6152,667.165,m,1,0.5195,,667.1651,667.1656,,0,273,273,86,1,87,gerçek,8983,408.1519,8058,0.8809,6,harmonic,1.7,word,m,,,,,,,
,,,,,,,,,,,ayşe,001,2023-11-07_23h11.50.066,vowel_harmony,2023.2.3,Win32,59.81576744,667.1665,668.1648,,,,,,,,,,,,,,,,,,,,,,,,,,668.1649,668.9479,m,1,0.753,,668.9482,668.9486,,0,274,274,158,1,159,klasik,1871,85.0108,1734,0.1896,6,notharmonic,2,word,m,,,,,,,
,,,,,,,,,,,ayşe,001,2023-11-07_23h11.50.066,vowel_harmony,2023.2.3,Win32,59.81576744,668.9495,669.9487,,,,,,,,,,,,,,,,,,,,,,,,,,669.9488,670.6141,z,1,0.64,,670.6143,670.6147,,0,275,275,262,1,263,sauk,,,,,4,harmonic,1.85,nw,z,,,,,,,
,,,,,,,,,,,ayşe,001,2023-11-07_23h11.50.066,vowel_harmony,2023.2.3,Win32,59.81576744,670.6158,671.614,,,,,,,,,,,,,,,,,,,,,,,,,,671.614,672.4805,z,1,0.8309,,672.4807,672.4812,,0,276,276,267,1,268,nokuma,,,,,6,harmonic,1.75,nw,z,,,,,,,
,,,,,,,,,,,ayşe,001,2023-11-07_23h11.50.066,vowel_harmony,2023.2.3,Win32,59.81576744,672.482,673.4803,,,,,,,,,,,,,,,,,,,,,,,,,,673.4804,673.9634,z,1,0.4513,,673.9636,673.9641,,0,277,277,214,1,215,vecü,,,,,4,harmonic,1.95,nw,z,,,,,,,
,,,,,,,,,,,ayşe,001,2023-11-07_23h11.50.066,vowel_harmony,2023.2.3,Win32,59.81576744,673.965,674.9631,,,,,,,,,,,,,,,,,,,,,,,,,,674.9633,675.4801,z,1,0.4816,,675.4802,675.4806,,0,278,278,317,1,318,mevul,,,,,5,notharmonic,1.95,nw,z,,,,,,,
,,,,,,,,,,,ayşe,001,2023-11-07_23h11.50.066,vowel_harmony,2023.2.3,Win32,59.81576744,675.4814,676.4794,,,,,,,,,,,,,,,,,,,,,,,,,,676.4796,676.9127,m,0,0.3961,,676.9128,676.9132,,0,279,279,347,1,348,tekram,,,,,6,notharmonic,1.95,nw,z,,,,,,,
,,,,,,,,,,,ayşe,001,2023-11-07_23h11.50.066,vowel_harmony,2023.2.3,Win32,59.81576744,676.9143,677.9124,,,,,,,,,,,,,,,,,,,,,,,,,,677.9125,678.6291,m,1,0.688,,678.6292,678.6296,,0,280,280,77,1,78,ufak,3252,147.758,2980,0.3258,4,harmonic,1.5,word,m,,,,,,,
,,,,,,,,,,,ayşe,001,2023-11-07_23h11.50.066,vowel_harmony,2023.2.3,Win32,59.81576744,678.6305,679.6291,,,,,,,,,,,,,,,,,,,,,,,,,,679.6292,680.2124,m,1,0.5547,,680.2125,680.2128,,0,281,281,112,1,113,sezon,2315,105.1844,1917,0.2096,5,notharmonic,1.8,word,m,,,,,,,
,,,,,,,,,,,ayşe,001,2023-11-07_23h11.50.066,vowel_harmony,2023.2.3,Win32,59.81576744,680.2136,681.2115,,,,,,,,,,,,,,,,,,,,,,,,,,681.2117,681.695,m,1,0.4589,,681.6951,681.6956,,0,282,282,147,1,148,işaret,1888,85.7832,1787,0.1954,6,notharmonic,1,word,m,,,,,,,
,,,,,,,,,,,ayşe,001,2023-11-07_23h11.50.066,vowel_harmony,2023.2.3,Win32,59.81576744,681.6965,682.6947,,,,,,,,,,,,,,,,,,,,,,,,,,682.6947,683.2782,z,1,0.546,,683.2785,683.2789,,0,283,283,233,1,234,devpi,,,,,5,harmonic,1.8,nw,z,,,,,,,
,,,,,,,,,,,ayşe,001,2023-11-07_23h11.50.066,vowel_harmony,2023.2.3,Win32,59.81576744,683.2796,684.2776,,,,,,,,,,,,,,,,,,,,,,,,,,684.2777,685.6941,z,0,1.3937,,685.6942,685.6947,,0,284,284,44,1,45,kayıt,1234,56.0681,1058,0.1157,5,harmonic,1.35,word,m,,,,,,,
,,,,,,,,,,,ayşe,001,2023-11-07_23h11.50.066,vowel_harmony,2023.2.3,Win32,59.81576744,685.6955,686.6938,,,,,,,,,,,,,,,,,,,,,,,,,,686.6939,687.7832,m,1,1.0679,,687.7832,687.7833,,0,285,285,9,1,10,karar,8108,368.3954,7436,0.8129,5,harmonic,1.6,word,m,,,,,,,
,,,,,,,,,,,ayşe,001,2023-11-07_23h11.50.066,vowel_harmony,2023.2.3,Win32,59.81576744,687.7837,688.7768,,,,,,,,,,,,,,,,,,,,,,,,,,688.7769,689.4983,m,1,0.7003,,689.4983,689.4985,,0,286,286,48,1,49,teşvik,932,42.3464,867,0.0948,6,harmonic,1.8,word,m,,,,,,,
,,,,,,,,,,,ayşe,001,2023-11-07_23h11.50.066,vowel_harmony,2023.2.3,Win32,59.81576744,689.4988,690.4929,,,,,,,,,,,,,,,,,,,,,,,,,,690.4931,691.6428,z,1,1.1219,,691.6429,691.6435,,0,287,287,207,1,208,örtre,,,,,5,harmonic,1.85,nw,z,,,,,,,
,,,,,,,,,,,ayşe,001,2023-11-07_23h11.50.066,vowel_harmony,2023.2.3,Win32,59.81576744,691.6442,692.6423,,,,,,,,,,,,,,,,,,,,,,,,,,692.6424,693.3463,z,1,0.6825,,693.3463,693.3464,,0,288,288,346,1,347,kidan,,,,,5,notharmonic,1.8,nw,z,,,,,,,
,,,,,,,,,,,ayşe,001,2023-11-07_23h11.50.066,vowel_harmony,2023.2.3,Win32,59.81576744,693.3468,694.3421,,,,,,,,,,,,,,,,,,,,,,,,,,694.3422,694.8587,z,1,0.486,,694.8588,694.8592,,0,289,289,320,1,321,finak,,,,,5,notharmonic,1.85,nw,z,,,,,,,
,,,,,,,,,,,ayşe,001,2023-11-07_23h11.50.066,vowel_harmony,2023.2.3,Win32,59.81576744,694.8601,695.8583,,,,,,,,,,,,,,,,,,,,,,,,,,695.8583,696.5081,z,1,0.6248,,696.5083,696.5088,,0,290,290,232,1,233,kanur,,,,,5,harmonic,1.7,nw,z,,,,,,,
,,,,,,,,,,,ayşe,001,2023-11-07_23h11.50.066,vowel_harmony,2023.2.3,Win32,59.81576744,696.5097,697.5081,,,,,,,,,,,,,,,,,,,,,,,,,,697.5083,698.0296,z,1,0.4951,,698.0297,698.0297,,0,291,291,258,1,259,karıha,,,,,6,harmonic,1.75,nw,z,,,,,,,
,,,,,,,,,,,ayşe,001,2023-11-07_23h11.50.066,vowel_harmony,2023.2.3,Win32,59.81576744,698.03,699.0242,,,,,,,,,,,,,,,,,,,,,,,,,,699.0242,699.6088,m,1,0.5622,,699.6088,699.6089,,0,292,292,118,1,119,meşhur,1092,49.6161,1057,0.1156,6,notharmonic,1.9,word,m,,,,,,,
,,,,,,,,,,,ayşe,001,2023-11-07_23h11.50.066,vowel_harmony,2023.2.3,Win32,59.81576744,699.6092,700.6073,,,,,,,,,,,,,,,,,,,,,,,,,,700.6073,701.2406,z,1,0.596,,701.2408,701.2412,,0,293,293,355,1,356,adül,,,,,4,notharmonic,1.85,nw,z,,,,,,,
,,,,,,,,,,,ayşe,001,2023-11-07_23h11.50.066,vowel_harmony,2023.2.3,Win32,59.81576744,701.242,702.2402,,,,,,,,,,,,,,,,,,,,,,,,,,702.2404,702.6734,m,1,0.4037,,702.6736,702.674,,0,294,294,19,1,20,ödül,1063,48.2985,926,0.1012,4,harmonic,1.7,word,m,,,,,,,
,,,,,,,,,,,ayşe,001,2023-11-07_23h11.50.066,vowel_harmony,2023.2.3,Win32,59.81576744,702.6749,703.6731,,,,,,,,,,,,,,,,,,,,,,,,,,703.6733,704.123,z,1,0.4133,,704.1232,704.1236,,0,295,295,189,1,190,düvre,,,,,5,harmonic,1.85,nw,z,,,,,,,
,,,,,,,,,,,ayşe,001,2023-11-07_23h11.50.066,vowel_harmony,2023.2.3,Win32,59.81576744,704.1245,705.1228,,,,,,,,,,,,,,,,,,,,,,,,,,705.1229,705.6226,m,1,0.4662,,705.6227,705.6232,,0,296,296,17,1,18,yakın,7990,363.0339,7595,0.8303,5,harmonic,1.8,word,m,,,,,,,
,,,,,,,,,,,ayşe,001,2023-11-07_23h11.50.066,vowel_harmony,2023.2.3,Win32,59.81576744,705.6241,706.6224,,,,,,,,,,,,,,,,,,,,,,,,,,706.6226,706.9559,m,0,0.3045,,706.956,706.9565,,0,297,297,299,1,300,fihal,,,,,5,notharmonic,1.95,nw,z,,,,,,,
,,,,,,,,,,,ayşe,001,2023-11-07_23h11.50.066,vowel_harmony,2023.2.3,Win32,59.81576744,706.9572,707.9555,,,,,,,,,,,,,,,,,,,,,,,,,,707.9556,708.4773,m,1,0.4949,,708.4773,708.4773,,0,298,298,1,1,2,erkek,6188,281.1582,5195,0.5679,5,harmonic,1.65,word,m,,,,,,,
,,,,,,,,,,,ayşe,001,2023-11-07_23h11.50.066,vowel_harmony,2023.2.3,Win32,59.81576744,708.4777,709.4718,,,,,,,,,,,,,,,,,,,,,,,,,,709.472,709.9219,m,1,0.4127,,709.9221,709.9226,,0,299,299,51,1,52,ilginç,2803,127.3572,2690,0.2941,6,harmonic,1.8,word,m,,,,,,,
,,,,,,,,,,,ayşe,001,2023-11-07_23h11.50.066,vowel_harmony,2023.2.3,Win32,59.81576744,709.9233,710.9219,,,,,,,,,,,,,,,,,,,,,,,,,,710.9221,711.2882,m,0,0.336,,711.2883,711.2887,,0,300,300,219,1,220,barlum,,,,,6,harmonic,1.9,nw,z,,,,,,,
,,,,,,,,,,,ayşe,001,2023-11-07_23h11.50.066,vowel_harmony,2023.2.3,Win32,59.81576744,711.2896,712.2878,,,,,,,,,,,,,,,,,,,,,,,,,,712.2879,713.4377,z,1,1.1203,,713.4378,713.4383,,0,301,301,351,1,352,seğlık,,,,,6,notharmonic,1.9,nw,z,,,,,,,
,,,,,,,,,,,ayşe,001,2023-11-07_23h11.50.066,vowel_harmony,2023.2.3,Win32,59.81576744,713.439,714.4372,,,,,,,,,,,,,,,,,,,,,,,,,,714.4373,715.1372,z,1,0.6682,,715.1373,715.1378,,0,302,302,334,1,335,işgan,,,,,5,notharmonic,1.95,nw,z,,,,,,,
,,,,,,,,,,,ayşe,001,2023-11-07_23h11.50.066,vowel_harmony,2023.2.3,Win32,59.81576744,715.1386,716.1368,,,,,,,,,,,,,,,,,,,,,,,,,,716.1369,716.8034,m,1,0.637,,716.8036,716.804,,0,303,303,88,1,89,yalnız,5891,267.6637,5440,0.5947,6,harmonic,1.6,word,m,,,,,,,
,,,,,,,,,,,ayşe,001,2023-11-07_23h11.50.066,vowel_harmony,2023.2.3,Win32,59.81576744,716.8049,717.8037,,,,,,,,,,,,,,,,,,,,,,,,,,717.8039,718.5196,z,1,0.6879,,718.5198,718.5203,,0,304,304,335,1,336,lilo,,,,,4,notharmonic,1.8,nw,z,,,,,,,
,,,,,,,,,,,ayşe,001,2023-11-07_23h11.50.066,vowel_harmony,2023.2.3,Win32,59.81576744,718.5212,719.5197,,,,,,,,,,,,,,,,,,,,,,,,,,719.5198,719.986,m,1,0.4294,,719.9862,719.9866,,0,305,305,105,1,106,sahip,10887,494.6621,9847,1.0765,5,notharmonic,1.25,word,m,,,,,,,
,,,,,,,,,,,ayşe,001,2023-11-07_23h11.50.066,vowel_harmony,2023.2.3,Win32,59.81576744,719.9874,720.9858,,,,,,,,,,,,,,,,,,,,,,,,,,720.9859,721.6409,z,1,0.6338,,721.6409,721.641,,0,306,306,217,1,218,sanfız,,,,,6,harmonic,1.85,nw,z,,,,,,,
,,,,,,,,,,,ayşe,001,2023-11-07_23h11.50.066,vowel_harmony,2023.2.3,Win32,59.81576744,721.6413,722.6353,,,,,,,,,,,,,,,,,,,,,,,,,,722.6354,723.3185,z,1,0.6501,,723.3187,723.3191,,0,307,307,266,1,267,düştön,,,,,6,harmonic,1.9,nw,z,,,,,,,
,,,,,,,,,,,ayşe,001,2023-11-07_23h11.50.066,vowel_harmony,2023.2.3,Win32,59.81576744,723.3201,724.3183,,,,,,,,,,,,,,,,,,,,,,,,,,724.3184,724.8517,m,1,0.5083,,724.852,724.8523,,0,308,308,152,1,153,tedavi,1865,84.7382,1597,0.1746,6,notharmonic,1.8,word,m,,,,,,,
,,,,,,,,,,,ayşe,001,2023-11-07_23h11.50.066,vowel_harmony,2023.2.3,Win32,59.81576744,724.8531,725.8521,,,,,,,,,,,,,,,,,,,,,,,,,,725.8523,726.4178,z,1,0.5293,,726.418,726.4184,,0,309,309,340,1,341,minya,,,,,5,notharmonic,1.95,nw,z,,,,,,,
,,,,,,,,,,,ayşe,001,2023-11-07_23h11.50.066,vowel_harmony,2023.2.3,Win32,59.81576744,726.4194,727.4174,,,,,,,,,,,,,,,,,,,,,,,,,,727.4176,727.9341,m,1,0.4848,,727.9342,727.9346,,0,310,310,85,1,86,geçmiş,4195,190.6042,4039,0.4415,6,harmonic,1.55,word,m,,,,,,,
,,,,,,,,,,,ayşe,001,2023-11-07_23h11.50.066,vowel_harmony,2023.2.3,Win32,59.81576744,727.9356,728.9338,,,,,,,,,,,,,,,,,,,,,,,,,,728.934,729.417,m,1,0.4468,,729.4173,729.4177,,0,311,311,35,1,36,hava,4975,226.0443,4398,0.4808,4,harmonic,1,word,m,,,,,,,
,,,,,,,,,,,ayşe,001,2023-11-07_23h11.50.066,vowel_harmony,2023.2.3,Win32,59.81576744,729.4187,730.4179,,,,,,,,,,,,,,,,,,,,,,,,,,730.418,731.1,z,1,0.6462,,731.1001,731.1007,,0,312,312,307,1,308,merbat,,,,,6,notharmonic,1.95,nw,z,,,,,,,
,,,,,,,,,,,ayşe,001,2023-11-07_23h11.50.066,vowel_harmony,2023.2.3,Win32,59.81576744,731.1016,732.0999,,,,,,,,,,,,,,,,,,,,,,,,,,732.1001,732.7497,z,1,0.618,,732.7498,732.7503,,0,313,313,296,1,297,işban,,,,,5,notharmonic,1.95,nw,z,,,,,,,
,,,,,,,,,,,ayşe,001,2023-11-07_23h11.50.066,vowel_harmony,2023.2.3,Win32,59.81576744,732.7512,733.7494,,,,,,,,,,,,,,,,,,,,,,,,,,733.7495,734.3326,m,1,0.5464,,734.3327,734.3331,,0,314,314,23,1,24,kurum,986,44.7999,882,0.0964,5,harmonic,1.75,word,m,,,,,,,
,,,,,,,,,,,ayşe,001,2023-11-07_23h11.50.066,vowel_harmony,2023.2.3,Win32,59.81576744,734.3341,735.3323,,,,,,,,,,,,,,,,,,,,,,,,,,735.3324,735.9822,z,1,0.6244,,735.9823,735.9827,,0,315,315,183,1,184,orkın,,,,,5,harmonic,1.9,nw,z,,,,,,,
,,,,,,,,,,,ayşe,001,2023-11-07_23h11.50.066,vowel_harmony,2023.2.3,Win32,59.81576744,735.9837,736.9822,,,,,,,,,,,,,,,,,,,,,,,,,,736.9824,737.915,z,1,0.904,,737.9151,737.9156,,0,316,316,180,1,181,ayaro,,,,,5,harmonic,1.8,nw,z,,,,,,,
,,,,,,,,,,,ayşe,001,2023-11-07_23h11.50.066,vowel_harmony,2023.2.3,Win32,59.81576744,737.9167,738.9149,,,,,,,,,,,,,,,,,,,,,,,,,,738.9151,739.6529,m,1,0.7167,,739.6529,739.653,,0,317,317,79,1,80,durum,6783,308.1926,6431,0.703,5,harmonic,1.7,word,m,,,,,,,
,,,,,,,,,,,ayşe,001,2023-11-07_23h11.50.066,vowel_harmony,2023.2.3,Win32,59.81576744,739.6533,740.6479,,,,,,,,,,,,,,,,,,,,,,,,,,740.6481,741.1527,m,1,0.4784,,741.1527,741.1527,,0,318,318,67,1,68,bayram,1948,88.5094,1648,0.1802,6,harmonic,1.85,word,m,,,,,,,
,,,,,,,,,,,ayşe,001,2023-11-07_23h11.50.066,vowel_harmony,2023.2.3,Win32,59.81576744,741.153,742.1474,,,,,,,,,,,,,,,,,,,,,,,,,,742.1475,742.8472,z,1,0.668,,742.8474,742.8477,,0,319,319,218,1,219,tezöl,,,,,5,harmonic,2,nw,z,,,,,,,
,,,,,,,,,,,ayşe,001,2023-11-07_23h11.50.066,vowel_harmony,2023.2.3,Win32,59.81576744,742.8487,743.8471,,,,,,,,,,,,,,,,,,,,,,,,,,743.8473,744.4135,m,1,0.5312,,744.4138,744.4142,,0,320,320,6,1,7,hayal,4498,204.3713,4079,0.4459,5,harmonic,1.45,word,m,,,,,,,
,,,,,,,,,,,ayşe,001,2023-11-07_23h11.50.066,vowel_harmony,2023.2.3,Win32,59.81576744,744.4152,745.4138,,,,,,,,,,,,,,,,,,,,,,,,,,745.4139,746.0519,z,1,0.6172,,746.0519,746.052,,0,321,321,349,1,350,harten,,,,,6,notharmonic,1.85,nw,z,,,,,,,
,,,,,,,,,,,ayşe,001,2023-11-07_23h11.50.066,vowel_harmony,2023.2.3,Win32,59.81576744,746.0524,747.0511,,,,,,,,,,,,,,,,,,,,,,,,,,747.0511,747.6462,m,1,0.5675,,747.6463,747.6468,,0,322,322,149,1,150,ceza,2611,118.6335,2169,0.2371,4,notharmonic,1.5,word,m,,,,,,,
,,,,,,,,,,,ayşe,001,2023-11-07_23h11.50.066,vowel_harmony,2023.2.3,Win32,59.81576744,747.6477,748.6459,,,,,,,,,,,,,,,,,,,,,,,,,,748.6461,749.5462,m,1,0.8746,,749.5464,749.5468,,0,323,323,120,1,121,ihmal,1002,45.5269,977,0.1068,5,notharmonic,1.65,word,m,,,,,,,
,,,,,,,,,,,ayşe,001,2023-11-07_23h11.50.066,vowel_harmony,2023.2.3,Win32,59.81576744,749.5474,750.5455,,,,,,,,,,,,,,,,,,,,,,,,,,750.5456,751.7505,z,1,1.1784,,751.7505,751.7506,,0,324,324,293,1,294,esnan,,,,,5,notharmonic,1.85,nw,z,,,,,,,
,,,,,,,,,,,ayşe,001,2023-11-07_23h11.50.066,vowel_harmony,2023.2.3,Win32,59.81576744,751.751,752.7497,,,,,,,,,,,,,,,,,,,,,,,,,,752.7497,753.4121,m,1,0.6417,,753.4121,753.4126,,0,325,325,55,1,56,akıl,2208,100.3228,2004,0.2191,4,harmonic,1,word,m,,,,,,,
,,,,,,,,,,,ayşe,001,2023-11-07_23h11.50.066,vowel_harmony,2023.2.3,Win32,59.81576744,753.4131,754.4114,,,,,,,,,,,,,,,,,,,,,,,,,,754.4114,754.9778,m,1,0.5362,,754.9779,754.9783,,0,326,326,168,1,169,kilo,3389,153.9827,2646,0.2893,4,notharmonic,1.65,word,m,,,,,,,
,,,,,,,,,,,ayşe,001,2023-11-07_23h11.50.066,vowel_harmony,2023.2.3,Win32,59.81576744,754.9793,755.9795,,,,,,,,,,,,,,,,,,,,,,,,,,755.9795,756.4276,m,1,0.422,,756.4276,756.428,,0,327,327,108,1,109,tarih,2806,127.4935,2483,0.2714,5,notharmonic,1.55,word,m,,,,,,,
,,,,,,,,,,,ayşe,001,2023-11-07_23h11.50.066,vowel_harmony,2023.2.3,Win32,59.81576744,756.4291,757.4271,,,,,,,,,,,,,,,,,,,,,,,,,,757.4272,757.9939,m,1,0.5288,,757.9941,757.9946,,0,328,328,143,1,144,kitap,8359,379.7998,6786,0.7418,5,notharmonic,1.9,word,m,,,,,,,
,,,,,,,,,,,ayşe,001,2023-11-07_23h11.50.066,vowel_harmony,2023.2.3,Win32,59.81576744,757.9953,758.9935,,,,,,,,,,,,,,,,,,,,,,,,,,758.9936,759.4434,z,1,0.4181,,759.4436,759.4441,,0,329,329,336,1,337,diyam,,,,,5,notharmonic,1.85,nw,z,,,,,,,
,,,,,,,,,,,ayşe,001,2023-11-07_23h11.50.066,vowel_harmony,2023.2.3,Win32,59.81576744,759.4451,760.4432,,,,,,,,,,,,,,,,,,,,,,,,,,760.4434,761.1097,z,1,0.6292,,761.11,761.1105,,0,330,330,182,1,183,orsın,,,,,5,harmonic,1.95,nw,z,,,,,,,
,,,,,,,,,,,ayşe,001,2023-11-07_23h11.50.066,vowel_harmony,2023.2.3,Win32,59.81576744,761.1113,762.1095,,,,,,,,,,,,,,,,,,,,,,,,,,762.1096,762.776,z,1,0.6409,,762.7762,762.7767,,0,331,331,301,1,302,mezak,,,,,5,notharmonic,1.8,nw,z,,,,,,,
,,,,,,,,,,,ayşe,001,2023-11-07_23h11.50.066,vowel_harmony,2023.2.3,Win32,59.81576744,762.7776,763.7759,,,,,,,,,,,,,,,,,,,,,,,,,,763.7764,764.4593,m,1,0.6486,,764.4595,764.46,,0,332,332,2,1,3,radyo,763,34.6677,636,0.0695,5,harmonic,1.85,word,m,,,,,,,
,,,,,,,,,,,ayşe,001,2023-11-07_23h11.50.066,vowel_harmony,2023.2.3,Win32,59.81576744,764.4606,765.4587,,,,,,,,,,,,,,,,,,,,,,,,,,765.4588,766.061,m,1,0.5811,,766.061,766.0612,,0,333,333,97,1,98,mevcut,3007,136.6262,2842,0.3107,6,notharmonic,1.95,word,m,,,,,,,
,,,,,,,,,,,ayşe,001,2023-11-07_23h11.50.066,vowel_harmony,2023.2.3,Win32,59.81576744,766.0615,767.0585,,,,,,,,,,,,,,,,,,,,,,,,,,767.0586,767.7297,z,1,0.6447,,767.7297,767.7298,,0,334,334,286,1,287,cedan,,,,,5,notharmonic,1.8,nw,z,,,,,,,
,,,,,,,,,,,ayşe,001,2023-11-07_23h11.50.066,vowel_harmony,2023.2.3,Win32,59.81576744,767.7301,768.7266,,,,,,,,,,,,,,,,,,,,,,,,,,768.7266,769.2468,m,1,0.5005,,769.2469,769.247,,0,335,335,18,1,19,normal,4154,188.7413,3788,0.4141,6,harmonic,1.75,word,m,,,,,,,
,,,,,,,,,,,ayşe,001,2023-11-07_23h11.50.066,vowel_harmony,2023.2.3,Win32,59.81576744,769.2473,770.2412,,,,,,,,,,,,,,,,,,,,,,,,,,770.2413,770.9078,z,1,0.6326,,770.908,770.9084,,0,336,336,315,1,316,takep,,,,,5,notharmonic,1.85,nw,z,,,,,,,
,,,,,,,,,,,ayşe,001,2023-11-07_23h11.50.066,vowel_harmony,2023.2.3,Win32,59.81576744,770.9091,771.9071,,,,,,,,,,,,,,,,,,,,,,,,,,771.9072,772.7569,m,1,0.818,,772.7571,772.7576,,0,337,337,34,1,35,hoca,1893,86.0104,1526,0.1668,4,harmonic,1.45,word,m,,,,,,,
,,,,,,,,,,,ayşe,001,2023-11-07_23h11.50.066,vowel_harmony,2023.2.3,Win32,59.81576744,772.7585,773.7567,,,,,,,,,,,,,,,,,,,,,,,,,,773.7568,774.5401,m,0,0.7457,,774.5403,774.5409,,0,338,338,288,1,289,molit,,,,,5,notharmonic,1.95,nw,z,,,,,,,
,,,,,,,,,,,ayşe,001,2023-11-07_23h11.50.066,vowel_harmony,2023.2.3,Win32,59.81576744,774.5415,775.5398,,,,,,,,,,,,,,,,,,,,,,,,,,775.54,776.3228,m,1,0.7574,,776.3231,776.3235,,0,339,339,141,1,142,madde,3793,172.3389,3389,0.3705,5,notharmonic,1.7,word,m,,,,,,,
,,,,,,,,,,,ayşe,001,2023-11-07_23h11.50.066,vowel_harmony,2023.2.3,Win32,59.81576744,776.3244,777.3225,,,,,,,,,,,,,,,,,,,,,,,,,,777.3226,777.9726,z,1,0.6129,,777.9727,777.9733,,0,340,340,257,1,258,zerü,,,,,4,harmonic,1.8,nw,z,,,,,,,
,,,,,,,,,,,ayşe,001,2023-11-07_23h11.50.066,vowel_harmony,2023.2.3,Win32,59.81576744,777.974,778.9721,,,,,,,,,,,,,,,,,,,,,,,,,,778.9721,779.5887,m,1,0.59,,779.5889,779.5893,,0,341,341,74,1,75,başarı,1398,63.5196,1300,0.1421,6,harmonic,1.2,word,m,,,,,,,
,,,,,,,,,,,ayşe,001,2023-11-07_23h11.50.066,vowel_harmony,2023.2.3,Win32,59.81576744,779.5902,780.5884,,,,,,,,,,,,,,,,,,,,,,,,,,780.5886,781.6049,m,1,0.9809,,781.605,781.6056,,0,342,342,25,1,26,rapor,703,31.9415,617,0.0675,5,harmonic,1.8,word,m,,,,,,,
,,,,,,,,,,,ayşe,001,2023-11-07_23h11.50.066,vowel_harmony,2023.2.3,Win32,59.81576744,781.6066,782.6048,,,,,,,,,,,,,,,,,,,,,,,,,,782.605,783.2927,m,1,0.6666,,783.2928,783.2928,,0,343,343,28,1,29,parlak,1142,51.888,1088,0.1189,6,harmonic,1.7,word,m,,,,,,,
,,,,,,,,,,,ayşe,001,2023-11-07_23h11.50.066,vowel_harmony,2023.2.3,Win32,59.81576744,783.293,784.2876,,,,,,,,,,,,,,,,,,,,,,,,,,784.2877,784.971,z,1,0.6462,,784.9712,784.9716,,0,344,344,274,1,275,pisan,,,,,5,notharmonic,1.75,nw,z,,,,,,,
,,,,,,,,,,,ayşe,001,2023-11-07_23h11.50.066,vowel_harmony,2023.2.3,Win32,59.81576744,784.9723,785.9706,,,,,,,,,,,,,,,,,,,,,,,,,,785.9707,786.5205,m,1,0.5238,,786.5208,786.5215,,0,345,345,52,1,53,resim,2506,113.8627,2188,0.2392,5,harmonic,1.4,word,m,,,,,,,
,,,,,,,,,,,ayşe,001,2023-11-07_23h11.50.066,vowel_harmony,2023.2.3,Win32,59.81576744,786.5221,787.5203,,,,,,,,,,,,,,,,,,,,,,,,,,787.5204,788.37,z,1,0.82,,788.3702,788.3708,,0,346,346,314,1,315,seral,,,,,5,notharmonic,1.7,nw,z,,,,,,,
,,,,,,,,,,,ayşe,001,2023-11-07_23h11.50.066,vowel_harmony,2023.2.3,Win32,59.81576744,788.3721,789.3698,,,,,,,,,,,,,,,,,,,,,,,,,,789.3699,790.3198,m,1,0.9216,,790.3199,790.3205,,0,347,347,37,1,38,hayvan,2363,107.3653,1894,0.2071,6,harmonic,1.5,word,m,,,,,,,
,,,,,,,,,,,ayşe,001,2023-11-07_23h11.50.066,vowel_harmony,2023.2.3,Win32,59.81576744,790.3211,791.3193,,,,,,,,,,,,,,,,,,,,,,,,,,791.3195,792.5048,m,1,1.1589,,792.5048,792.5049,,0,348,348,72,1,73,çorba,1674,76.0599,1513,0.1654,5,harmonic,1.75,word,m,,,,,,,
,,,,,,,,,,,ayşe,001,2023-11-07_23h11.50.066,vowel_harmony,2023.2.3,Win32,59.81576744,792.5052,793.5022,,,,,,,,,,,,,,,,,,,,,,,,,,793.5025,795.0019,z,1,1.4758,,795.0021,795.0025,,0,349,349,306,1,307,otet,,,,,4,notharmonic,1.95,nw,z,,,,,,,
,,,,,,,,,,,ayşe,001,2023-11-07_23h11.50.066,vowel_harmony,2023.2.3,Win32,59.81576744,795.0033,796.0017,,,,,,,,,,,,,,,,,,,,,,,,,,796.0018,796.5516,m,1,0.5178,,796.5519,796.5523,,0,350,350,20,1,21,nefes,2871,130.4469,2553,0.2791,5,harmonic,1.8,word,m,,,,,,,
,,,,,,,,,,,ayşe,001,2023-11-07_23h11.50.066,vowel_harmony,2023.2.3,Win32,59.81576744,796.553,797.5513,,,,,,,,,,,,,,,,,,,,,,,,,,797.5514,798.2346,z,1,0.654,,798.2348,798.2352,,0,351,351,228,1,229,haytam,,,,,6,harmonic,1.75,nw,z,,,,,,,
,,,,,,,,,,,ayşe,001,2023-11-07_23h11.50.066,vowel_harmony,2023.2.3,Win32,59.81576744,798.2359,799.2341,,,,,,,,,,,,,,,,,,,,,,,,,,799.2342,799.9839,m,1,0.7186,,799.984,799.9846,,0,352,352,22,1,23,anlam,1730,78.6043,1617,0.1768,5,harmonic,1.25,word,m,,,,,,,
,,,,,,,,,,,ayşe,001,2023-11-07_23h11.50.066,vowel_harmony,2023.2.3,Win32,59.81576744,799.9855,800.9837,,,,,,,,,,,,,,,,,,,,,,,,,,800.9838,801.6171,m,1,0.5988,,801.6173,801.6177,,0,353,353,94,1,95,final,876,39.802,778,0.0851,5,notharmonic,1,word,m,,,,,,,
,,,,,,,,,,,ayşe,001,2023-11-07_23h11.50.066,vowel_harmony,2023.2.3,Win32,59.81576744,801.6184,802.6169,,,,,,,,,,,,,,,,,,,,,,,,,,802.6171,803.1668,m,1,0.5181,,803.167,803.1674,,0,354,354,31,1,32,fazla,18293,831.1614,16694,1.825,5,harmonic,1,word,m,,,,,,,
,,,,,,,,,,,ayşe,001,2023-11-07_23h11.50.066,vowel_harmony,2023.2.3,Win32,59.81576744,803.1681,804.1663,,,,,,,,,,,,,,,,,,,,,,,,,,804.1664,804.7709,z,1,0.5779,,804.771,804.771,,0,355,355,224,1,225,ertre,,,,,5,harmonic,1.95,nw,z,,,,,,,
,,,,,,,,,,,ayşe,001,2023-11-07_23h11.50.066,vowel_harmony,2023.2.3,Win32,59.81576744,804.7713,805.7659,,,,,,,,,,,,,,,,,,,,,,,,,,805.7661,806.3323,m,1,0.5389,,806.3325,806.3329,,0,356,356,122,1,123,devam,17666,802.673,16284,1.7802,5,notharmonic,1.55,word,m,,,,,,,
,,,,,,,,,,,ayşe,001,2023-11-07_23h11.50.066,vowel_harmony,2023.2.3,Win32,59.81576744,806.3338,807.3321,,,,,,,,,,,,,,,,,,,,,,,,,,807.3322,808.2655,m,1,0.9045,,808.2656,808.266,,0,357,357,133,1,134,taze,2268,103.0489,2062,0.2254,4,notharmonic,1.65,word,m,,,,,,,
,,,,,,,,,,,ayşe,001,2023-11-07_23h11.50.066,vowel_harmony,2023.2.3,Win32,59.81576744,808.2668,809.265,,,,,,,,,,,,,,,,,,,,,,,,,,809.2651,810.8156,z,1,1.5177,,810.8156,810.816,,0,358,358,194,1,195,rayna,,,,,5,harmonic,1.7,nw,z,,,,,,,
,,,,,,,,,,,ayşe,001,2023-11-07_23h11.50.066,vowel_harmony,2023.2.3,Win32,59.81576744,810.8163,811.8144,,,,,,,,,,,,,,,,,,,,,,,,,,811.8145,812.4976,m,0,0.6514,,812.4978,812.4982,,0,359,359,185,1,186,örtin,,,,,5,harmonic,1.9,nw,z,,,,,,,
,,,,,,,,,,,ayşe,001,2023-11-07_23h11.50.066,vowel_harmony,2023.2.3,Win32,59.81576744,,,,,,,,,,,,,,,,,,,,,,,,,,,,,,,,,,,,,,,,,,,,,,,,,,,,,,,812.4995,816.133,space,3.608,