Welcome_screen.started,Welcome_screen.stopped,key_respwelcome.keys,key_respwelcome.rt,key_respwelcome.duration,intro_x.thisRepN,intro_x.thisTrialN,intro_x.thisN,intro_x.thisIndex,intro_x.ran,Introduction,participant,session,date,expName,psychopyVersion,OS,frameRate,Fixation.started,Fixation.stopped,Studypractice.started,Studypractice.stopped,key_respstudy.keys,key_respstudy.corr,key_respstudy.rt,key_respstudy.duration,rt,corr,Feedback.started,Feedback.stopped,practice_loop.thisRepN,practice_loop.thisTrialN,practice_loop.thisN,practice_loop.thisIndex,practice_loop.ran,item_nr_p,target_p,isHarmonic_p,target_cond_p,CorrAns_p,Instraction.started,Instraction.stopped,key_respınstraction.keys,key_respınstraction.rt,key_respınstraction.duration,TestTrial.started,TestTrial.stopped,key_respTest.keys,key_respTest.corr,key_respTest.rt,key_respTest.duration,Pause.started,Pause.stopped,key_resp_xx.keys,test_loop.thisRepN,test_loop.thisTrialN,test_loop.thisN,test_loop.thisIndex,test_loop.ran,item_nr,target,BlogFreq_A1,BlogFreqpm_A1,BlogCD_A1,BlogCDPc_A1,WordLength_A1,isHarmonic_A1,old20,target_cond,CorrAns,key_resp_xx.rt,key_resp_xx.duration,Goodbye_screen.started,Goodbye_screen.stopped,key_respgoodbye.keys,key_respgoodbye.rt,key_respgoodbye.duration
0.0556,1.8991,space,1.8173,,0,0,0,0,1,"Deneye hoş geldiniz,

Devam etmek için BOŞLUK tuşuna basınız.",baran,001,2023-11-07_16h15.40.131,vowel_harmony,2023.2.3,MacIntel,60.0024001,,,,,,,,,,,,,,,,,,,,,,,,,,,,,,,,,,,,,,,,,,,,,,,,,,,,,,,,,,,
1.9007,13.1993,space,11.2639,,0,1,1,1,1,"Bu çalışma Valencia Üniversitesi kapsamında yürütülmektedir. Deneydeki göreviniz, ekrana çıkacak Türkçe sözcüklerin kelime olup olmadığını belirlemenizdir. Eğer sözcük gerçek bir kelime ise ""m"" tuşuna, değil ise ""z"" tuşuna basınız.   

Devam etmek için BOŞLUK tuşuna basınız.",baran,001,2023-11-07_16h15.40.131,vowel_harmony,2023.2.3,MacIntel,60.0024001,,,,,,,,,,,,,,,,,,,,,,,,,,,,,,,,,,,,,,,,,,,,,,,,,,,,,,,,,,,
13.1997,21.816,space,8.5923,,0,2,2,2,1,"Her sözcük için en fazla iki saniyede cevap vermeniz beklenmektedir. Aksi takdirde deney bir sonraki sözcük ile devam eder. 
Bu çalışmada oldukça hızlı ve doğru cevaplama yapmanız beklenmektedir.

Devam etmek için BOŞLUK tuşuna basınız.",baran,001,2023-11-07_16h15.40.131,vowel_harmony,2023.2.3,MacIntel,60.0024001,,,,,,,,,,,,,,,,,,,,,,,,,,,,,,,,,,,,,,,,,,,,,,,,,,,,,,,,,,,
21.832,30.4988,space,8.6365,,0,3,3,3,1,"Çalışmaya başlamadan önce ufak bir pratik yer almaktadır.
Kelimedir: ""m""
Kelime değildir: ""z""

Pratik teste başlamak için BOŞLUK tuşuna basınız. ",baran,001,2023-11-07_16h15.40.131,vowel_harmony,2023.2.3,MacIntel,60.0024001,,,,,,,,,,,,,,,,,,,,,,,,,,,,,,,,,,,,,,,,,,,,,,,,,,,,,,,,,,,
,,,,,,,,,,,baran,001,2023-11-07_16h15.40.131,vowel_harmony,2023.2.3,MacIntel,60.0024001,30.5278,31.5099,31.51,32.453,m,1,0.9071,,0.9071,1,32.4532,33.9474,0,0,0,1,1,2,veri,harmonic,word,m,,,,,,,,,,,,,,,,,,,,,,,,,,,,,,,,,,,,,
,,,,,,,,,,,baran,001,2023-11-07_16h15.40.131,vowel_harmony,2023.2.3,MacIntel,60.0024001,33.948,34.9478,34.9479,35.6157,m,1,0.6466,,0.6466,1,35.6157,37.1174,0,1,1,5,1,6,bahçe,notharmonic,word,m,,,,,,,,,,,,,,,,,,,,,,,,,,,,,,,,,,,,,
,,,,,,,,,,,baran,001,2023-11-07_16h15.40.131,vowel_harmony,2023.2.3,MacIntel,60.0024001,37.1183,38.1148,38.1149,38.915,z,1,0.7746,,0.7746,1,38.915,40.4043,0,2,2,14,1,15,pimer,harmonic,nw,z,,,,,,,,,,,,,,,,,,,,,,,,,,,,,,,,,,,,,
,,,,,,,,,,,baran,001,2023-11-07_16h15.40.131,vowel_harmony,2023.2.3,MacIntel,60.0024001,40.4045,41.397,41.397,42.0405,z,1,0.6308,,0.6308,1,42.0405,43.5319,0,3,3,13,1,14,pilar,notharmonic,nw,z,,,,,,,,,,,,,,,,,,,,,,,,,,,,,,,,,,,,,
,,,,,,,,,,,baran,001,2023-11-07_16h15.40.131,vowel_harmony,2023.2.3,MacIntel,60.0024001,43.5322,44.5321,44.5322,45.2306,z,1,0.6684,,0.6684,1,45.2306,46.7305,0,4,4,9,1,10,orat,harmonic,nw,z,,,,,,,,,,,,,,,,,,,,,,,,,,,,,,,,,,,,,
,,,,,,,,,,,baran,001,2023-11-07_16h15.40.131,vowel_harmony,2023.2.3,MacIntel,60.0024001,46.7309,47.7341,47.7342,48.5311,z,1,0.7713,,0.7713,1,48.5312,50.0315,0,5,5,8,1,9,tahip,notharmonic,nw,z,,,,,,,,,,,,,,,,,,,,,,,,,,,,,,,,,,,,,
,,,,,,,,,,,baran,001,2023-11-07_16h15.40.131,vowel_harmony,2023.2.3,MacIntel,60.0024001,50.0329,51.03,51.03,51.6903,m,1,0.6472,,0.6472,1,51.6903,53.1815,0,6,6,7,1,8,oran,harmonic,word,m,,,,,,,,,,,,,,,,,,,,,,,,,,,,,,,,,,,,,
,,,,,,,,,,,baran,001,2023-11-07_16h15.40.131,vowel_harmony,2023.2.3,MacIntel,60.0024001,53.182,54.1775,54.1775,54.8633,z,1,0.633,,0.633,1,54.8633,56.3679,0,7,7,11,1,12,geki,harmonic,nw,z,,,,,,,,,,,,,,,,,,,,,,,,,,,,,,,,,,,,,
,,,,,,,,,,,baran,001,2023-11-07_16h15.40.131,vowel_harmony,2023.2.3,MacIntel,60.0024001,56.3683,57.3642,57.3643,58.0176,z,1,0.621,,0.621,1,58.0176,59.5153,0,8,8,10,1,11,mahne,notharmonic,nw,z,,,,,,,,,,,,,,,,,,,,,,,,,,,,,,,,,,,,,
,,,,,,,,,,,baran,001,2023-11-07_16h15.40.131,vowel_harmony,2023.2.3,MacIntel,60.0024001,59.5158,60.5279,60.5279,61.3647,m,1,0.7836,,0.7836,1,61.3648,62.8649,0,9,9,0,1,1,ihale,notharmonic,word,m,,,,,,,,,,,,,,,,,,,,,,,,,,,,,,,,,,,,,
,,,,,,,,,,,baran,001,2023-11-07_16h15.40.131,vowel_harmony,2023.2.3,MacIntel,60.0024001,62.8653,63.8643,63.8643,64.8803,m,1,0.9991,,0.9991,1,64.8804,66.3804,0,10,10,2,1,3,memur,notharmonic,word,m,,,,,,,,,,,,,,,,,,,,,,,,,,,,,,,,,,,,,
,,,,,,,,,,,baran,001,2023-11-07_16h15.40.131,vowel_harmony,2023.2.3,MacIntel,60.0024001,66.3808,67.3802,67.3802,67.9679,m,1,0.5533,,0.5533,1,67.9679,69.4643,0,11,11,4,1,5,mimar,notharmonic,word,m,,,,,,,,,,,,,,,,,,,,,,,,,,,,,,,,,,,,,
,,,,,,,,,,,baran,001,2023-11-07_16h15.40.131,vowel_harmony,2023.2.3,MacIntel,60.0024001,69.4647,70.4643,70.4655,71.1146,m,1,0.6299,,0.6299,1,71.1146,72.6172,0,12,12,3,1,4,ihlal,notharmonic,word,m,,,,,,,,,,,,,,,,,,,,,,,,,,,,,,,,,,,,,
,,,,,,,,,,,baran,001,2023-11-07_16h15.40.131,vowel_harmony,2023.2.3,MacIntel,60.0024001,72.6181,73.617,73.617,74.3036,z,1,0.6618,,0.6618,1,74.3036,75.7973,0,13,13,15,1,16,mımal,harmonic,nw,z,,,,,,,,,,,,,,,,,,,,,,,,,,,,,,,,,,,,,
,,,,,,,,,,,baran,001,2023-11-07_16h15.40.131,vowel_harmony,2023.2.3,MacIntel,60.0024001,75.7976,76.7981,76.7982,77.4141,m,1,0.5985,,0.5985,1,77.4142,78.9152,0,14,14,6,1,7,pilot,notharmonic,word,m,,,,,,,,,,,,,,,,,,,,,,,,,,,,,,,,,,,,,
,,,,,,,,,,,baran,001,2023-11-07_16h15.40.131,vowel_harmony,2023.2.3,MacIntel,60.0024001,78.9171,79.9159,79.9159,80.6161,z,1,0.6816,,0.6816,1,80.6162,82.114,0,15,15,12,1,13,ihlot,notharmonic,nw,z,,,,,,,,,,,,,,,,,,,,,,,,,,,,,,,,,,,,,
,,,,,,,,,,,baran,001,2023-11-07_16h15.40.131,vowel_harmony,2023.2.3,MacIntel,60.0024001,,,,,,,,,,,,,,,,,,,,,,,82.1158,92.8022,space,10.6555,,,,,,,,,,,,,,,,,,,,,,,,,,,,,,,,,
,,,,,,,,,,,baran,001,2023-11-07_16h15.40.131,vowel_harmony,2023.2.3,MacIntel,60.0024001,92.9668,93.8144,,,,,,,,,,,,,,,,,,,,,,,,,,93.8148,94.6297,m,1,0.7813,,94.6299,94.6321,,0,0,0,20,1,21,nefes,2871,130.4469,2553,0.2791,5,harmonic,1.8,word,m,,,,,,,
,,,,,,,,,,,baran,001,2023-11-07_16h15.40.131,vowel_harmony,2023.2.3,MacIntel,60.0024001,94.6327,95.6314,,,,,,,,,,,,,,,,,,,,,,,,,,95.6315,96.1485,m,1,0.5022,,96.1485,96.1486,,0,1,1,21,1,22,duygu,1877,85.2834,1760,0.1924,5,harmonic,1.8,word,m,,,,,,,
,,,,,,,,,,,baran,001,2023-11-07_16h15.40.131,vowel_harmony,2023.2.3,MacIntel,60.0024001,96.1489,97.1463,,,,,,,,,,,,,,,,,,,,,,,,,,97.1464,97.8487,z,1,0.6714,,97.8488,97.849,,0,2,2,318,1,319,yorgün,,,,,6,notharmonic,1.9,nw,z,,,,,,,
,,,,,,,,,,,baran,001,2023-11-07_16h15.40.131,vowel_harmony,2023.2.3,MacIntel,60.0024001,97.8493,98.8366,,,,,,,,,,,,,,,,,,,,,,,,,,98.8367,99.497,m,1,0.637,,99.497,99.4971,,0,3,3,23,1,24,kurum,986,44.7999,882,0.0964,5,harmonic,1.75,word,m,,,,,,,
,,,,,,,,,,,baran,001,2023-11-07_16h15.40.131,vowel_harmony,2023.2.3,MacIntel,60.0024001,99.4974,100.4984,,,,,,,,,,,,,,,,,,,,,,,,,,100.4985,101.2637,z,1,0.735,,101.2638,101.2638,,0,4,4,341,1,342,işgan,,,,,5,notharmonic,1.95,nw,z,,,,,,,
,,,,,,,,,,,baran,001,2023-11-07_16h15.40.131,vowel_harmony,2023.2.3,MacIntel,60.0024001,101.2642,102.2672,,,,,,,,,,,,,,,,,,,,,,,,,,102.2672,102.8306,m,1,0.5372,,102.8306,102.8308,,0,5,5,93,1,94,siyah,2944,133.7637,2527,0.2763,5,notharmonic,1.6,word,m,,,,,,,
,,,,,,,,,,,baran,001,2023-11-07_16h15.40.131,vowel_harmony,2023.2.3,MacIntel,60.0024001,102.8311,103.8311,,,,,,,,,,,,,,,,,,,,,,,,,,103.8315,104.4682,m,1,0.6086,,104.4682,104.4684,,0,6,6,102,1,103,esas,1965,89.2818,1795,0.1962,4,notharmonic,1.75,word,m,,,,,,,
,,,,,,,,,,,baran,001,2023-11-07_16h15.40.131,vowel_harmony,2023.2.3,MacIntel,60.0024001,104.4687,105.4635,,,,,,,,,,,,,,,,,,,,,,,,,,105.4635,106.1808,z,1,0.6858,,106.1808,106.181,,0,7,7,293,1,294,esnan,,,,,5,notharmonic,1.85,nw,z,,,,,,,
,,,,,,,,,,,baran,001,2023-11-07_16h15.40.131,vowel_harmony,2023.2.3,MacIntel,60.0024001,106.1814,107.1796,,,,,,,,,,,,,,,,,,,,,,,,,,107.1797,107.6964,m,1,0.49,,107.6964,107.6966,,0,8,8,100,1,101,düşman,1065,48.3894,962,0.1052,6,notharmonic,1.85,word,m,,,,,,,
,,,,,,,,,,,baran,001,2023-11-07_16h15.40.131,vowel_harmony,2023.2.3,MacIntel,60.0024001,107.697,108.6996,,,,,,,,,,,,,,,,,,,,,,,,,,108.6996,109.277,m,1,0.5524,,109.2771,109.2772,,0,9,9,106,1,107,esnaf,315,14.3124,284,0.031,5,notharmonic,1.55,word,m,,,,,,,
,,,,,,,,,,,baran,001,2023-11-07_16h15.40.131,vowel_harmony,2023.2.3,MacIntel,60.0024001,109.2775,110.2807,,,,,,,,,,,,,,,,,,,,,,,,,,110.2807,110.9964,z,1,0.6861,,110.9964,110.9964,,0,10,10,214,1,215,vecü,,,,,4,harmonic,1.95,nw,z,,,,,,,
,,,,,,,,,,,baran,001,2023-11-07_16h15.40.131,vowel_harmony,2023.2.3,MacIntel,60.0024001,110.9969,111.9973,,,,,,,,,,,,,,,,,,,,,,,,,,111.9973,112.6157,m,1,0.5989,,112.6157,112.6158,,0,11,11,119,1,120,kulüp,649,29.488,467,0.0511,5,notharmonic,1.4,word,m,,,,,,,
,,,,,,,,,,,baran,001,2023-11-07_16h15.40.131,vowel_harmony,2023.2.3,MacIntel,60.0024001,112.6163,113.6145,,,,,,,,,,,,,,,,,,,,,,,,,,113.6145,114.2667,z,1,0.621,,114.2668,114.2668,,0,12,12,355,1,356,adül,,,,,4,notharmonic,1.85,nw,z,,,,,,,
,,,,,,,,,,,baran,001,2023-11-07_16h15.40.131,vowel_harmony,2023.2.3,MacIntel,60.0024001,114.2671,115.2646,,,,,,,,,,,,,,,,,,,,,,,,,,115.2646,115.7957,m,1,0.515,,115.7957,115.7958,,0,13,13,111,1,112,kahve,2634,119.6785,2283,0.2496,5,notharmonic,1.85,word,m,,,,,,,
,,,,,,,,,,,baran,001,2023-11-07_16h15.40.131,vowel_harmony,2023.2.3,MacIntel,60.0024001,115.7961,116.7989,,,,,,,,,,,,,,,,,,,,,,,,,,116.7989,117.3975,m,1,0.5714,,117.3975,117.3976,,0,14,14,28,1,29,parlak,1142,51.888,1088,0.1189,6,harmonic,1.7,word,m,,,,,,,
,,,,,,,,,,,baran,001,2023-11-07_16h15.40.131,vowel_harmony,2023.2.3,MacIntel,60.0024001,117.3986,118.3978,,,,,,,,,,,,,,,,,,,,,,,,,,118.3979,118.9981,z,1,0.5856,,118.9982,118.9982,,0,15,15,249,1,250,hurıt,,,,,5,harmonic,1.95,nw,z,,,,,,,
,,,,,,,,,,,baran,001,2023-11-07_16h15.40.131,vowel_harmony,2023.2.3,MacIntel,60.0024001,118.9989,119.9967,,,,,,,,,,,,,,,,,,,,,,,,,,119.9967,120.5308,m,1,0.5043,,120.5309,120.5309,,0,16,16,110,1,111,rüya,1062,48.2531,937,0.1024,4,notharmonic,1.75,word,m,,,,,,,
,,,,,,,,,,,baran,001,2023-11-07_16h15.40.131,vowel_harmony,2023.2.3,MacIntel,60.0024001,120.5313,121.5294,,,,,,,,,,,,,,,,,,,,,,,,,,121.5294,122.1143,z,1,0.568,,122.1144,122.1145,,0,17,17,256,1,257,yaruza,,,,,6,harmonic,1.9,nw,z,,,,,,,
,,,,,,,,,,,baran,001,2023-11-07_16h15.40.131,vowel_harmony,2023.2.3,MacIntel,60.0024001,122.1148,123.1149,,,,,,,,,,,,,,,,,,,,,,,,,,123.1149,123.5964,m,1,0.468,,123.5964,123.5965,,0,18,18,8,1,9,güven,1433,65.1098,1300,0.1421,5,harmonic,1.35,word,m,,,,,,,
,,,,,,,,,,,baran,001,2023-11-07_16h15.40.131,vowel_harmony,2023.2.3,MacIntel,60.0024001,123.5968,124.5954,,,,,,,,,,,,,,,,,,,,,,,,,,124.5954,125.1642,z,1,0.552,,125.1642,125.1643,,0,19,19,198,1,199,yarbız,,,,,6,harmonic,1.95,nw,z,,,,,,,
,,,,,,,,,,,baran,001,2023-11-07_16h15.40.131,vowel_harmony,2023.2.3,MacIntel,60.0024001,125.1647,126.1647,,,,,,,,,,,,,,,,,,,,,,,,,,126.1647,126.7144,m,1,0.5223,,126.7145,126.7145,,0,20,20,74,1,75,başarı,1398,63.5196,1300,0.1421,6,harmonic,1.2,word,m,,,,,,,
,,,,,,,,,,,baran,001,2023-11-07_16h15.40.131,vowel_harmony,2023.2.3,MacIntel,60.0024001,126.7148,127.7133,,,,,,,,,,,,,,,,,,,,,,,,,,127.7134,128.2631,z,1,0.5295,,128.2631,128.2632,,0,21,21,261,1,262,kardok,,,,,6,harmonic,1.95,nw,z,,,,,,,
,,,,,,,,,,,baran,001,2023-11-07_16h15.40.131,vowel_harmony,2023.2.3,MacIntel,60.0024001,128.2638,129.2644,,,,,,,,,,,,,,,,,,,,,,,,,,129.2644,129.7984,m,1,0.5167,,129.7984,129.7987,,0,22,22,5,1,6,bebek,3301,149.9843,2794,0.3054,5,harmonic,1.6,word,m,,,,,,,
,,,,,,,,,,,baran,001,2023-11-07_16h15.40.131,vowel_harmony,2023.2.3,MacIntel,60.0024001,129.7992,130.7958,,,,,,,,,,,,,,,,,,,,,,,,,,130.7958,131.2974,z,1,0.4726,,131.2974,131.2976,,0,23,23,219,1,220,barlum,,,,,6,harmonic,1.9,nw,z,,,,,,,
,,,,,,,,,,,baran,001,2023-11-07_16h15.40.131,vowel_harmony,2023.2.3,MacIntel,60.0024001,131.298,132.2969,,,,,,,,,,,,,,,,,,,,,,,,,,132.2969,132.9291,z,1,0.6025,,132.9292,132.9292,,0,24,24,308,1,309,hafer,,,,,5,notharmonic,1.85,nw,z,,,,,,,
,,,,,,,,,,,baran,001,2023-11-07_16h15.40.131,vowel_harmony,2023.2.3,MacIntel,60.0024001,132.9295,133.9293,,,,,,,,,,,,,,,,,,,,,,,,,,133.9293,134.4972,m,1,0.5516,,134.4972,134.4972,,0,25,25,30,1,31,çevre,1662,75.5147,1409,0.154,5,harmonic,1.55,word,m,,,,,,,
,,,,,,,,,,,baran,001,2023-11-07_16h15.40.131,vowel_harmony,2023.2.3,MacIntel,60.0024001,134.4976,135.497,,,,,,,,,,,,,,,,,,,,,,,,,,135.497,136.0124,m,1,0.4999,,136.0125,136.0125,,0,26,26,143,1,144,kitap,8359,379.7998,6786,0.7418,5,notharmonic,1.9,word,m,,,,,,,
,,,,,,,,,,,baran,001,2023-11-07_16h15.40.131,vowel_harmony,2023.2.3,MacIntel,60.0024001,136.0127,137.0125,,,,,,,,,,,,,,,,,,,,,,,,,,137.0125,137.5143,m,1,0.4816,,137.5144,137.5145,,0,27,27,73,1,74,millet,1658,75.3329,1508,0.1649,6,harmonic,1.7,word,m,,,,,,,
,,,,,,,,,,,baran,001,2023-11-07_16h15.40.131,vowel_harmony,2023.2.3,MacIntel,60.0024001,137.5148,138.5145,,,,,,,,,,,,,,,,,,,,,,,,,,138.5145,139.0622,z,1,0.5173,,139.0622,139.0623,,0,28,28,303,1,304,fisor,,,,,5,notharmonic,1.9,nw,z,,,,,,,
,,,,,,,,,,,baran,001,2023-11-07_16h15.40.131,vowel_harmony,2023.2.3,MacIntel,60.0024001,139.0626,140.0469,,,,,,,,,,,,,,,,,,,,,,,,,,140.047,140.5798,m,1,0.5047,,140.58,140.58,,0,29,29,176,1,177,harika,4682,212.7315,4422,0.4834,6,notharmonic,1.9,word,m,,,,,,,
,,,,,,,,,,,baran,001,2023-11-07_16h15.40.131,vowel_harmony,2023.2.3,MacIntel,60.0024001,140.5805,141.5795,,,,,,,,,,,,,,,,,,,,,,,,,,141.5795,142.1457,m,1,0.5452,,142.1457,142.1457,,0,30,30,91,1,92,ifade,6177,280.6584,5726,0.626,5,notharmonic,1.7,word,m,,,,,,,
,,,,,,,,,,,baran,001,2023-11-07_16h15.40.131,vowel_harmony,2023.2.3,MacIntel,60.0024001,142.1462,143.1478,,,,,,,,,,,,,,,,,,,,,,,,,,143.1478,143.6491,m,1,0.4746,,143.6491,143.6495,,0,31,31,55,1,56,akıl,2208,100.3228,2004,0.2191,4,harmonic,1,word,m,,,,,,,
,,,,,,,,,,,baran,001,2023-11-07_16h15.40.131,vowel_harmony,2023.2.3,MacIntel,60.0024001,143.6498,144.6464,,,,,,,,,,,,,,,,,,,,,,,,,,144.6464,145.2298,z,1,0.5681,,145.2298,145.2299,,0,32,32,223,1,224,kakon,,,,,5,harmonic,1.85,nw,z,,,,,,,
,,,,,,,,,,,baran,001,2023-11-07_16h15.40.131,vowel_harmony,2023.2.3,MacIntel,60.0024001,145.2302,146.2327,,,,,,,,,,,,,,,,,,,,,,,,,,146.2327,146.84,m,1,0.5806,,146.8401,146.8401,,0,33,33,104,1,105,cevap,5232,237.7213,4822,0.5271,5,notharmonic,1.85,word,m,,,,,,,
,,,,,,,,,,,baran,001,2023-11-07_16h15.40.131,vowel_harmony,2023.2.3,MacIntel,60.0024001,146.8404,147.8299,,,,,,,,,,,,,,,,,,,,,,,,,,147.8299,148.3792,z,1,0.5224,,148.3792,148.3793,,0,34,34,217,1,218,sanfız,,,,,6,harmonic,1.85,nw,z,,,,,,,
,,,,,,,,,,,baran,001,2023-11-07_16h15.40.131,vowel_harmony,2023.2.3,MacIntel,60.0024001,148.3795,149.3804,,,,,,,,,,,,,,,,,,,,,,,,,,149.3804,149.8978,m,1,0.4876,,149.898,149.8981,,0,35,35,17,1,18,yakın,7990,363.0339,7595,0.8303,5,harmonic,1.8,word,m,,,,,,,
,,,,,,,,,,,baran,001,2023-11-07_16h15.40.131,vowel_harmony,2023.2.3,MacIntel,60.0024001,149.8988,150.8965,,,,,,,,,,,,,,,,,,,,,,,,,,150.8966,151.3795,z,1,0.4585,,151.3795,151.3796,,0,36,36,192,1,193,vecö,,,,,4,harmonic,1.95,nw,z,,,,,,,
,,,,,,,,,,,baran,001,2023-11-07_16h15.40.131,vowel_harmony,2023.2.3,MacIntel,60.0024001,151.38,152.3792,,,,,,,,,,,,,,,,,,,,,,,,,,152.3792,152.9788,z,1,0.561,,152.9788,152.9789,,0,37,37,209,1,210,sapor,,,,,5,harmonic,1.8,nw,z,,,,,,,
,,,,,,,,,,,baran,001,2023-11-07_16h15.40.131,vowel_harmony,2023.2.3,MacIntel,60.0024001,152.9792,153.9795,,,,,,,,,,,,,,,,,,,,,,,,,,153.9795,154.4493,m,1,0.4395,,154.4493,154.4493,,0,38,38,45,1,46,bilgi,5981,271.7529,5353,0.5852,5,harmonic,1.5,word,m,,,,,,,
,,,,,,,,,,,baran,001,2023-11-07_16h15.40.131,vowel_harmony,2023.2.3,MacIntel,60.0024001,154.4497,155.4453,,,,,,,,,,,,,,,,,,,,,,,,,,155.4453,155.9829,m,1,0.5148,,155.9829,155.9831,,0,39,39,129,1,130,tahmin,2353,106.911,2273,0.2485,6,notharmonic,1.6,word,m,,,,,,,
,,,,,,,,,,,baran,001,2023-11-07_16h15.40.131,vowel_harmony,2023.2.3,MacIntel,60.0024001,155.9836,156.9804,,,,,,,,,,,,,,,,,,,,,,,,,,156.9805,157.5128,m,0,0.503,,157.5128,157.5129,,0,40,40,218,1,219,tezöl,,,,,5,harmonic,2,nw,z,,,,,,,
,,,,,,,,,,,baran,001,2023-11-07_16h15.40.131,vowel_harmony,2023.2.3,MacIntel,60.0024001,157.5132,158.516,,,,,,,,,,,,,,,,,,,,,,,,,,158.5161,159.1466,m,1,0.6018,,159.1466,159.1467,,0,41,41,160,1,161,hakem,603,27.3979,473,0.0517,5,notharmonic,1.3,word,m,,,,,,,
,,,,,,,,,,,baran,001,2023-11-07_16h15.40.131,vowel_harmony,2023.2.3,MacIntel,60.0024001,159.1469,160.1471,,,,,,,,,,,,,,,,,,,,,,,,,,160.1472,160.7904,z,1,0.6179,,160.7904,160.7905,,0,42,42,212,1,213,ortat,,,,,5,harmonic,1.7,nw,z,,,,,,,
,,,,,,,,,,,baran,001,2023-11-07_16h15.40.131,vowel_harmony,2023.2.3,MacIntel,60.0024001,160.7909,161.7811,,,,,,,,,,,,,,,,,,,,,,,,,,161.7811,162.515,z,1,0.7168,,162.515,162.5151,,0,43,43,257,1,258,zerü,,,,,4,harmonic,1.8,nw,z,,,,,,,
,,,,,,,,,,,baran,001,2023-11-07_16h15.40.131,vowel_harmony,2023.2.3,MacIntel,60.0024001,162.5156,163.5152,,,,,,,,,,,,,,,,,,,,,,,,,,163.5153,164.1308,z,1,0.5967,,164.1309,164.1309,,0,44,44,350,1,351,resun,,,,,5,notharmonic,1.85,nw,z,,,,,,,
,,,,,,,,,,,baran,001,2023-11-07_16h15.40.131,vowel_harmony,2023.2.3,MacIntel,60.0024001,164.1316,165.1309,,,,,,,,,,,,,,,,,,,,,,,,,,165.1311,165.8131,z,1,0.6628,,165.8132,165.8133,,0,45,45,239,1,240,şekik,,,,,5,harmonic,1.7,nw,z,,,,,,,
,,,,,,,,,,,baran,001,2023-11-07_16h15.40.131,vowel_harmony,2023.2.3,MacIntel,60.0024001,165.8142,166.8146,,,,,,,,,,,,,,,,,,,,,,,,,,166.8146,167.3976,m,1,0.5532,,167.3976,167.3977,,0,46,46,62,1,63,cümle,1911,86.8283,1765,0.193,5,harmonic,1.85,word,m,,,,,,,
,,,,,,,,,,,baran,001,2023-11-07_16h15.40.131,vowel_harmony,2023.2.3,MacIntel,60.0024001,167.3985,168.3967,,,,,,,,,,,,,,,,,,,,,,,,,,168.3967,169.0627,m,1,0.6523,,169.0627,169.0628,,0,47,47,3,1,4,minik,2916,132.4915,2594,0.2836,5,harmonic,1.6,word,m,,,,,,,
,,,,,,,,,,,baran,001,2023-11-07_16h15.40.131,vowel_harmony,2023.2.3,MacIntel,60.0024001,169.0636,170.0668,,,,,,,,,,,,,,,,,,,,,,,,,,170.0668,170.7282,z,1,0.6372,,170.7282,170.7283,,0,48,48,216,1,217,çeyret,,,,,6,harmonic,1.9,nw,z,,,,,,,
,,,,,,,,,,,baran,001,2023-11-07_16h15.40.131,vowel_harmony,2023.2.3,MacIntel,60.0024001,170.7293,171.7268,,,,,,,,,,,,,,,,,,,,,,,,,,171.7269,172.362,z,1,0.6034,,172.362,172.3621,,0,49,49,359,1,360,kardez,,,,,6,notharmonic,1.95,nw,z,,,,,,,
,,,,,,,,,,,baran,001,2023-11-07_16h15.40.131,vowel_harmony,2023.2.3,MacIntel,60.0024001,172.3624,173.3682,,,,,,,,,,,,,,,,,,,,,,,,,,173.3683,173.9957,z,1,0.604,,173.9957,173.9957,,0,50,50,191,1,192,doab,,,,,4,harmonic,2,nw,z,,,,,,,
,,,,,,,,,,,baran,001,2023-11-07_16h15.40.131,vowel_harmony,2023.2.3,MacIntel,60.0024001,173.996,174.9995,,,,,,,,,,,,,,,,,,,,,,,,,,174.9995,175.6296,z,1,0.6014,,175.6298,175.6299,,0,51,51,247,1,248,hafgın,,,,,6,harmonic,2,nw,z,,,,,,,
,,,,,,,,,,,baran,001,2023-11-07_16h15.40.131,vowel_harmony,2023.2.3,MacIntel,60.0024001,175.6303,176.6288,,,,,,,,,,,,,,,,,,,,,,,,,,176.629,177.1799,z,1,0.5329,,177.18,177.1801,,0,52,52,183,1,184,orkın,,,,,5,harmonic,1.9,nw,z,,,,,,,
,,,,,,,,,,,baran,001,2023-11-07_16h15.40.131,vowel_harmony,2023.2.3,MacIntel,60.0024001,177.1806,178.1815,,,,,,,,,,,,,,,,,,,,,,,,,,178.1822,178.7329,z,1,0.5225,,178.733,178.733,,0,53,53,329,1,330,taif,,,,,4,notharmonic,1.8,nw,z,,,,,,,
,,,,,,,,,,,baran,001,2023-11-07_16h15.40.131,vowel_harmony,2023.2.3,MacIntel,60.0024001,178.7332,179.7291,,,,,,,,,,,,,,,,,,,,,,,,,,179.7291,180.398,z,1,0.6516,,180.3981,180.3982,,0,54,54,291,1,292,mepan,,,,,5,notharmonic,1.75,nw,z,,,,,,,
,,,,,,,,,,,baran,001,2023-11-07_16h15.40.131,vowel_harmony,2023.2.3,MacIntel,60.0024001,180.3985,181.3962,,,,,,,,,,,,,,,,,,,,,,,,,,181.3963,182.0613,m,1,0.6484,,182.0613,182.0614,,0,55,55,139,1,140,lira,1253,56.9314,947,0.1035,4,notharmonic,1.4,word,m,,,,,,,
,,,,,,,,,,,baran,001,2023-11-07_16h15.40.131,vowel_harmony,2023.2.3,MacIntel,60.0024001,182.0621,183.0622,,,,,,,,,,,,,,,,,,,,,,,,,,183.0622,183.6472,m,1,0.5533,,183.6472,183.6474,,0,56,56,61,1,62,yıldız,1775,80.649,1532,0.1675,6,harmonic,1.6,word,m,,,,,,,
,,,,,,,,,,,baran,001,2023-11-07_16h15.40.131,vowel_harmony,2023.2.3,MacIntel,60.0024001,183.6479,184.6477,,,,,,,,,,,,,,,,,,,,,,,,,,184.6477,185.548,m,1,0.8835,,185.548,185.548,,0,57,57,140,1,141,sahil,481,21.8547,443,0.0484,5,notharmonic,1.45,word,m,,,,,,,
,,,,,,,,,,,baran,001,2023-11-07_16h15.40.131,vowel_harmony,2023.2.3,MacIntel,60.0024001,185.5483,186.546,,,,,,,,,,,,,,,,,,,,,,,,,,186.546,187.347,z,1,0.788,,187.347,187.347,,0,58,58,314,1,315,seral,,,,,5,notharmonic,1.7,nw,z,,,,,,,
,,,,,,,,,,,baran,001,2023-11-07_16h15.40.131,vowel_harmony,2023.2.3,MacIntel,60.0024001,187.3478,188.3478,,,,,,,,,,,,,,,,,,,,,,,,,,188.3479,188.9287,z,1,0.5499,,188.9288,188.9289,,0,59,59,328,1,329,kirul,,,,,5,notharmonic,1.95,nw,z,,,,,,,
,,,,,,,,,,,baran,001,2023-11-07_16h15.40.131,vowel_harmony,2023.2.3,MacIntel,60.0024001,188.9291,189.9296,,,,,,,,,,,,,,,,,,,,,,,,,,189.9296,190.5181,z,1,0.5703,,190.5181,190.5183,,0,60,60,346,1,347,kidan,,,,,5,notharmonic,1.8,nw,z,,,,,,,
,,,,,,,,,,,baran,001,2023-11-07_16h15.40.131,vowel_harmony,2023.2.3,MacIntel,60.0024001,190.5185,191.5122,,,,,,,,,,,,,,,,,,,,,,,,,,191.5122,192.1283,m,1,0.5909,,192.1283,192.1284,,0,61,61,53,1,54,gelir,7578,344.3143,7014,0.7668,5,harmonic,1.4,word,m,,,,,,,
,,,,,,,,,,,baran,001,2023-11-07_16h15.40.131,vowel_harmony,2023.2.3,MacIntel,60.0024001,192.1292,193.1295,,,,,,,,,,,,,,,,,,,,,,,,,,193.1295,193.7499,z,1,0.6053,,193.7499,193.75,,0,62,62,292,1,293,kinam,,,,,5,notharmonic,1.85,nw,z,,,,,,,
,,,,,,,,,,,baran,001,2023-11-07_16h15.40.131,vowel_harmony,2023.2.3,MacIntel,60.0024001,193.7503,194.7477,,,,,,,,,,,,,,,,,,,,,,,,,,194.7477,195.5143,z,1,0.737,,195.5144,195.5144,,0,63,63,337,1,338,bakem,,,,,5,notharmonic,1.7,nw,z,,,,,,,
,,,,,,,,,,,baran,001,2023-11-07_16h15.40.131,vowel_harmony,2023.2.3,MacIntel,60.0024001,195.5147,196.5133,,,,,,,,,,,,,,,,,,,,,,,,,,196.5134,197.1301,z,1,0.588,,197.1302,197.1302,,0,64,64,206,1,207,bevek,,,,,5,harmonic,1.75,nw,z,,,,,,,
,,,,,,,,,,,baran,001,2023-11-07_16h15.40.131,vowel_harmony,2023.2.3,MacIntel,60.0024001,197.1318,198.1399,,,,,,,,,,,,,,,,,,,,,,,,,,198.14,198.7944,z,1,0.623,,198.7944,198.7945,,0,65,65,284,1,285,deval,,,,,5,notharmonic,1.75,nw,z,,,,,,,
,,,,,,,,,,,baran,001,2023-11-07_16h15.40.131,vowel_harmony,2023.2.3,MacIntel,60.0024001,198.7953,199.7982,,,,,,,,,,,,,,,,,,,,,,,,,,199.7984,200.9029,z,1,0.9926,,200.903,200.903,,0,66,66,280,1,281,adalek,,,,,6,notharmonic,1.85,nw,z,,,,,,,
,,,,,,,,,,,baran,001,2023-11-07_16h15.40.131,vowel_harmony,2023.2.3,MacIntel,60.0024001,200.9033,201.8963,,,,,,,,,,,,,,,,,,,,,,,,,,201.8964,202.7115,z,1,0.7989,,202.7116,202.7116,,0,67,67,297,1,298,sapet,,,,,5,notharmonic,1.85,nw,z,,,,,,,
,,,,,,,,,,,baran,001,2023-11-07_16h15.40.131,vowel_harmony,2023.2.3,MacIntel,60.0024001,202.712,203.7126,,,,,,,,,,,,,,,,,,,,,,,,,,203.7127,204.4115,m,1,0.6798,,204.4115,204.4117,,0,68,68,109,1,110,milyon,3936,178.8362,2958,0.3234,6,notharmonic,1.75,word,m,,,,,,,
,,,,,,,,,,,baran,001,2023-11-07_16h15.40.131,vowel_harmony,2023.2.3,MacIntel,60.0024001,204.412,205.4147,,,,,,,,,,,,,,,,,,,,,,,,,,205.4155,206.0115,z,1,0.5709,,206.0115,206.0116,,0,69,69,271,1,272,mimal,,,,,5,notharmonic,1.8,nw,z,,,,,,,
,,,,,,,,,,,baran,001,2023-11-07_16h15.40.131,vowel_harmony,2023.2.3,MacIntel,60.0024001,206.0123,207.0114,,,,,,,,,,,,,,,,,,,,,,,,,,207.0115,207.5629,z,1,0.5299,,207.5629,207.5629,,0,70,70,188,1,189,tonık,,,,,5,harmonic,1.85,nw,z,,,,,,,
,,,,,,,,,,,baran,001,2023-11-07_16h15.40.131,vowel_harmony,2023.2.3,MacIntel,60.0024001,207.5634,208.5646,,,,,,,,,,,,,,,,,,,,,,,,,,208.5646,209.1956,z,1,0.602,,209.1957,209.1957,,0,71,71,272,1,273,daken,,,,,5,notharmonic,1.8,nw,z,,,,,,,
,,,,,,,,,,,baran,001,2023-11-07_16h15.40.131,vowel_harmony,2023.2.3,MacIntel,60.0024001,209.1961,210.1966,,,,,,,,,,,,,,,,,,,,,,,,,,210.1966,210.7474,m,1,0.5374,,210.7474,210.7474,,0,72,72,165,1,166,gazete,1402,63.7013,1270,0.1388,6,notharmonic,1.8,word,m,,,,,,,
,,,,,,,,,,,baran,001,2023-11-07_16h15.40.131,vowel_harmony,2023.2.3,MacIntel,60.0024001,210.7478,211.7509,,,,,,,,,,,,,,,,,,,,,,,,,,211.751,212.2642,z,1,0.4861,,212.2643,212.2643,,0,73,73,313,1,314,ikas,,,,,4,notharmonic,1.85,nw,z,,,,,,,
,,,,,,,,,,,baran,001,2023-11-07_16h15.40.131,vowel_harmony,2023.2.3,MacIntel,60.0024001,212.2651,213.2627,,,,,,,,,,,,,,,,,,,,,,,,,,213.2627,213.8112,m,1,0.513,,213.8113,213.8114,,0,74,74,147,1,148,işaret,1888,85.7832,1787,0.1954,6,notharmonic,1,word,m,,,,,,,
,,,,,,,,,,,baran,001,2023-11-07_16h15.40.131,vowel_harmony,2023.2.3,MacIntel,60.0024001,213.8119,214.8114,,,,,,,,,,,,,,,,,,,,,,,,,,214.8114,215.5298,z,1,0.7016,,215.5298,215.5298,,0,75,75,312,1,313,şahmin,,,,,6,notharmonic,1.8,nw,z,,,,,,,
,,,,,,,,,,,baran,001,2023-11-07_16h15.40.131,vowel_harmony,2023.2.3,MacIntel,60.0024001,215.5302,216.5281,,,,,,,,,,,,,,,,,,,,,,,,,,216.5282,217.1978,m,1,0.6388,,217.1978,217.1978,,0,76,76,174,1,175,bugün,13879,630.6067,12842,1.4039,5,notharmonic,1.85,word,m,,,,,,,
,,,,,,,,,,,baran,001,2023-11-07_16h15.40.131,vowel_harmony,2023.2.3,MacIntel,60.0024001,217.1985,218.1993,,,,,,,,,,,,,,,,,,,,,,,,,,218.1993,218.7956,z,1,0.5687,,218.7957,218.7958,,0,77,77,241,1,242,porlam,,,,,6,harmonic,2,nw,z,,,,,,,
,,,,,,,,,,,baran,001,2023-11-07_16h15.40.131,vowel_harmony,2023.2.3,MacIntel,60.0024001,218.7962,219.7982,,,,,,,,,,,,,,,,,,,,,,,,,,219.7982,220.4111,m,1,0.5803,,220.4112,220.4113,,0,78,78,86,1,87,gerçek,8983,408.1519,8058,0.8809,6,harmonic,1.7,word,m,,,,,,,
,,,,,,,,,,,baran,001,2023-11-07_16h15.40.131,vowel_harmony,2023.2.3,MacIntel,60.0024001,220.4116,221.411,,,,,,,,,,,,,,,,,,,,,,,,,,221.4111,222.0625,z,1,0.6335,,222.0625,222.0625,,0,79,79,253,1,254,meslet,,,,,6,harmonic,1.85,nw,z,,,,,,,
,,,,,,,,,,,baran,001,2023-11-07_16h15.40.131,vowel_harmony,2023.2.3,MacIntel,60.0024001,222.063,223.0632,,,,,,,,,,,,,,,,,,,,,,,,,,223.0633,223.7117,m,1,0.6136,,223.7117,223.7117,,0,80,80,13,1,14,nokta,2085,94.7341,1939,0.212,5,harmonic,1.5,word,m,,,,,,,
,,,,,,,,,,,baran,001,2023-11-07_16h15.40.131,vowel_harmony,2023.2.3,MacIntel,60.0024001,223.7121,224.7131,,,,,,,,,,,,,,,,,,,,,,,,,,224.7131,225.2733,m,1,0.5358,,225.2742,225.2743,,0,81,81,157,1,158,aktif,1062,48.2531,986,0.1078,5,notharmonic,1.9,word,m,,,,,,,
,,,,,,,,,,,baran,001,2023-11-07_16h15.40.131,vowel_harmony,2023.2.3,MacIntel,60.0024001,225.2751,226.2785,,,,,,,,,,,,,,,,,,,,,,,,,,226.2785,226.9692,m,1,0.6745,,226.9692,226.9692,,0,82,82,117,1,118,nasip,1069,48.5711,1042,0.1139,5,notharmonic,1.8,word,m,,,,,,,
,,,,,,,,,,,baran,001,2023-11-07_16h15.40.131,vowel_harmony,2023.2.3,MacIntel,60.0024001,226.9695,227.9643,,,,,,,,,,,,,,,,,,,,,,,,,,227.9643,228.5293,z,1,0.5339,,228.5294,228.5294,,0,83,83,278,1,279,sekon,,,,,5,notharmonic,1.85,nw,z,,,,,,,
,,,,,,,,,,,baran,001,2023-11-07_16h15.40.131,vowel_harmony,2023.2.3,MacIntel,60.0024001,228.5297,229.5292,,,,,,,,,,,,,,,,,,,,,,,,,,229.5292,230.1962,z,1,0.6507,,230.1963,230.1963,,0,84,84,281,1,282,afel,,,,,4,notharmonic,1.8,nw,z,,,,,,,
,,,,,,,,,,,baran,001,2023-11-07_16h15.40.131,vowel_harmony,2023.2.3,MacIntel,60.0024001,230.1966,231.1951,,,,,,,,,,,,,,,,,,,,,,,,,,231.1951,232.0312,z,1,0.8206,,232.0313,232.0314,,0,85,85,295,1,296,haylin,,,,,6,notharmonic,1.8,nw,z,,,,,,,
,,,,,,,,,,,baran,001,2023-11-07_16h15.40.131,vowel_harmony,2023.2.3,MacIntel,60.0024001,232.0325,233.0275,,,,,,,,,,,,,,,,,,,,,,,,,,233.0275,233.7148,z,1,0.6694,,233.7149,233.7149,,0,86,86,250,1,251,kakuk,,,,,5,harmonic,1.9,nw,z,,,,,,,
,,,,,,,,,,,baran,001,2023-11-07_16h15.40.131,vowel_harmony,2023.2.3,MacIntel,60.0024001,233.7158,234.7108,,,,,,,,,,,,,,,,,,,,,,,,,,234.7109,235.3291,m,1,0.5977,,235.3292,235.3292,,0,87,87,84,1,85,ülke,3121,141.8059,2801,0.3062,4,harmonic,1.65,word,m,,,,,,,
,,,,,,,,,,,baran,001,2023-11-07_16h15.40.131,vowel_harmony,2023.2.3,MacIntel,60.0024001,235.3296,236.3308,,,,,,,,,,,,,,,,,,,,,,,,,,236.3309,236.9473,m,1,0.5885,,236.9473,236.9474,,0,88,88,14,1,15,yaşam,4348,197.5559,3918,0.4283,5,harmonic,1.4,word,m,,,,,,,
,,,,,,,,,,,baran,001,2023-11-07_16h15.40.131,vowel_harmony,2023.2.3,MacIntel,60.0024001,236.9477,237.9478,,,,,,,,,,,,,,,,,,,,,,,,,,237.9479,238.6462,m,1,0.6718,,238.6462,238.6462,,0,89,89,68,1,69,ücret,734,33.35,634,0.0693,5,harmonic,1.85,word,m,,,,,,,
,,,,,,,,,,,baran,001,2023-11-07_16h15.40.131,vowel_harmony,2023.2.3,MacIntel,60.0024001,238.6464,239.6391,,,,,,,,,,,,,,,,,,,,,,,,,,239.6391,240.1718,m,1,0.5125,,240.1718,240.172,,0,90,90,2,1,3,radyo,763,34.6677,636,0.0695,5,harmonic,1.85,word,m,,,,,,,
,,,,,,,,,,,baran,001,2023-11-07_16h15.40.131,vowel_harmony,2023.2.3,MacIntel,60.0024001,240.1741,241.1786,,,,,,,,,,,,,,,,,,,,,,,,,,241.1786,241.8127,z,1,0.6009,,241.8127,241.8127,,0,91,91,240,1,241,hoga,,,,,4,harmonic,1.75,nw,z,,,,,,,
,,,,,,,,,,,baran,001,2023-11-07_16h15.40.131,vowel_harmony,2023.2.3,MacIntel,60.0024001,241.8132,242.8148,,,,,,,,,,,,,,,,,,,,,,,,,,242.8148,243.5361,z,1,0.6949,,243.5362,243.5362,,0,92,92,310,1,311,yandeş,,,,,6,notharmonic,1.95,nw,z,,,,,,,
,,,,,,,,,,,baran,001,2023-11-07_16h15.40.131,vowel_harmony,2023.2.3,MacIntel,60.0024001,243.5365,244.5281,,,,,,,,,,,,,,,,,,,,,,,,,,244.5281,245.1476,m,1,0.5997,,245.1477,245.1477,,0,93,93,118,1,119,meşhur,1092,49.6161,1057,0.1156,6,notharmonic,1.9,word,m,,,,,,,
,,,,,,,,,,,baran,001,2023-11-07_16h15.40.131,vowel_harmony,2023.2.3,MacIntel,60.0024001,245.148,246.1467,,,,,,,,,,,,,,,,,,,,,,,,,,246.1467,246.7643,m,1,0.5892,,246.7643,246.7645,,0,94,94,94,1,95,final,876,39.802,778,0.0851,5,notharmonic,1,word,m,,,,,,,
,,,,,,,,,,,baran,001,2023-11-07_16h15.40.131,vowel_harmony,2023.2.3,MacIntel,60.0024001,246.7647,247.763,,,,,,,,,,,,,,,,,,,,,,,,,,247.7631,248.3947,m,1,0.6027,,248.3947,248.3949,,0,95,95,51,1,52,ilginç,2803,127.3572,2690,0.2941,6,harmonic,1.8,word,m,,,,,,,
,,,,,,,,,,,baran,001,2023-11-07_16h15.40.131,vowel_harmony,2023.2.3,MacIntel,60.0024001,248.3954,249.3958,,,,,,,,,,,,,,,,,,,,,,,,,,249.3958,250.0472,m,1,0.6317,,250.0472,250.0473,,0,96,96,46,1,47,takım,4370,198.5555,3726,0.4073,5,harmonic,1.7,word,m,,,,,,,
,,,,,,,,,,,baran,001,2023-11-07_16h15.40.131,vowel_harmony,2023.2.3,MacIntel,60.0024001,250.0477,251.0465,,,,,,,,,,,,,,,,,,,,,,,,,,251.0465,251.6318,m,1,0.5575,,251.6319,251.6319,,0,97,97,152,1,153,tedavi,1865,84.7382,1597,0.1746,6,notharmonic,1.8,word,m,,,,,,,
,,,,,,,,,,,baran,001,2023-11-07_16h15.40.131,vowel_harmony,2023.2.3,MacIntel,60.0024001,251.6326,252.6282,,,,,,,,,,,,,,,,,,,,,,,,,,252.6283,253.1942,z,1,0.5363,,253.1942,253.1943,,0,98,98,234,1,235,düzöt,,,,,5,harmonic,2.05,nw,z,,,,,,,
,,,,,,,,,,,baran,001,2023-11-07_16h15.40.131,vowel_harmony,2023.2.3,MacIntel,60.0024001,253.1946,254.1963,,,,,,,,,,,,,,,,,,,,,,,,,,254.1963,254.6964,z,1,0.4853,,254.6964,254.6964,,0,99,99,236,1,237,toklam,,,,,6,harmonic,1.85,nw,z,,,,,,,
,,,,,,,,,,,baran,001,2023-11-07_16h15.40.131,vowel_harmony,2023.2.3,MacIntel,60.0024001,254.6977,255.6944,,,,,,,,,,,,,,,,,,,,,,,,,,255.6944,256.2099,z,1,0.4993,,256.2108,256.2109,,0,100,100,195,1,196,netüm,,,,,5,harmonic,1.95,nw,z,,,,,,,
,,,,,,,,,,,baran,001,2023-11-07_16h15.40.131,vowel_harmony,2023.2.3,MacIntel,60.0024001,256.2122,257.2114,,,,,,,,,,,,,,,,,,,,,,,,,,257.2115,257.7482,z,1,0.5067,,257.7483,257.7484,,0,101,101,307,1,308,merbat,,,,,6,notharmonic,1.95,nw,z,,,,,,,
,,,,,,,,,,,baran,001,2023-11-07_16h15.40.131,vowel_harmony,2023.2.3,MacIntel,60.0024001,257.7489,258.7445,,,,,,,,,,,,,,,,,,,,,,,,,,258.7446,259.3612,m,1,0.5903,,259.3612,259.3613,,0,102,102,37,1,38,hayvan,2363,107.3653,1894,0.2071,6,harmonic,1.5,word,m,,,,,,,
,,,,,,,,,,,baran,001,2023-11-07_16h15.40.131,vowel_harmony,2023.2.3,MacIntel,60.0024001,259.3616,260.3627,,,,,,,,,,,,,,,,,,,,,,,,,,260.3627,261.0417,z,1,0.6543,,261.0418,261.0419,,0,103,103,231,1,232,norgun,,,,,6,harmonic,1.75,nw,z,,,,,,,
,,,,,,,,,,,baran,001,2023-11-07_16h15.40.131,vowel_harmony,2023.2.3,MacIntel,60.0024001,261.0427,262.0477,,,,,,,,,,,,,,,,,,,,,,,,,,262.0478,262.6974,z,1,0.623,,262.6975,262.6975,,0,104,104,344,1,345,barika,,,,,6,notharmonic,1.75,nw,z,,,,,,,
,,,,,,,,,,,baran,001,2023-11-07_16h15.40.131,vowel_harmony,2023.2.3,MacIntel,60.0024001,262.698,263.6945,,,,,,,,,,,,,,,,,,,,,,,,,,263.6945,264.5129,m,1,0.7889,,264.5129,264.5129,,0,105,105,113,1,114,model,1200,54.5232,1082,0.1183,5,notharmonic,1.75,word,m,,,,,,,
,,,,,,,,,,,baran,001,2023-11-07_16h15.40.131,vowel_harmony,2023.2.3,MacIntel,60.0024001,264.5133,265.5149,,,,,,,,,,,,,,,,,,,,,,,,,,265.5149,266.256,z,1,0.7126,,266.2561,266.2563,,0,106,106,338,1,339,pardön,,,,,6,notharmonic,1.95,nw,z,,,,,,,
,,,,,,,,,,,baran,001,2023-11-07_16h15.40.131,vowel_harmony,2023.2.3,MacIntel,60.0024001,266.2571,267.248,,,,,,,,,,,,,,,,,,,,,,,,,,267.2482,267.8143,z,1,0.534,,267.8143,267.8144,,0,107,107,184,1,185,yapor,,,,,5,harmonic,1.9,nw,z,,,,,,,
,,,,,,,,,,,baran,001,2023-11-07_16h15.40.131,vowel_harmony,2023.2.3,MacIntel,60.0024001,267.8151,268.8154,,,,,,,,,,,,,,,,,,,,,,,,,,268.8155,269.396,m,1,0.5524,,269.396,269.3961,,0,108,108,130,1,131,hamile,1075,48.8437,877,0.0959,6,notharmonic,1.5,word,m,,,,,,,
,,,,,,,,,,,baran,001,2023-11-07_16h15.40.131,vowel_harmony,2023.2.3,MacIntel,60.0024001,269.3963,270.3971,,,,,,,,,,,,,,,,,,,,,,,,,,270.3972,270.9331,z,0,0.511,,270.9331,270.9331,,0,109,109,50,1,51,kanun,1198,54.4324,1010,0.1104,5,harmonic,1.6,word,m,,,,,,,
,,,,,,,,,,,baran,001,2023-11-07_16h15.40.131,vowel_harmony,2023.2.3,MacIntel,60.0024001,270.9347,271.9312,,,,,,,,,,,,,,,,,,,,,,,,,,271.9312,272.5792,m,1,0.6209,,272.5793,272.5794,,0,110,110,177,1,178,tekrar,10788,490.1639,9352,1.0224,6,notharmonic,1.85,word,m,,,,,,,
,,,,,,,,,,,baran,001,2023-11-07_16h15.40.131,vowel_harmony,2023.2.3,MacIntel,60.0024001,272.58,273.5799,,,,,,,,,,,,,,,,,,,,,,,,,,273.58,274.2294,z,1,0.6203,,274.2294,274.2295,,0,111,111,268,1,269,haldum,,,,,6,harmonic,2,nw,z,,,,,,,
,,,,,,,,,,,baran,001,2023-11-07_16h15.40.131,vowel_harmony,2023.2.3,MacIntel,60.0024001,274.2301,275.228,,,,,,,,,,,,,,,,,,,,,,,,,,275.228,276.0614,m,1,0.8178,,276.0614,276.0615,,0,112,112,145,1,146,iddia,2430,110.4096,2295,0.2509,5,notharmonic,1.85,word,m,,,,,,,
,,,,,,,,,,,baran,001,2023-11-07_16h15.40.131,vowel_harmony,2023.2.3,MacIntel,60.0024001,276.0619,277.0612,,,,,,,,,,,,,,,,,,,,,,,,,,277.0613,277.8465,z,1,0.7524,,277.8465,277.8466,,0,113,113,233,1,234,devpi,,,,,5,harmonic,1.8,nw,z,,,,,,,
,,,,,,,,,,,baran,001,2023-11-07_16h15.40.131,vowel_harmony,2023.2.3,MacIntel,60.0024001,277.847,278.848,,,,,,,,,,,,,,,,,,,,,,,,,,278.848,279.6781,z,1,0.7945,,279.6782,279.6782,,0,114,114,327,1,328,parkeş,,,,,6,notharmonic,1.9,nw,z,,,,,,,
,,,,,,,,,,,baran,001,2023-11-07_16h15.40.131,vowel_harmony,2023.2.3,MacIntel,60.0024001,279.6786,280.678,,,,,,,,,,,,,,,,,,,,,,,,,,280.678,281.3707,m,1,0.678,,281.3707,281.3708,,0,115,115,11,1,12,umut,1988,90.3268,1818,0.1987,4,harmonic,1.55,word,m,,,,,,,
,,,,,,,,,,,baran,001,2023-11-07_16h15.40.131,vowel_harmony,2023.2.3,MacIntel,60.0024001,281.3711,282.3622,,,,,,,,,,,,,,,,,,,,,,,,,,282.3622,283.0499,m,1,0.6617,,283.0499,283.05,,0,116,116,32,1,33,temel,4231,192.2399,3851,0.421,5,harmonic,1.55,word,m,,,,,,,
,,,,,,,,,,,baran,001,2023-11-07_16h15.40.131,vowel_harmony,2023.2.3,MacIntel,60.0024001,283.0503,284.0438,,,,,,,,,,,,,,,,,,,,,,,,,,284.0439,284.6774,m,1,0.607,,284.6774,284.6775,,0,117,117,141,1,142,madde,3793,172.3389,3389,0.3705,5,notharmonic,1.7,word,m,,,,,,,
,,,,,,,,,,,baran,001,2023-11-07_16h15.40.131,vowel_harmony,2023.2.3,MacIntel,60.0024001,284.6778,285.677,,,,,,,,,,,,,,,,,,,,,,,,,,285.6771,286.3146,m,1,0.6126,,286.3147,286.3147,,0,118,118,18,1,19,normal,4154,188.7413,3788,0.4141,6,harmonic,1.75,word,m,,,,,,,
,,,,,,,,,,,baran,001,2023-11-07_16h15.40.131,vowel_harmony,2023.2.3,MacIntel,60.0024001,286.317,287.311,,,,,,,,,,,,,,,,,,,,,,,,,,287.311,288.1126,z,1,0.7746,,288.1127,288.1128,,0,119,119,323,1,324,devak,,,,,5,notharmonic,1.75,nw,z,,,,,,,
,,,,,,,,,,,baran,001,2023-11-07_16h15.40.131,vowel_harmony,2023.2.3,MacIntel,60.0024001,288.1148,289.103,,,,,,,,,,,,,,,,,,,,,,,,,,289.103,289.8686,z,1,0.7109,,289.8703,304.4618,space,0,120,120,210,1,211,şevci,,,,,5,harmonic,1.75,nw,z,14.5593,,,,,,
,,,,,,,,,,,baran,001,2023-11-07_16h15.40.131,vowel_harmony,2023.2.3,MacIntel,60.0024001,304.4792,305.4781,,,,,,,,,,,,,,,,,,,,,,,,,,305.4782,306.0775,m,1,0.5699,,306.0776,306.0777,,0,121,121,72,1,73,çorba,1674,76.0599,1513,0.1654,5,harmonic,1.75,word,m,,,,,,,
,,,,,,,,,,,baran,001,2023-11-07_16h15.40.131,vowel_harmony,2023.2.3,MacIntel,60.0024001,306.0782,307.0779,,,,,,,,,,,,,,,,,,,,,,,,,,307.0781,307.6733,m,1,0.5634,,307.6733,307.6735,,0,122,122,25,1,26,rapor,703,31.9415,617,0.0675,5,harmonic,1.8,word,m,,,,,,,
,,,,,,,,,,,baran,001,2023-11-07_16h15.40.131,vowel_harmony,2023.2.3,MacIntel,60.0024001,307.6741,308.662,,,,,,,,,,,,,,,,,,,,,,,,,,308.662,309.73,z,1,1.0415,,309.7301,309.7301,,0,123,123,319,1,320,biho,,,,,4,notharmonic,2,nw,z,,,,,,,
,,,,,,,,,,,baran,001,2023-11-07_16h15.40.131,vowel_harmony,2023.2.3,MacIntel,60.0024001,309.7305,310.7226,,,,,,,,,,,,,,,,,,,,,,,,,,310.7227,311.4271,m,1,0.667,,311.4272,311.4272,,0,124,124,107,1,108,merak,5806,263.8016,5524,0.6039,5,notharmonic,1.65,word,m,,,,,,,
,,,,,,,,,,,baran,001,2023-11-07_16h15.40.131,vowel_harmony,2023.2.3,MacIntel,60.0024001,311.4275,312.4279,,,,,,,,,,,,,,,,,,,,,,,,,,312.428,313.0116,m,1,0.5696,,313.0116,313.0119,,0,125,125,96,1,97,dahil,3189,144.8955,3060,0.3345,5,notharmonic,1.7,word,m,,,,,,,
,,,,,,,,,,,baran,001,2023-11-07_16h15.40.131,vowel_harmony,2023.2.3,MacIntel,60.0024001,313.0122,314.0233,,,,,,,,,,,,,,,,,,,,,,,,,,314.0233,314.6449,z,1,0.5714,,314.645,314.645,,0,126,126,306,1,307,otet,,,,,4,notharmonic,1.95,nw,z,,,,,,,
,,,,,,,,,,,baran,001,2023-11-07_16h15.40.131,vowel_harmony,2023.2.3,MacIntel,60.0024001,314.6453,315.6439,,,,,,,,,,,,,,,,,,,,,,,,,,315.644,316.2942,m,1,0.6196,,316.2942,316.2943,,0,127,127,164,1,165,sinema,1575,71.5618,1304,0.1426,6,notharmonic,1.8,word,m,,,,,,,
,,,,,,,,,,,baran,001,2023-11-07_16h15.40.131,vowel_harmony,2023.2.3,MacIntel,60.0024001,316.2946,317.2929,,,,,,,,,,,,,,,,,,,,,,,,,,317.2929,317.8388,m,1,0.5195,,317.8389,317.839,,0,128,128,97,1,98,mevcut,3007,136.6262,2842,0.3107,6,notharmonic,1.95,word,m,,,,,,,
,,,,,,,,,,,baran,001,2023-11-07_16h15.40.131,vowel_harmony,2023.2.3,MacIntel,60.0024001,317.8392,318.8296,,,,,,,,,,,,,,,,,,,,,,,,,,318.8297,319.5268,z,1,0.6684,,319.5268,319.5269,,0,129,129,211,1,212,yarum,,,,,5,harmonic,1.75,nw,z,,,,,,,
,,,,,,,,,,,baran,001,2023-11-07_16h15.40.131,vowel_harmony,2023.2.3,MacIntel,60.0024001,319.5272,320.5272,,,,,,,,,,,,,,,,,,,,,,,,,,320.5272,321.1961,z,1,0.6553,,321.1961,321.1962,,0,130,130,347,1,348,tekram,,,,,6,notharmonic,1.95,nw,z,,,,,,,
,,,,,,,,,,,baran,001,2023-11-07_16h15.40.131,vowel_harmony,2023.2.3,MacIntel,60.0024001,321.1973,322.1961,,,,,,,,,,,,,,,,,,,,,,,,,,322.1962,322.8109,z,1,0.5952,,322.8111,322.8113,,0,131,131,322,1,323,normin,,,,,6,notharmonic,1.95,nw,z,,,,,,,
,,,,,,,,,,,baran,001,2023-11-07_16h15.40.131,vowel_harmony,2023.2.3,MacIntel,60.0024001,322.8116,323.8109,,,,,,,,,,,,,,,,,,,,,,,,,,323.8109,324.4753,m,1,0.6383,,324.4754,324.4754,,0,132,132,89,1,90,etki,1234,56.0681,1169,0.1278,4,harmonic,1.4,word,m,,,,,,,
,,,,,,,,,,,baran,001,2023-11-07_16h15.40.131,vowel_harmony,2023.2.3,MacIntel,60.0024001,324.4759,325.4799,,,,,,,,,,,,,,,,,,,,,,,,,,325.4799,326.044,m,1,0.5371,,326.0441,326.0441,,0,133,133,77,1,78,ufak,3252,147.758,2980,0.3258,4,harmonic,1.5,word,m,,,,,,,
,,,,,,,,,,,baran,001,2023-11-07_16h15.40.131,vowel_harmony,2023.2.3,MacIntel,60.0024001,326.0445,327.044,,,,,,,,,,,,,,,,,,,,,,,,,,327.044,327.6946,z,1,0.6249,,327.6947,327.6948,,0,134,134,353,1,354,ikno,,,,,4,notharmonic,1.95,nw,z,,,,,,,
,,,,,,,,,,,baran,001,2023-11-07_16h15.40.131,vowel_harmony,2023.2.3,MacIntel,60.0024001,327.6957,328.6945,,,,,,,,,,,,,,,,,,,,,,,,,,328.6945,329.4947,m,1,0.7715,,329.4947,329.4947,,0,135,135,149,1,150,ceza,2611,118.6335,2169,0.2371,4,notharmonic,1.5,word,m,,,,,,,
,,,,,,,,,,,baran,001,2023-11-07_16h15.40.131,vowel_harmony,2023.2.3,MacIntel,60.0024001,329.4951,330.4943,,,,,,,,,,,,,,,,,,,,,,,,,,330.4946,331.0471,m,1,0.5247,,331.0471,331.0472,,0,136,136,153,1,154,inşaat,432,19.6284,376,0.0411,6,notharmonic,1.6,word,m,,,,,,,
,,,,,,,,,,,baran,001,2023-11-07_16h15.40.131,vowel_harmony,2023.2.3,MacIntel,60.0024001,331.0475,332.0449,,,,,,,,,,,,,,,,,,,,,,,,,,332.0449,332.6145,m,1,0.5421,,332.6147,332.6149,,0,137,137,131,1,132,hakim,1677,76.1962,1559,0.1704,5,notharmonic,1,word,m,,,,,,,
,,,,,,,,,,,baran,001,2023-11-07_16h15.40.131,vowel_harmony,2023.2.3,MacIntel,60.0024001,332.6157,333.6129,,,,,,,,,,,,,,,,,,,,,,,,,,333.6129,334.1958,m,1,0.556,,334.1959,334.1959,,0,138,138,144,1,145,garip,2567,116.6343,2355,0.2574,5,notharmonic,1.65,word,m,,,,,,,
,,,,,,,,,,,baran,001,2023-11-07_16h15.40.131,vowel_harmony,2023.2.3,MacIntel,60.0024001,334.1969,335.1941,,,,,,,,,,,,,,,,,,,,,,,,,,335.1941,335.8609,z,1,0.6489,,335.861,335.861,,0,139,139,237,1,238,taşal,,,,,5,harmonic,1.8,nw,z,,,,,,,
,,,,,,,,,,,baran,001,2023-11-07_16h15.40.131,vowel_harmony,2023.2.3,MacIntel,60.0024001,335.8617,336.8596,,,,,,,,,,,,,,,,,,,,,,,,,,336.8597,337.5479,z,1,0.651,,337.5479,337.548,,0,140,140,356,1,357,mergun,,,,,6,notharmonic,1.95,nw,z,,,,,,,
,,,,,,,,,,,baran,001,2023-11-07_16h15.40.131,vowel_harmony,2023.2.3,MacIntel,60.0024001,337.5483,338.5473,,,,,,,,,,,,,,,,,,,,,,,,,,338.5474,339.1948,m,1,0.6188,,339.195,339.1951,,0,141,141,126,1,127,adet,4367,198.4192,3768,0.4119,4,notharmonic,1.4,word,m,,,,,,,
,,,,,,,,,,,baran,001,2023-11-07_16h15.40.131,vowel_harmony,2023.2.3,MacIntel,60.0024001,339.1956,340.1911,,,,,,,,,,,,,,,,,,,,,,,,,,340.1911,340.7962,z,1,0.5761,,340.7962,340.7963,,0,142,142,235,1,236,oşup,,,,,4,harmonic,1.75,nw,z,,,,,,,
,,,,,,,,,,,baran,001,2023-11-07_16h15.40.131,vowel_harmony,2023.2.3,MacIntel,60.0024001,340.7967,341.7943,,,,,,,,,,,,,,,,,,,,,,,,,,341.7943,342.4493,m,1,0.6394,,342.4493,342.4497,,0,143,143,98,1,99,paket,1532,69.608,1392,0.1522,5,notharmonic,1.55,word,m,,,,,,,
,,,,,,,,,,,baran,001,2023-11-07_16h15.40.131,vowel_harmony,2023.2.3,MacIntel,60.0024001,342.4505,343.445,,,,,,,,,,,,,,,,,,,,,,,,,,343.4451,344.1945,m,1,0.7193,,344.1945,344.1945,,0,144,144,88,1,89,yalnız,5891,267.6637,5440,0.5947,6,harmonic,1.6,word,m,,,,,,,
,,,,,,,,,,,baran,001,2023-11-07_16h15.40.131,vowel_harmony,2023.2.3,MacIntel,60.0024001,344.1949,345.1942,,,,,,,,,,,,,,,,,,,,,,,,,,345.1943,345.8762,m,1,0.6657,,345.8762,345.8762,,0,145,145,112,1,113,sezon,2315,105.1844,1917,0.2096,5,notharmonic,1.8,word,m,,,,,,,
,,,,,,,,,,,baran,001,2023-11-07_16h15.40.131,vowel_harmony,2023.2.3,MacIntel,60.0024001,345.8766,346.8778,,,,,,,,,,,,,,,,,,,,,,,,,,346.8778,347.5942,z,1,0.6964,,347.5942,347.5944,,0,146,146,238,1,239,kocı,,,,,4,harmonic,1.95,nw,z,,,,,,,
,,,,,,,,,,,baran,001,2023-11-07_16h15.40.131,vowel_harmony,2023.2.3,MacIntel,60.0024001,347.5947,348.593,,,,,,,,,,,,,,,,,,,,,,,,,,348.593,349.2761,m,1,0.6627,,349.2761,349.2762,,0,147,147,115,1,116,saniye,1088,49.4344,984,0.1076,6,notharmonic,1.35,word,m,,,,,,,
,,,,,,,,,,,baran,001,2023-11-07_16h15.40.131,vowel_harmony,2023.2.3,MacIntel,60.0024001,349.2765,350.2765,,,,,,,,,,,,,,,,,,,,,,,,,,350.2766,350.9284,m,1,0.6321,,350.9284,350.9285,,0,148,148,133,1,134,taze,2268,103.0489,2062,0.2254,4,notharmonic,1.65,word,m,,,,,,,
,,,,,,,,,,,baran,001,2023-11-07_16h15.40.131,vowel_harmony,2023.2.3,MacIntel,60.0024001,350.9288,351.9265,,,,,,,,,,,,,,,,,,,,,,,,,,351.9265,352.5267,m,1,0.5794,,352.5267,352.5267,,0,149,149,124,1,125,ilan,1579,71.7435,1499,0.1639,4,notharmonic,1,word,m,,,,,,,
,,,,,,,,,,,baran,001,2023-11-07_16h15.40.131,vowel_harmony,2023.2.3,MacIntel,60.0024001,352.5271,353.5268,,,,,,,,,,,,,,,,,,,,,,,,,,353.5268,354.1113,m,1,0.5706,,354.1114,354.1115,,0,150,150,19,1,20,ödül,1063,48.2985,926,0.1012,4,harmonic,1.7,word,m,,,,,,,
,,,,,,,,,,,baran,001,2023-11-07_16h15.40.131,vowel_harmony,2023.2.3,MacIntel,60.0024001,354.1121,355.1025,,,,,,,,,,,,,,,,,,,,,,,,,,355.1025,355.7468,z,1,0.613,,355.7469,355.7469,,0,151,151,349,1,350,harten,,,,,6,notharmonic,1.85,nw,z,,,,,,,
,,,,,,,,,,,baran,001,2023-11-07_16h15.40.131,vowel_harmony,2023.2.3,MacIntel,60.0024001,355.7476,356.7465,,,,,,,,,,,,,,,,,,,,,,,,,,356.7465,357.3434,m,1,0.5696,,357.3434,357.3434,,0,152,152,7,1,8,hizmet,3023,137.3531,2689,0.294,6,harmonic,1.75,word,m,,,,,,,
,,,,,,,,,,,baran,001,2023-11-07_16h15.40.131,vowel_harmony,2023.2.3,MacIntel,60.0024001,357.3441,358.3453,,,,,,,,,,,,,,,,,,,,,,,,,,358.3454,359.1095,m,1,0.7332,,359.1095,359.1095,,0,153,153,39,1,40,yaygın,1061,48.2076,1019,0.1114,6,harmonic,1.35,word,m,,,,,,,
,,,,,,,,,,,baran,001,2023-11-07_16h15.40.131,vowel_harmony,2023.2.3,MacIntel,60.0024001,359.1099,360.1092,,,,,,,,,,,,,,,,,,,,,,,,,,360.1092,360.9113,m,1,0.7838,,360.9113,360.9113,,0,154,154,87,1,88,mümkün,6604,300.0596,6264,0.6848,6,harmonic,1.9,word,m,,,,,,,
,,,,,,,,,,,baran,001,2023-11-07_16h15.40.131,vowel_harmony,2023.2.3,MacIntel,60.0024001,360.9117,361.9099,,,,,,,,,,,,,,,,,,,,,,,,,,361.9099,362.6279,z,1,0.6981,,362.6279,362.628,,0,155,155,201,1,202,ergiy,,,,,5,harmonic,1.85,nw,z,,,,,,,
,,,,,,,,,,,baran,001,2023-11-07_16h15.40.131,vowel_harmony,2023.2.3,MacIntel,60.0024001,362.6283,363.6265,,,,,,,,,,,,,,,,,,,,,,,,,,363.6265,364.5597,z,1,0.9181,,364.5598,364.5598,,0,156,156,242,1,243,kahon,,,,,5,harmonic,1.85,nw,z,,,,,,,
,,,,,,,,,,,baran,001,2023-11-07_16h15.40.131,vowel_harmony,2023.2.3,MacIntel,60.0024001,364.5601,365.5485,,,,,,,,,,,,,,,,,,,,,,,,,,365.5486,366.8121,m,1,1.2491,,366.8121,366.8123,,0,157,157,27,1,28,bölge,1283,58.2944,1123,0.1228,5,harmonic,1.65,word,m,,,,,,,
,,,,,,,,,,,baran,001,2023-11-07_16h15.40.131,vowel_harmony,2023.2.3,MacIntel,60.0024001,366.83,367.8268,,,,,,,,,,,,,,,,,,,,,,,,,,367.8269,368.4429,m,1,0.6014,,368.443,368.4431,,0,158,158,10,1,11,bardak,1728,78.5135,1569,0.1715,6,harmonic,1.6,word,m,,,,,,,
,,,,,,,,,,,baran,001,2023-11-07_16h15.40.131,vowel_harmony,2023.2.3,MacIntel,60.0024001,368.4471,369.4443,,,,,,,,,,,,,,,,,,,,,,,,,,369.4443,370.3764,z,1,0.9036,,370.3764,370.3764,,0,159,159,277,1,278,balsin,,,,,6,notharmonic,1.85,nw,z,,,,,,,
,,,,,,,,,,,baran,001,2023-11-07_16h15.40.131,vowel_harmony,2023.2.3,MacIntel,60.0024001,370.3768,371.376,,,,,,,,,,,,,,,,,,,,,,,,,,371.3761,371.9371,m,1,0.5468,,371.9374,371.9378,,0,160,160,154,1,155,sakin,1855,84.2838,1635,0.1787,5,notharmonic,1.05,word,m,,,,,,,
,,,,,,,,,,,baran,001,2023-11-07_16h15.40.131,vowel_harmony,2023.2.3,MacIntel,60.0024001,371.9385,372.9429,,,,,,,,,,,,,,,,,,,,,,,,,,372.943,373.6111,m,1,0.6403,,373.6111,373.6112,,0,161,161,101,1,102,imza,1358,61.7021,1253,0.137,4,notharmonic,1.65,word,m,,,,,,,
,,,,,,,,,,,baran,001,2023-11-07_16h15.40.131,vowel_harmony,2023.2.3,MacIntel,60.0024001,373.6116,374.6096,,,,,,,,,,,,,,,,,,,,,,,,,,374.6097,375.2682,m,1,0.6442,,375.2682,375.2683,,0,162,162,71,1,72,örnek,3463,157.345,3266,0.357,5,harmonic,1.85,word,m,,,,,,,
,,,,,,,,,,,baran,001,2023-11-07_16h15.40.131,vowel_harmony,2023.2.3,MacIntel,60.0024001,375.269,376.2594,,,,,,,,,,,,,,,,,,,,,,,,,,376.2594,376.8615,m,1,0.5862,,376.8615,376.8616,,0,163,163,85,1,86,geçmiş,4195,190.6042,4039,0.4415,6,harmonic,1.55,word,m,,,,,,,
,,,,,,,,,,,baran,001,2023-11-07_16h15.40.131,vowel_harmony,2023.2.3,MacIntel,60.0024001,376.8619,377.86,,,,,,,,,,,,,,,,,,,,,,,,,,377.8601,378.5925,z,1,0.7147,,378.5927,378.5927,,0,164,164,220,1,221,denbi,,,,,5,harmonic,1.75,nw,z,,,,,,,
,,,,,,,,,,,baran,001,2023-11-07_16h15.40.131,vowel_harmony,2023.2.3,MacIntel,60.0024001,378.5932,379.5927,,,,,,,,,,,,,,,,,,,,,,,,,,379.5927,380.361,z,1,0.7522,,380.3611,380.3611,,0,165,165,336,1,337,diyam,,,,,5,notharmonic,1.85,nw,z,,,,,,,
,,,,,,,,,,,baran,001,2023-11-07_16h15.40.131,vowel_harmony,2023.2.3,MacIntel,60.0024001,380.3614,381.3604,,,,,,,,,,,,,,,,,,,,,,,,,,381.3604,381.9951,m,1,0.6052,,381.9951,381.9952,,0,166,166,121,1,122,mesaj,1604,72.8794,1386,0.1515,5,notharmonic,1.8,word,m,,,,,,,
,,,,,,,,,,,baran,001,2023-11-07_16h15.40.131,vowel_harmony,2023.2.3,MacIntel,60.0024001,381.9956,382.9943,,,,,,,,,,,,,,,,,,,,,,,,,,382.9944,383.7925,z,1,0.773,,383.7926,383.7931,,0,167,167,301,1,302,mezak,,,,,5,notharmonic,1.8,nw,z,,,,,,,
,,,,,,,,,,,baran,001,2023-11-07_16h15.40.131,vowel_harmony,2023.2.3,MacIntel,60.0024001,383.7941,384.792,,,,,,,,,,,,,,,,,,,,,,,,,,384.792,385.5291,z,1,0.72,,385.5291,385.5292,,0,168,168,221,1,222,yaypın,,,,,6,harmonic,1.75,nw,z,,,,,,,
,,,,,,,,,,,baran,001,2023-11-07_16h15.40.131,vowel_harmony,2023.2.3,MacIntel,60.0024001,385.5297,386.5258,,,,,,,,,,,,,,,,,,,,,,,,,,386.5258,387.3267,z,1,0.7819,,387.3267,387.3268,,0,169,169,254,1,255,millek,,,,,6,harmonic,1.8,nw,z,,,,,,,
,,,,,,,,,,,baran,001,2023-11-07_16h15.40.131,vowel_harmony,2023.2.3,MacIntel,60.0024001,387.3271,388.3262,,,,,,,,,,,,,,,,,,,,,,,,,,388.3263,389.0088,m,1,0.6654,,389.0088,389.0089,,0,170,170,99,1,100,ilave,3173,144.1685,2619,0.2863,5,notharmonic,1.85,word,m,,,,,,,
,,,,,,,,,,,baran,001,2023-11-07_16h15.40.131,vowel_harmony,2023.2.3,MacIntel,60.0024001,389.0092,390.0089,,,,,,,,,,,,,,,,,,,,,,,,,,390.0089,390.6599,z,1,0.6318,,390.66,390.66,,0,171,171,339,1,340,asmel,,,,,5,notharmonic,1.95,nw,z,,,,,,,
,,,,,,,,,,,baran,001,2023-11-07_16h15.40.131,vowel_harmony,2023.2.3,MacIntel,60.0024001,390.6604,391.6583,,,,,,,,,,,,,,,,,,,,,,,,,,391.6584,392.3271,z,1,0.6506,,392.3271,392.3271,,0,172,172,300,1,301,nilgi,,,,,5,notharmonic,1.85,nw,z,,,,,,,
,,,,,,,,,,,baran,001,2023-11-07_16h15.40.131,vowel_harmony,2023.2.3,MacIntel,60.0024001,392.3274,393.3258,,,,,,,,,,,,,,,,,,,,,,,,,,393.3258,393.9591,m,1,0.6119,,393.9591,393.9592,,0,173,173,120,1,121,ihmal,1002,45.5269,977,0.1068,5,notharmonic,1.65,word,m,,,,,,,
,,,,,,,,,,,baran,001,2023-11-07_16h15.40.131,vowel_harmony,2023.2.3,MacIntel,60.0024001,393.9595,394.9604,,,,,,,,,,,,,,,,,,,,,,,,,,394.9604,395.5769,m,1,0.5856,,395.5769,395.5769,,0,174,174,134,1,135,iptal,793,36.0308,725,0.0793,5,notharmonic,1.35,word,m,,,,,,,
,,,,,,,,,,,baran,001,2023-11-07_16h15.40.131,vowel_harmony,2023.2.3,MacIntel,60.0024001,395.5773,396.5754,,,,,,,,,,,,,,,,,,,,,,,,,,396.5755,397.411,z,1,0.801,,397.411,397.4112,,0,175,175,317,1,318,mevul,,,,,5,notharmonic,1.95,nw,z,,,,,,,
,,,,,,,,,,,baran,001,2023-11-07_16h15.40.131,vowel_harmony,2023.2.3,MacIntel,60.0024001,397.4116,398.4095,,,,,,,,,,,,,,,,,,,,,,,,,,398.4096,399.1272,z,1,0.6971,,399.1273,399.1273,,0,176,176,279,1,280,tadde,,,,,5,notharmonic,1.8,nw,z,,,,,,,
,,,,,,,,,,,baran,001,2023-11-07_16h15.40.131,vowel_harmony,2023.2.3,MacIntel,60.0024001,399.1276,400.0704,,,,,,,,,,,,,,,,,,,,,,,,,,400.0705,400.7439,z,1,0.6538,,400.7439,400.7439,,0,177,177,194,1,195,rayna,,,,,5,harmonic,1.7,nw,z,,,,,,,
,,,,,,,,,,,baran,001,2023-11-07_16h15.40.131,vowel_harmony,2023.2.3,MacIntel,60.0024001,400.7445,401.7423,,,,,,,,,,,,,,,,,,,,,,,,,,401.7423,402.4099,m,1,0.6381,,402.4099,402.41,,0,178,178,116,1,117,daire,621,28.2158,503,0.055,5,notharmonic,1,word,m,,,,,,,
,,,,,,,,,,,baran,001,2023-11-07_16h15.40.131,vowel_harmony,2023.2.3,MacIntel,60.0024001,402.4104,403.4112,,,,,,,,,,,,,,,,,,,,,,,,,,403.4113,404.0099,m,1,0.5719,,404.0101,404.0101,,0,179,179,65,1,66,fikir,2552,115.9528,2413,0.2638,5,harmonic,1.9,word,m,,,,,,,
,,,,,,,,,,,baran,001,2023-11-07_16h15.40.131,vowel_harmony,2023.2.3,MacIntel,60.0024001,404.0104,405.0104,,,,,,,,,,,,,,,,,,,,,,,,,,405.0105,405.5886,m,1,0.5487,,405.5886,405.5887,,0,180,180,80,1,81,merkez,1445,65.6551,1255,0.1372,6,harmonic,1.8,word,m,,,,,,,
,,,,,,,,,,,baran,001,2023-11-07_16h15.40.131,vowel_harmony,2023.2.3,MacIntel,60.0024001,405.5895,406.5778,,,,,,,,,,,,,,,,,,,,,,,,,,406.5778,407.392,z,1,0.7879,,407.3921,407.3921,,0,181,181,267,1,268,nokuma,,,,,6,harmonic,1.75,nw,z,,,,,,,
,,,,,,,,,,,baran,001,2023-11-07_16h15.40.131,vowel_harmony,2023.2.3,MacIntel,60.0024001,407.3925,408.3923,,,,,,,,,,,,,,,,,,,,,,,,,,408.3923,409.061,m,1,0.6539,,409.061,409.0611,,0,182,182,35,1,36,hava,4975,226.0443,4398,0.4808,4,harmonic,1,word,m,,,,,,,
,,,,,,,,,,,baran,001,2023-11-07_16h15.40.131,vowel_harmony,2023.2.3,MacIntel,60.0024001,409.0614,410.0591,,,,,,,,,,,,,,,,,,,,,,,,,,410.0592,410.8108,z,1,0.7269,,410.8108,410.8108,,0,183,183,311,1,312,dedya,,,,,5,notharmonic,1.9,nw,z,,,,,,,
,,,,,,,,,,,baran,001,2023-11-07_16h15.40.131,vowel_harmony,2023.2.3,MacIntel,60.0024001,410.8111,411.8081,,,,,,,,,,,,,,,,,,,,,,,,,,411.8081,412.3763,z,1,0.5475,,412.3763,412.3763,,0,184,184,264,1,265,vepü,,,,,4,harmonic,2,nw,z,,,,,,,
,,,,,,,,,,,baran,001,2023-11-07_16h15.40.131,vowel_harmony,2023.2.3,MacIntel,60.0024001,412.3767,413.3768,,,,,,,,,,,,,,,,,,,,,,,,,,413.3769,414.0101,z,1,0.6053,,414.0101,414.0102,,0,185,185,289,1,290,karmen,,,,,6,notharmonic,1.75,nw,z,,,,,,,
,,,,,,,,,,,baran,001,2023-11-07_16h15.40.131,vowel_harmony,2023.2.3,MacIntel,60.0024001,414.0107,415.0094,,,,,,,,,,,,,,,,,,,,,,,,,,415.0094,415.5795,z,1,0.5466,,415.5797,415.5797,,0,186,186,298,1,299,yelsın,,,,,6,notharmonic,1.95,nw,z,,,,,,,
,,,,,,,,,,,baran,001,2023-11-07_16h15.40.131,vowel_harmony,2023.2.3,MacIntel,60.0024001,415.5803,416.578,,,,,,,,,,,,,,,,,,,,,,,,,,416.578,417.1277,m,1,0.5243,,417.1278,417.1282,,0,187,187,170,1,171,basit,3385,153.801,3177,0.3473,5,notharmonic,1.65,word,m,,,,,,,
,,,,,,,,,,,baran,001,2023-11-07_16h15.40.131,vowel_harmony,2023.2.3,MacIntel,60.0024001,417.1286,418.127,,,,,,,,,,,,,,,,,,,,,,,,,,418.1271,418.7762,z,1,0.6283,,418.7763,418.7763,,0,188,188,286,1,287,cedan,,,,,5,notharmonic,1.8,nw,z,,,,,,,
,,,,,,,,,,,baran,001,2023-11-07_16h15.40.131,vowel_harmony,2023.2.3,MacIntel,60.0024001,418.7769,419.7784,,,,,,,,,,,,,,,,,,,,,,,,,,419.7784,420.3945,z,1,0.5828,,420.3945,420.3946,,0,189,189,274,1,275,pisan,,,,,5,notharmonic,1.75,nw,z,,,,,,,
,,,,,,,,,,,baran,001,2023-11-07_16h15.40.131,vowel_harmony,2023.2.3,MacIntel,60.0024001,420.3951,421.3918,,,,,,,,,,,,,,,,,,,,,,,,,,421.3918,421.9266,m,1,0.5123,,421.9266,421.9266,,0,190,190,127,1,128,şahane,1153,52.3877,1108,0.1211,6,notharmonic,1.8,word,m,,,,,,,
,,,,,,,,,,,baran,001,2023-11-07_16h15.40.131,vowel_harmony,2023.2.3,MacIntel,60.0024001,421.9272,422.9276,,,,,,,,,,,,,,,,,,,,,,,,,,422.9276,423.4761,z,1,0.5225,,423.4761,423.4763,,0,191,191,321,1,322,makih,,,,,5,notharmonic,1.8,nw,z,,,,,,,
,,,,,,,,,,,baran,001,2023-11-07_16h15.40.131,vowel_harmony,2023.2.3,MacIntel,60.0024001,423.477,424.4752,,,,,,,,,,,,,,,,,,,,,,,,,,424.4752,425.0597,z,1,0.568,,425.0597,425.06,,0,192,192,246,1,247,orkın,,,,,5,harmonic,1.9,nw,z,,,,,,,
,,,,,,,,,,,baran,001,2023-11-07_16h15.40.131,vowel_harmony,2023.2.3,MacIntel,60.0024001,425.0604,426.0592,,,,,,,,,,,,,,,,,,,,,,,,,,426.0592,426.842,z,1,0.766,,426.842,426.8424,,0,193,193,348,1,349,aife,,,,,4,notharmonic,1.75,nw,z,,,,,,,
,,,,,,,,,,,baran,001,2023-11-07_16h15.40.131,vowel_harmony,2023.2.3,MacIntel,60.0024001,426.8428,427.8442,,,,,,,,,,,,,,,,,,,,,,,,,,427.8442,428.5612,z,1,0.6818,,428.5614,428.5614,,0,194,194,320,1,321,finak,,,,,5,notharmonic,1.85,nw,z,,,,,,,
,,,,,,,,,,,baran,001,2023-11-07_16h15.40.131,vowel_harmony,2023.2.3,MacIntel,60.0024001,428.5618,429.5596,,,,,,,,,,,,,,,,,,,,,,,,,,429.5596,430.3266,z,1,0.735,,430.3266,430.3267,,0,195,195,186,1,187,habık,,,,,5,harmonic,1.9,nw,z,,,,,,,
,,,,,,,,,,,baran,001,2023-11-07_16h15.40.131,vowel_harmony,2023.2.3,MacIntel,60.0024001,430.3274,431.327,,,,,,,,,,,,,,,,,,,,,,,,,,431.327,431.9611,z,1,0.6156,,431.9611,431.9612,,0,196,196,193,1,194,yokın,,,,,5,harmonic,1.85,nw,z,,,,,,,
,,,,,,,,,,,baran,001,2023-11-07_16h15.40.131,vowel_harmony,2023.2.3,MacIntel,60.0024001,431.9616,432.9585,,,,,,,,,,,,,,,,,,,,,,,,,,432.9585,433.6422,m,1,0.664,,433.6422,433.6423,,0,197,197,162,1,163,hariç,1267,57.5675,1233,0.1348,5,notharmonic,1.75,word,m,,,,,,,
,,,,,,,,,,,baran,001,2023-11-07_16h15.40.131,vowel_harmony,2023.2.3,MacIntel,60.0024001,433.6428,434.6444,,,,,,,,,,,,,,,,,,,,,,,,,,434.6444,435.2458,z,1,0.5701,,435.2459,435.2459,,0,198,198,302,1,303,işgar,,,,,5,notharmonic,1.9,nw,z,,,,,,,
,,,,,,,,,,,baran,001,2023-11-07_16h15.40.131,vowel_harmony,2023.2.3,MacIntel,60.0024001,435.2464,436.2419,,,,,,,,,,,,,,,,,,,,,,,,,,436.2419,436.8704,m,1,0.601,,436.8705,436.8705,,0,199,199,167,1,168,adalet,1611,73.1975,1388,0.1517,6,notharmonic,1.65,word,m,,,,,,,
,,,,,,,,,,,baran,001,2023-11-07_16h15.40.131,vowel_harmony,2023.2.3,MacIntel,60.0024001,436.8719,437.8755,,,,,,,,,,,,,,,,,,,,,,,,,,437.8755,438.4417,z,1,0.5533,,438.4421,438.4422,,0,200,200,225,1,226,düvem,,,,,5,harmonic,1.7,nw,z,,,,,,,
,,,,,,,,,,,baran,001,2023-11-07_16h15.40.131,vowel_harmony,2023.2.3,MacIntel,60.0024001,438.4424,439.4419,,,,,,,,,,,,,,,,,,,,,,,,,,439.4419,440.0602,z,1,0.59,,440.0602,440.0603,,0,201,201,263,1,264,duzur,,,,,5,harmonic,1.8,nw,z,,,,,,,
,,,,,,,,,,,baran,001,2023-11-07_16h15.40.131,vowel_harmony,2023.2.3,MacIntel,60.0024001,440.0614,441.0591,,,,,,,,,,,,,,,,,,,,,,,,,,441.0591,441.7589,m,1,0.6782,,441.7589,441.7589,,0,202,202,168,1,169,kilo,3389,153.9827,2646,0.2893,4,notharmonic,1.65,word,m,,,,,,,
,,,,,,,,,,,baran,001,2023-11-07_16h15.40.131,vowel_harmony,2023.2.3,MacIntel,60.0024001,441.7594,442.7584,,,,,,,,,,,,,,,,,,,,,,,,,,442.7584,443.3748,m,1,0.6003,,443.3748,443.3749,,0,203,203,169,1,170,hikaye,1555,70.653,1405,0.1536,6,notharmonic,1.8,word,m,,,,,,,
,,,,,,,,,,,baran,001,2023-11-07_16h15.40.131,vowel_harmony,2023.2.3,MacIntel,60.0024001,443.3752,444.3744,,,,,,,,,,,,,,,,,,,,,,,,,,444.3745,444.9425,m,1,0.5477,,444.9426,444.9427,,0,204,204,40,1,41,tepki,1695,77.0141,1578,0.1725,5,harmonic,1.55,word,m,,,,,,,
,,,,,,,,,,,baran,001,2023-11-07_16h15.40.131,vowel_harmony,2023.2.3,MacIntel,60.0024001,444.9431,445.9442,,,,,,,,,,,,,,,,,,,,,,,,,,445.9442,446.627,m,1,0.654,,446.6271,446.6271,,0,205,205,75,1,76,roman,1499,68.1086,1281,0.14,5,harmonic,1.6,word,m,,,,,,,
,,,,,,,,,,,baran,001,2023-11-07_16h15.40.131,vowel_harmony,2023.2.3,MacIntel,60.0024001,446.6279,447.626,,,,,,,,,,,,,,,,,,,,,,,,,,447.6261,448.4756,z,1,0.8336,,448.4756,448.4757,,0,206,206,296,1,297,işban,,,,,5,notharmonic,1.95,nw,z,,,,,,,
,,,,,,,,,,,baran,001,2023-11-07_16h15.40.131,vowel_harmony,2023.2.3,MacIntel,60.0024001,448.476,449.4762,,,,,,,,,,,,,,,,,,,,,,,,,,449.4763,450.1257,m,1,0.6302,,450.1258,450.1258,,0,207,207,44,1,45,kayıt,1234,56.0681,1058,0.1157,5,harmonic,1.35,word,m,,,,,,,
,,,,,,,,,,,baran,001,2023-11-07_16h15.40.131,vowel_harmony,2023.2.3,MacIntel,60.0024001,450.1261,451.1251,,,,,,,,,,,,,,,,,,,,,,,,,,451.1251,451.8261,z,1,0.6693,,451.8261,451.8262,,0,208,208,260,1,261,yarlam,,,,,6,harmonic,1.75,nw,z,,,,,,,
,,,,,,,,,,,baran,001,2023-11-07_16h15.40.131,vowel_harmony,2023.2.3,MacIntel,60.0024001,451.8265,452.826,,,,,,,,,,,,,,,,,,,,,,,,,,452.8261,453.576,z,1,0.7301,,453.5761,453.5762,,0,209,209,283,1,284,fahe,,,,,4,notharmonic,1.95,nw,z,,,,,,,
,,,,,,,,,,,baran,001,2023-11-07_16h15.40.131,vowel_harmony,2023.2.3,MacIntel,60.0024001,453.5766,454.5749,,,,,,,,,,,,,,,,,,,,,,,,,,454.575,455.1914,z,1,0.5985,,455.1915,455.1916,,0,210,210,335,1,336,lilo,,,,,4,notharmonic,1.8,nw,z,,,,,,,
,,,,,,,,,,,baran,001,2023-11-07_16h15.40.131,vowel_harmony,2023.2.3,MacIntel,60.0024001,455.192,456.1945,,,,,,,,,,,,,,,,,,,,,,,,,,456.1945,456.9461,m,1,0.7197,,456.9462,456.9462,,0,211,211,114,1,115,nisan,2321,105.457,2044,0.2235,5,notharmonic,1.6,word,m,,,,,,,
,,,,,,,,,,,baran,001,2023-11-07_16h15.40.131,vowel_harmony,2023.2.3,MacIntel,60.0024001,456.9477,457.9449,,,,,,,,,,,,,,,,,,,,,,,,,,457.9449,458.8606,m,1,0.8913,,458.8606,458.8607,,0,212,212,76,1,77,ilişki,1675,76.1054,1524,0.1666,6,harmonic,1.8,word,m,,,,,,,
,,,,,,,,,,,baran,001,2023-11-07_16h15.40.131,vowel_harmony,2023.2.3,MacIntel,60.0024001,458.8609,459.86,,,,,,,,,,,,,,,,,,,,,,,,,,459.86,460.6472,m,1,0.7562,,460.6472,460.6473,,0,213,213,48,1,49,teşvik,932,42.3464,867,0.0948,6,harmonic,1.8,word,m,,,,,,,
,,,,,,,,,,,baran,001,2023-11-07_16h15.40.131,vowel_harmony,2023.2.3,MacIntel,60.0024001,460.6476,461.6472,,,,,,,,,,,,,,,,,,,,,,,,,,461.6472,462.3259,z,1,0.6526,,462.3259,462.3259,,0,214,214,222,1,223,gelü,,,,,4,harmonic,1.75,nw,z,,,,,,,
,,,,,,,,,,,baran,001,2023-11-07_16h15.40.131,vowel_harmony,2023.2.3,MacIntel,60.0024001,462.3262,463.3261,,,,,,,,,,,,,,,,,,,,,,,,,,463.3261,463.9096,m,1,0.5684,,463.9097,463.91,,0,215,215,1,1,2,erkek,6188,281.1582,5195,0.5679,5,harmonic,1.65,word,m,,,,,,,
,,,,,,,,,,,baran,001,2023-11-07_16h15.40.131,vowel_harmony,2023.2.3,MacIntel,60.0024001,463.9104,464.9082,,,,,,,,,,,,,,,,,,,,,,,,,,464.9083,465.5748,z,1,0.6483,,465.5749,465.5751,,0,216,216,248,1,249,şegim,,,,,5,harmonic,1.9,nw,z,,,,,,,
,,,,,,,,,,,baran,001,2023-11-07_16h15.40.131,vowel_harmony,2023.2.3,MacIntel,60.0024001,465.5755,466.5783,,,,,,,,,,,,,,,,,,,,,,,,,,466.5785,467.4789,z,1,0.8755,,467.479,467.479,,0,217,217,357,1,358,işarek,,,,,6,notharmonic,1.95,nw,z,,,,,,,
,,,,,,,,,,,baran,001,2023-11-07_16h15.40.131,vowel_harmony,2023.2.3,MacIntel,60.0024001,467.4793,468.476,,,,,,,,,,,,,,,,,,,,,,,,,,468.4761,469.1258,m,1,0.6281,,469.1258,469.1259,,0,218,218,81,1,82,üretim,1593,72.3796,1283,0.1403,6,harmonic,1.6,word,m,,,,,,,
,,,,,,,,,,,baran,001,2023-11-07_16h15.40.131,vowel_harmony,2023.2.3,MacIntel,60.0024001,469.1262,470.1265,,,,,,,,,,,,,,,,,,,,,,,,,,470.1265,470.8124,z,1,0.6618,,470.8125,470.8125,,0,219,219,315,1,316,takep,,,,,5,notharmonic,1.85,nw,z,,,,,,,
,,,,,,,,,,,baran,001,2023-11-07_16h15.40.131,vowel_harmony,2023.2.3,MacIntel,60.0024001,470.8128,471.8082,,,,,,,,,,,,,,,,,,,,,,,,,,471.8082,472.5752,m,1,0.7461,,472.5753,472.5753,,0,220,220,16,1,17,yavaş,5087,231.1331,2886,0.3155,5,harmonic,1.6,word,m,,,,,,,
,,,,,,,,,,,baran,001,2023-11-07_16h15.40.131,vowel_harmony,2023.2.3,MacIntel,60.0024001,472.5756,473.5743,,,,,,,,,,,,,,,,,,,,,,,,,,473.5743,474.1746,z,1,0.5796,,474.1746,474.1747,,0,221,221,205,1,206,kahay,,,,,5,harmonic,1.9,nw,z,,,,,,,
,,,,,,,,,,,baran,001,2023-11-07_16h15.40.131,vowel_harmony,2023.2.3,MacIntel,60.0024001,474.175,475.1756,,,,,,,,,,,,,,,,,,,,,,,,,,475.1756,475.7912,z,1,0.59,,475.7912,475.7913,,0,222,222,245,1,246,bıyan,,,,,5,harmonic,1.7,nw,z,,,,,,,
,,,,,,,,,,,baran,001,2023-11-07_16h15.40.131,vowel_harmony,2023.2.3,MacIntel,60.0024001,475.792,476.7916,,,,,,,,,,,,,,,,,,,,,,,,,,476.7916,477.4087,z,1,0.598,,477.4087,477.4088,,0,223,223,326,1,327,ailo,,,,,4,notharmonic,1.75,nw,z,,,,,,,
,,,,,,,,,,,baran,001,2023-11-07_16h15.40.131,vowel_harmony,2023.2.3,MacIntel,60.0024001,477.409,478.4114,,,,,,,,,,,,,,,,,,,,,,,,,,478.4114,479.0752,m,1,0.6361,,479.0753,479.0753,,0,224,224,49,1,50,şeker,4708,213.9128,4170,0.4559,5,harmonic,1.6,word,m,,,,,,,
,,,,,,,,,,,baran,001,2023-11-07_16h15.40.131,vowel_harmony,2023.2.3,MacIntel,60.0024001,479.0756,480.0754,,,,,,,,,,,,,,,,,,,,,,,,,,480.0754,480.7182,z,1,0.6169,,480.7183,480.7183,,0,225,225,340,1,341,minya,,,,,5,notharmonic,1.95,nw,z,,,,,,,
,,,,,,,,,,,baran,001,2023-11-07_16h15.40.131,vowel_harmony,2023.2.3,MacIntel,60.0024001,480.7186,481.7099,,,,,,,,,,,,,,,,,,,,,,,,,,481.7099,482.3327,m,1,0.5958,,482.3328,482.3329,,0,226,226,142,1,143,siyasi,2909,132.1734,2445,0.2673,6,notharmonic,1.8,word,m,,,,,,,
,,,,,,,,,,,baran,001,2023-11-07_16h15.40.131,vowel_harmony,2023.2.3,MacIntel,60.0024001,482.3382,483.3262,,,,,,,,,,,,,,,,,,,,,,,,,,483.3262,484.011,z,1,0.6687,,484.011,484.0111,,0,227,227,266,1,267,düştön,,,,,6,harmonic,1.9,nw,z,,,,,,,
,,,,,,,,,,,baran,001,2023-11-07_16h15.40.131,vowel_harmony,2023.2.3,MacIntel,60.0024001,484.0116,485.0078,,,,,,,,,,,,,,,,,,,,,,,,,,485.0079,485.8413,m,1,0.8175,,485.8413,485.8413,,0,228,228,60,1,61,doğu,2105,95.6429,1823,0.1993,4,harmonic,1.05,word,m,,,,,,,
,,,,,,,,,,,baran,001,2023-11-07_16h15.40.131,vowel_harmony,2023.2.3,MacIntel,60.0024001,485.8416,486.8426,,,,,,,,,,,,,,,,,,,,,,,,,,486.8427,487.7266,m,1,0.8548,,487.7266,487.7268,,0,229,229,135,1,136,hafif,3355,152.4379,3101,0.339,5,notharmonic,1.75,word,m,,,,,,,
,,,,,,,,,,,baran,001,2023-11-07_16h15.40.131,vowel_harmony,2023.2.3,MacIntel,60.0024001,487.727,488.7277,,,,,,,,,,,,,,,,,,,,,,,,,,488.7278,489.3412,m,1,0.5859,,489.3414,489.3414,,0,230,230,123,1,124,haber,4559,207.1429,4151,0.4538,5,notharmonic,1.85,word,m,,,,,,,
,,,,,,,,,,,baran,001,2023-11-07_16h15.40.131,vowel_harmony,2023.2.3,MacIntel,60.0024001,489.3418,490.3442,,,,,,,,,,,,,,,,,,,,,,,,,,490.3442,491.1594,z,1,0.79,,491.1595,491.1596,,0,231,231,333,1,334,heyran,,,,,6,notharmonic,1.85,nw,z,,,,,,,
,,,,,,,,,,,baran,001,2023-11-07_16h15.40.131,vowel_harmony,2023.2.3,MacIntel,60.0024001,491.1598,492.1597,,,,,,,,,,,,,,,,,,,,,,,,,,492.1597,492.8243,z,1,0.6373,,492.8243,492.8244,,0,232,232,190,1,191,reklen,,,,,6,harmonic,1.8,nw,z,,,,,,,
,,,,,,,,,,,baran,001,2023-11-07_16h15.40.131,vowel_harmony,2023.2.3,MacIntel,60.0024001,492.8247,493.8265,,,,,,,,,,,,,,,,,,,,,,,,,,493.8265,494.4477,z,1,0.6065,,494.4477,494.4478,,0,233,233,262,1,263,sauk,,,,,4,harmonic,1.85,nw,z,,,,,,,
,,,,,,,,,,,baran,001,2023-11-07_16h15.40.131,vowel_harmony,2023.2.3,MacIntel,60.0024001,494.4485,495.4401,,,,,,,,,,,,,,,,,,,,,,,,,,495.4401,495.929,z,1,0.4733,,495.9291,495.9291,,0,234,234,342,1,343,kulön,,,,,5,notharmonic,1.9,nw,z,,,,,,,
,,,,,,,,,,,baran,001,2023-11-07_16h15.40.131,vowel_harmony,2023.2.3,MacIntel,60.0024001,495.9294,496.9264,,,,,,,,,,,,,,,,,,,,,,,,,,496.9264,497.4604,z,1,0.5184,,497.4604,497.4605,,0,235,235,331,1,332,ehun,,,,,4,notharmonic,1.95,nw,z,,,,,,,
,,,,,,,,,,,baran,001,2023-11-07_16h15.40.131,vowel_harmony,2023.2.3,MacIntel,60.0024001,497.461,498.4593,,,,,,,,,,,,,,,,,,,,,,,,,,498.4595,498.9927,m,1,0.5022,,498.9928,498.9928,,0,236,236,90,1,91,tarif,2834,128.7657,2611,0.2854,5,notharmonic,1.5,word,m,,,,,,,
,,,,,,,,,,,baran,001,2023-11-07_16h15.40.131,vowel_harmony,2023.2.3,MacIntel,60.0024001,498.9931,499.9912,,,,,,,,,,,,,,,,,,,,,,,,,,499.9912,500.574,z,1,0.5642,,500.574,500.5741,,0,237,237,305,1,306,tamü,,,,,4,notharmonic,1.75,nw,z,,,,,,,
,,,,,,,,,,,baran,001,2023-11-07_16h15.40.131,vowel_harmony,2023.2.3,MacIntel,60.0024001,500.5744,501.5758,,,,,,,,,,,,,,,,,,,,,,,,,,501.5759,502.1127,m,1,0.5199,,502.114,502.1144,,0,238,238,178,1,179,dikkat,6230,283.0665,5888,0.6437,6,notharmonic,2.05,word,m,,,,,,,
,,,,,,,,,,,baran,001,2023-11-07_16h15.40.131,vowel_harmony,2023.2.3,MacIntel,60.0024001,502.1154,503.109,,,,,,,,,,,,,,,,,,,,,,,,,,503.109,503.6594,z,1,0.5259,,503.6595,503.6596,,0,239,239,304,1,305,annö,,,,,4,notharmonic,1.95,nw,z,,,,,,,
,,,,,,,,,,,baran,001,2023-11-07_16h15.40.131,vowel_harmony,2023.2.3,MacIntel,60.0024001,503.6598,504.6599,,,,,,,,,,,,,,,,,,,,,,,,,,504.6599,505.3762,m,1,0.6971,,505.3762,514.5908,space,0,240,240,41,1,42,zengin,2193,99.6412,2015,0.2203,6,harmonic,1.65,word,m,9.1973,,,,,,
,,,,,,,,,,,baran,001,2023-11-07_16h15.40.131,vowel_harmony,2023.2.3,MacIntel,60.0024001,514.6051,515.6072,,,,,,,,,,,,,,,,,,,,,,,,,,515.6073,516.1928,z,1,0.5589,,516.1928,516.1929,,0,241,241,309,1,310,yorgen,,,,,6,notharmonic,1.9,nw,z,,,,,,,
,,,,,,,,,,,baran,001,2023-11-07_16h15.40.131,vowel_harmony,2023.2.3,MacIntel,60.0024001,516.1941,517.1908,,,,,,,,,,,,,,,,,,,,,,,,,,517.1909,517.7268,m,1,0.5017,,517.7268,517.7269,,0,242,242,92,1,93,sahne,1380,62.7017,1238,0.1353,5,notharmonic,1.65,word,m,,,,,,,
,,,,,,,,,,,baran,001,2023-11-07_16h15.40.131,vowel_harmony,2023.2.3,MacIntel,60.0024001,517.7273,518.731,,,,,,,,,,,,,,,,,,,,,,,,,,518.731,519.3445,m,1,0.51,,519.3445,519.3446,,0,243,243,24,1,25,yorgun,1153,52.3877,1108,0.1211,6,harmonic,1.55,word,m,,,,,,,
,,,,,,,,,,,baran,001,2023-11-07_16h15.40.131,vowel_harmony,2023.2.3,MacIntel,60.0024001,519.3454,520.3405,,,,,,,,,,,,,,,,,,,,,,,,,,520.3406,520.8081,m,1,0.4317,,520.8081,520.8081,,0,244,244,122,1,123,devam,17666,802.673,16284,1.7802,5,notharmonic,1.55,word,m,,,,,,,
,,,,,,,,,,,baran,001,2023-11-07_16h15.40.131,vowel_harmony,2023.2.3,MacIntel,60.0024001,520.8086,521.8072,,,,,,,,,,,,,,,,,,,,,,,,,,521.8072,522.3912,z,1,0.5656,,522.3912,522.3912,,0,245,245,189,1,190,düvre,,,,,5,harmonic,1.85,nw,z,,,,,,,
,,,,,,,,,,,baran,001,2023-11-07_16h15.40.131,vowel_harmony,2023.2.3,MacIntel,60.0024001,522.3915,523.3908,,,,,,,,,,,,,,,,,,,,,,,,,,523.3908,523.9074,m,1,0.4925,,523.9074,523.9075,,0,246,246,15,1,16,hayat,7922,359.9443,7314,0.7996,5,harmonic,1.9,word,m,,,,,,,
,,,,,,,,,,,baran,001,2023-11-07_16h15.40.131,vowel_harmony,2023.2.3,MacIntel,60.0024001,523.9078,524.907,,,,,,,,,,,,,,,,,,,,,,,,,,524.9071,525.5908,m,1,0.6658,,525.5909,525.591,,0,247,247,146,1,147,mavi,2206,100.2319,1934,0.2114,4,notharmonic,1.45,word,m,,,,,,,
,,,,,,,,,,,baran,001,2023-11-07_16h15.40.131,vowel_harmony,2023.2.3,MacIntel,60.0024001,525.5913,526.5906,,,,,,,,,,,,,,,,,,,,,,,,,,526.5906,527.2118,z,1,0.6029,,527.2119,527.212,,0,248,248,208,1,209,yayram,,,,,6,harmonic,1.85,nw,z,,,,,,,
,,,,,,,,,,,baran,001,2023-11-07_16h15.40.131,vowel_harmony,2023.2.3,MacIntel,60.0024001,527.2125,528.2537,,,,,,,,,,,,,,,,,,,,,,,,,,528.2537,528.8975,z,1,0.614,,528.8975,528.8976,,0,249,249,273,1,274,nimal,,,,,5,notharmonic,1.9,nw,z,,,,,,,
,,,,,,,,,,,baran,001,2023-11-07_16h15.40.131,vowel_harmony,2023.2.3,MacIntel,60.0024001,528.8985,529.8909,,,,,,,,,,,,,,,,,,,,,,,,,,529.8909,530.5772,z,1,0.6558,,530.5772,530.5775,,0,250,250,255,1,256,yokın,,,,,5,harmonic,1.85,nw,z,,,,,,,
,,,,,,,,,,,baran,001,2023-11-07_16h15.40.131,vowel_harmony,2023.2.3,MacIntel,60.0024001,530.5781,531.577,,,,,,,,,,,,,,,,,,,,,,,,,,531.5771,532.2587,m,1,0.6609,,532.2587,532.2588,,0,251,251,137,1,138,parti,2613,118.7244,2059,0.2251,5,notharmonic,1.8,word,m,,,,,,,
,,,,,,,,,,,baran,001,2023-11-07_16h15.40.131,vowel_harmony,2023.2.3,MacIntel,60.0024001,532.2595,533.2565,,,,,,,,,,,,,,,,,,,,,,,,,,533.2565,533.8564,z,1,0.5732,,533.8564,533.8565,,0,252,252,228,1,229,haytam,,,,,6,harmonic,1.75,nw,z,,,,,,,
,,,,,,,,,,,baran,001,2023-11-07_16h15.40.131,vowel_harmony,2023.2.3,MacIntel,60.0024001,533.8568,534.8594,,,,,,,,,,,,,,,,,,,,,,,,,,534.8594,535.4236,m,1,0.532,,535.4236,535.4237,,0,253,253,0,1,1,sanat,3121,141.8059,2485,0.2717,5,harmonic,1.4,word,m,,,,,,,
,,,,,,,,,,,baran,001,2023-11-07_16h15.40.131,vowel_harmony,2023.2.3,MacIntel,60.0024001,535.4242,536.424,,,,,,,,,,,,,,,,,,,,,,,,,,536.424,536.9252,m,1,0.4833,,536.9252,536.9256,,0,254,254,163,1,164,limon,1658,75.3329,1481,0.1619,5,notharmonic,1.75,word,m,,,,,,,
,,,,,,,,,,,baran,001,2023-11-07_16h15.40.131,vowel_harmony,2023.2.3,MacIntel,60.0024001,536.9264,537.925,,,,,,,,,,,,,,,,,,,,,,,,,,537.925,538.4907,m,1,0.5483,,538.4907,538.4908,,0,255,255,151,1,152,ateş,2108,95.7792,1803,0.1971,4,notharmonic,1.65,word,m,,,,,,,
,,,,,,,,,,,baran,001,2023-11-07_16h15.40.131,vowel_harmony,2023.2.3,MacIntel,60.0024001,538.491,539.4912,,,,,,,,,,,,,,,,,,,,,,,,,,539.4912,540.1089,z,1,0.5985,,540.109,540.109,,0,256,256,197,1,198,ranar,,,,,5,harmonic,1.75,nw,z,,,,,,,
,,,,,,,,,,,baran,001,2023-11-07_16h15.40.131,vowel_harmony,2023.2.3,MacIntel,60.0024001,540.1094,541.1077,,,,,,,,,,,,,,,,,,,,,,,,,,541.1077,541.6257,m,1,0.4976,,541.6257,541.6258,,0,257,257,64,1,65,lise,888,40.3472,816,0.0892,4,harmonic,1.5,word,m,,,,,,,
,,,,,,,,,,,baran,001,2023-11-07_16h15.40.131,vowel_harmony,2023.2.3,MacIntel,60.0024001,541.6261,542.6244,,,,,,,,,,,,,,,,,,,,,,,,,,542.6245,543.1409,m,1,0.4831,,543.1409,543.1411,,0,258,258,108,1,109,tarih,2806,127.4935,2483,0.2714,5,notharmonic,1.55,word,m,,,,,,,
,,,,,,,,,,,baran,001,2023-11-07_16h15.40.131,vowel_harmony,2023.2.3,MacIntel,60.0024001,543.1417,544.1406,,,,,,,,,,,,,,,,,,,,,,,,,,544.1406,544.6406,m,1,0.4819,,544.6407,544.6407,,0,259,259,161,1,162,komik,1617,73.4701,1506,0.1646,5,notharmonic,1.75,word,m,,,,,,,
,,,,,,,,,,,baran,001,2023-11-07_16h15.40.131,vowel_harmony,2023.2.3,MacIntel,60.0024001,544.641,545.6419,,,,,,,,,,,,,,,,,,,,,,,,,,545.642,546.3353,z,1,0.6686,,546.3353,546.3353,,0,260,260,299,1,300,fihal,,,,,5,notharmonic,1.95,nw,z,,,,,,,
,,,,,,,,,,,baran,001,2023-11-07_16h15.40.131,vowel_harmony,2023.2.3,MacIntel,60.0024001,546.3361,547.3239,,,,,,,,,,,,,,,,,,,,,,,,,,547.3239,547.9083,z,1,0.56,,547.9083,547.9088,,0,261,261,187,1,188,remrin,,,,,6,harmonic,1.9,nw,z,,,,,,,
,,,,,,,,,,,baran,001,2023-11-07_16h15.40.131,vowel_harmony,2023.2.3,MacIntel,60.0024001,547.9093,548.9073,,,,,,,,,,,,,,,,,,,,,,,,,,548.9073,549.5577,z,1,0.6349,,549.5578,549.558,,0,262,262,343,1,344,tarne,,,,,5,notharmonic,1.85,nw,z,,,,,,,
,,,,,,,,,,,baran,001,2023-11-07_16h15.40.131,vowel_harmony,2023.2.3,MacIntel,60.0024001,549.5583,550.5579,,,,,,,,,,,,,,,,,,,,,,,,,,550.5579,551.2753,z,1,0.7024,,551.2753,551.2754,,0,263,263,181,1,182,rapkı,,,,,5,harmonic,1.85,nw,z,,,,,,,
,,,,,,,,,,,baran,001,2023-11-07_16h15.40.131,vowel_harmony,2023.2.3,MacIntel,60.0024001,551.2757,552.2729,,,,,,,,,,,,,,,,,,,,,,,,,,552.2729,552.974,z,1,0.6674,,552.974,552.974,,0,264,264,203,1,204,döves,,,,,5,harmonic,1.8,nw,z,,,,,,,
,,,,,,,,,,,baran,001,2023-11-07_16h15.40.131,vowel_harmony,2023.2.3,MacIntel,60.0024001,552.9744,553.9741,,,,,,,,,,,,,,,,,,,,,,,,,,553.9741,554.6094,z,1,0.6112,,554.61,554.6103,,0,265,265,202,1,203,güvin,,,,,5,harmonic,1.95,nw,z,,,,,,,
,,,,,,,,,,,baran,001,2023-11-07_16h15.40.131,vowel_harmony,2023.2.3,MacIntel,60.0024001,554.6109,555.6061,,,,,,,,,,,,,,,,,,,,,,,,,,555.6061,556.2757,z,1,0.6544,,556.2757,556.2758,,0,266,266,259,1,260,hayuk,,,,,5,harmonic,1.95,nw,z,,,,,,,
,,,,,,,,,,,baran,001,2023-11-07_16h15.40.131,vowel_harmony,2023.2.3,MacIntel,60.0024001,556.2767,557.276,,,,,,,,,,,,,,,,,,,,,,,,,,557.276,558.0238,z,1,0.7174,,558.0238,558.024,,0,267,267,224,1,225,ertre,,,,,5,harmonic,1.95,nw,z,,,,,,,
,,,,,,,,,,,baran,001,2023-11-07_16h15.40.131,vowel_harmony,2023.2.3,MacIntel,60.0024001,558.0242,559.0239,,,,,,,,,,,,,,,,,,,,,,,,,,559.0239,559.7592,z,1,0.7201,,559.7592,559.7593,,0,268,268,180,1,181,ayaro,,,,,5,harmonic,1.8,nw,z,,,,,,,
,,,,,,,,,,,baran,001,2023-11-07_16h15.40.131,vowel_harmony,2023.2.3,MacIntel,60.0024001,559.7607,560.7578,,,,,,,,,,,,,,,,,,,,,,,,,,560.7578,561.3409,m,1,0.5635,,561.3409,561.341,,0,269,269,138,1,139,kardeş,1270,57.7038,1174,0.1283,6,notharmonic,1.9,word,m,,,,,,,
,,,,,,,,,,,baran,001,2023-11-07_16h15.40.131,vowel_harmony,2023.2.3,MacIntel,60.0024001,561.3413,562.343,,,,,,,,,,,,,,,,,,,,,,,,,,562.3431,562.8591,m,1,0.4845,,562.8594,562.8596,,0,270,270,83,1,84,küçük,14048,638.2854,12467,1.3629,5,harmonic,1.75,word,m,,,,,,,
,,,,,,,,,,,baran,001,2023-11-07_16h15.40.131,vowel_harmony,2023.2.3,MacIntel,60.0024001,562.8603,563.8582,,,,,,,,,,,,,,,,,,,,,,,,,,563.8582,564.4091,m,1,0.5364,,564.4091,564.4092,,0,271,271,172,1,173,milyar,1496,67.9723,1078,0.1178,6,notharmonic,1.85,word,m,,,,,,,
,,,,,,,,,,,baran,001,2023-11-07_16h15.40.131,vowel_harmony,2023.2.3,MacIntel,60.0024001,564.4095,565.4061,,,,,,,,,,,,,,,,,,,,,,,,,,565.4061,566.0409,z,1,0.6196,,566.0409,566.0411,,0,272,272,325,1,326,garit,,,,,5,notharmonic,1.85,nw,z,,,,,,,
,,,,,,,,,,,baran,001,2023-11-07_16h15.40.131,vowel_harmony,2023.2.3,MacIntel,60.0024001,566.0417,567.0411,,,,,,,,,,,,,,,,,,,,,,,,,,567.0412,567.5738,m,1,0.5045,,567.5738,567.5738,,0,273,273,171,1,172,reklam,1565,71.1074,1244,0.136,6,notharmonic,1.9,word,m,,,,,,,
,,,,,,,,,,,baran,001,2023-11-07_16h15.40.131,vowel_harmony,2023.2.3,MacIntel,60.0024001,567.5742,568.5738,,,,,,,,,,,,,,,,,,,,,,,,,,568.5738,569.1262,m,1,0.5301,,569.1266,569.1269,,0,274,274,56,1,57,sağlam,1818,82.6027,1720,0.188,6,harmonic,1.6,word,m,,,,,,,
,,,,,,,,,,,baran,001,2023-11-07_16h15.40.131,vowel_harmony,2023.2.3,MacIntel,60.0024001,569.1274,570.1245,,,,,,,,,,,,,,,,,,,,,,,,,,570.1246,570.741,m,1,0.5813,,570.7411,570.7414,,0,275,275,136,1,137,beyaz,5517,250.6706,4788,0.5234,5,notharmonic,1.85,word,m,,,,,,,
,,,,,,,,,,,baran,001,2023-11-07_16h15.40.131,vowel_harmony,2023.2.3,MacIntel,60.0024001,570.7418,571.7417,,,,,,,,,,,,,,,,,,,,,,,,,,571.7418,572.2753,m,1,0.5026,,572.2753,572.2755,,0,276,276,4,1,5,metre,1156,52.5241,1015,0.111,5,harmonic,1.7,word,m,,,,,,,
,,,,,,,,,,,baran,001,2023-11-07_16h15.40.131,vowel_harmony,2023.2.3,MacIntel,60.0024001,572.276,573.2743,,,,,,,,,,,,,,,,,,,,,,,,,,573.2743,573.9262,m,1,0.6198,,573.9262,573.9263,,0,277,277,78,1,79,ulusal,1551,70.4713,1355,0.1481,6,harmonic,1.75,word,m,,,,,,,
,,,,,,,,,,,baran,001,2023-11-07_16h15.40.131,vowel_harmony,2023.2.3,MacIntel,60.0024001,573.9267,574.9258,,,,,,,,,,,,,,,,,,,,,,,,,,574.9258,575.4408,m,1,0.5013,,575.4408,575.4413,,0,278,278,159,1,160,vakit,3476,157.9357,3298,0.3605,5,notharmonic,1.65,word,m,,,,,,,
,,,,,,,,,,,baran,001,2023-11-07_16h15.40.131,vowel_harmony,2023.2.3,MacIntel,60.0024001,575.4416,576.4408,,,,,,,,,,,,,,,,,,,,,,,,,,576.4408,577.0254,m,1,0.5611,,577.0255,577.0255,,0,279,279,29,1,30,huzur,1911,86.8283,1799,0.1967,5,harmonic,1.8,word,m,,,,,,,
,,,,,,,,,,,baran,001,2023-11-07_16h15.40.131,vowel_harmony,2023.2.3,MacIntel,60.0024001,577.0258,578.0256,,,,,,,,,,,,,,,,,,,,,,,,,,578.0256,578.7251,z,1,0.6731,,578.7251,578.7252,,0,280,280,182,1,183,orsın,,,,,5,harmonic,1.95,nw,z,,,,,,,
,,,,,,,,,,,baran,001,2023-11-07_16h15.40.131,vowel_harmony,2023.2.3,MacIntel,60.0024001,578.7255,579.7245,,,,,,,,,,,,,,,,,,,,,,,,,,579.7246,580.3079,m,1,0.5592,,580.308,580.308,,0,281,281,67,1,68,bayram,1948,88.5094,1648,0.1802,6,harmonic,1.85,word,m,,,,,,,
,,,,,,,,,,,baran,001,2023-11-07_16h15.40.131,vowel_harmony,2023.2.3,MacIntel,60.0024001,580.3084,581.3057,,,,,,,,,,,,,,,,,,,,,,,,,,581.3057,581.9401,m,1,0.6185,,581.9405,581.9406,,0,282,282,34,1,35,hoca,1893,86.0104,1526,0.1668,4,harmonic,1.45,word,m,,,,,,,
,,,,,,,,,,,baran,001,2023-11-07_16h15.40.131,vowel_harmony,2023.2.3,MacIntel,60.0024001,581.9409,582.9414,,,,,,,,,,,,,,,,,,,,,,,,,,582.9414,583.7408,z,1,0.7737,,583.7409,583.741,,0,283,283,275,1,276,tahçe,,,,,5,notharmonic,1.95,nw,z,,,,,,,
,,,,,,,,,,,baran,001,2023-11-07_16h15.40.131,vowel_harmony,2023.2.3,MacIntel,60.0024001,583.7414,584.7407,,,,,,,,,,,,,,,,,,,,,,,,,,584.7407,585.3226,m,1,0.5502,,585.3227,585.3228,,0,284,284,128,1,129,tatil,2152,97.7783,1865,0.2039,5,notharmonic,1.7,word,m,,,,,,,
,,,,,,,,,,,baran,001,2023-11-07_16h15.40.131,vowel_harmony,2023.2.3,MacIntel,60.0024001,585.3233,586.3231,,,,,,,,,,,,,,,,,,,,,,,,,,586.3231,586.9892,z,1,0.647,,586.9892,586.9893,,0,285,285,351,1,352,seğlık,,,,,6,notharmonic,1.9,nw,z,,,,,,,
,,,,,,,,,,,baran,001,2023-11-07_16h15.40.131,vowel_harmony,2023.2.3,MacIntel,60.0024001,586.9898,587.9896,,,,,,,,,,,,,,,,,,,,,,,,,,587.9896,588.6398,m,1,0.6338,,588.6398,588.6399,,0,286,286,63,1,64,sultan,1756,79.7857,1368,0.1496,6,harmonic,1.55,word,m,,,,,,,
,,,,,,,,,,,baran,001,2023-11-07_16h15.40.131,vowel_harmony,2023.2.3,MacIntel,60.0024001,588.6401,589.6391,,,,,,,,,,,,,,,,,,,,,,,,,,589.6392,590.4344,m,1,0.7787,,590.4345,590.4346,,0,287,287,70,1,71,yarın,3440,156.3,3222,0.3522,5,harmonic,1.85,word,m,,,,,,,
,,,,,,,,,,,baran,001,2023-11-07_16h15.40.131,vowel_harmony,2023.2.3,MacIntel,60.0024001,590.4349,591.4235,,,,,,,,,,,,,,,,,,,,,,,,,,591.4236,592.2401,z,1,0.7993,,592.2401,592.2401,,0,288,288,258,1,259,karıha,,,,,6,harmonic,1.75,nw,z,,,,,,,
,,,,,,,,,,,baran,001,2023-11-07_16h15.40.131,vowel_harmony,2023.2.3,MacIntel,60.0024001,592.2405,593.2408,,,,,,,,,,,,,,,,,,,,,,,,,,593.2409,593.9238,z,1,0.6576,,593.9238,593.9239,,0,289,289,345,1,346,bardeş,,,,,6,notharmonic,1.95,nw,z,,,,,,,
,,,,,,,,,,,baran,001,2023-11-07_16h15.40.131,vowel_harmony,2023.2.3,MacIntel,60.0024001,593.9242,594.9254,,,,,,,,,,,,,,,,,,,,,,,,,,594.9255,595.7412,z,1,0.7921,,595.7413,595.7413,,0,290,290,352,1,353,yılden,,,,,6,notharmonic,1.8,nw,z,,,,,,,
,,,,,,,,,,,baran,001,2023-11-07_16h15.40.131,vowel_harmony,2023.2.3,MacIntel,60.0024001,595.7416,596.7408,,,,,,,,,,,,,,,,,,,,,,,,,,596.7408,597.3408,m,1,0.5703,,597.3411,597.3412,,0,291,291,82,1,83,aday,1028,46.7082,873,0.0954,4,harmonic,1.45,word,m,,,,,,,
,,,,,,,,,,,baran,001,2023-11-07_16h15.40.131,vowel_harmony,2023.2.3,MacIntel,60.0024001,597.342,598.3408,,,,,,,,,,,,,,,,,,,,,,,,,,598.3409,598.9727,z,1,0.6062,,598.9727,598.9727,,0,292,292,251,1,252,oştay,,,,,5,harmonic,1.95,nw,z,,,,,,,
,,,,,,,,,,,baran,001,2023-11-07_16h15.40.131,vowel_harmony,2023.2.3,MacIntel,60.0024001,598.9737,599.9743,,,,,,,,,,,,,,,,,,,,,,,,,,599.9745,600.7093,m,1,0.719,,600.7093,600.7099,,0,293,293,158,1,159,klasik,1871,85.0108,1734,0.1896,6,notharmonic,2,word,m,,,,,,,
,,,,,,,,,,,baran,001,2023-11-07_16h15.40.131,vowel_harmony,2023.2.3,MacIntel,60.0024001,600.7102,601.7077,,,,,,,,,,,,,,,,,,,,,,,,,,601.7077,602.2739,z,1,0.5459,,602.2739,602.2739,,0,294,294,243,1,244,korguf,,,,,6,harmonic,2,nw,z,,,,,,,
,,,,,,,,,,,baran,001,2023-11-07_16h15.40.131,vowel_harmony,2023.2.3,MacIntel,60.0024001,602.2743,603.2744,,,,,,,,,,,,,,,,,,,,,,,,,,603.2744,603.8228,z,1,0.5229,,603.8228,603.8228,,0,295,295,324,1,325,pakeh,,,,,5,notharmonic,1.9,nw,z,,,,,,,
,,,,,,,,,,,baran,001,2023-11-07_16h15.40.131,vowel_harmony,2023.2.3,MacIntel,60.0024001,603.8233,604.8239,,,,,,,,,,,,,,,,,,,,,,,,,,604.8239,605.3554,m,1,0.5039,,605.3555,605.3555,,0,296,296,59,1,60,köpek,1044,47.4352,901,0.0985,5,harmonic,1.75,word,m,,,,,,,
,,,,,,,,,,,baran,001,2023-11-07_16h15.40.131,vowel_harmony,2023.2.3,MacIntel,60.0024001,605.3559,606.3574,,,,,,,,,,,,,,,,,,,,,,,,,,606.3575,606.9738,m,1,0.5979,,606.9738,606.9739,,0,297,297,47,1,48,kaza,740,33.6227,679,0.0742,4,harmonic,1.85,word,m,,,,,,,
,,,,,,,,,,,baran,001,2023-11-07_16h15.40.131,vowel_harmony,2023.2.3,MacIntel,60.0024001,606.9742,607.9722,,,,,,,,,,,,,,,,,,,,,,,,,,607.9722,608.5744,z,1,0.5847,,608.5745,608.5746,,0,298,298,207,1,208,örtre,,,,,5,harmonic,1.85,nw,z,,,,,,,
,,,,,,,,,,,baran,001,2023-11-07_16h15.40.131,vowel_harmony,2023.2.3,MacIntel,60.0024001,608.5749,609.5722,,,,,,,,,,,,,,,,,,,,,,,,,,609.5722,610.6072,m,1,1.0114,,610.6072,610.6072,,0,299,299,103,1,104,tane,5623,255.4868,5075,0.5548,4,notharmonic,1.3,word,m,,,,,,,
,,,,,,,,,,,baran,001,2023-11-07_16h15.40.131,vowel_harmony,2023.2.3,MacIntel,60.0024001,610.6075,611.6058,,,,,,,,,,,,,,,,,,,,,,,,,,611.6058,612.1739,m,1,0.5514,,612.1739,612.174,,0,300,300,33,1,34,moda,1381,62.7472,1231,0.1346,4,harmonic,1.55,word,m,,,,,,,
,,,,,,,,,,,baran,001,2023-11-07_16h15.40.131,vowel_harmony,2023.2.3,MacIntel,60.0024001,612.1742,613.1747,,,,,,,,,,,,,,,,,,,,,,,,,,613.1747,613.7556,z,1,0.5636,,613.7556,613.7558,,0,301,301,215,1,216,aydo,,,,,4,harmonic,1.9,nw,z,,,,,,,
,,,,,,,,,,,baran,001,2023-11-07_16h15.40.131,vowel_harmony,2023.2.3,MacIntel,60.0024001,613.756,614.756,,,,,,,,,,,,,,,,,,,,,,,,,,614.7561,615.3262,z,1,0.5503,,615.3262,615.3263,,0,302,302,354,1,355,taden,,,,,5,notharmonic,1.7,nw,z,,,,,,,
,,,,,,,,,,,baran,001,2023-11-07_16h15.40.131,vowel_harmony,2023.2.3,MacIntel,60.0024001,615.3268,616.3258,,,,,,,,,,,,,,,,,,,,,,,,,,616.3258,616.8906,m,1,0.54,,616.8906,616.8907,,0,303,303,179,1,180,dakika,5891,267.6637,5207,0.5692,6,notharmonic,1.75,word,m,,,,,,,
,,,,,,,,,,,baran,001,2023-11-07_16h15.40.131,vowel_harmony,2023.2.3,MacIntel,60.0024001,616.891,617.8909,,,,,,,,,,,,,,,,,,,,,,,,,,617.8909,618.4721,z,1,0.562,,618.4721,618.4722,,0,304,304,265,1,266,parula,,,,,6,harmonic,1.75,nw,z,,,,,,,
,,,,,,,,,,,baran,001,2023-11-07_16h15.40.131,vowel_harmony,2023.2.3,MacIntel,60.0024001,618.4725,619.4727,,,,,,,,,,,,,,,,,,,,,,,,,,619.4728,620.0142,z,1,0.5157,,620.0144,620.0145,,0,305,305,200,1,201,duşın,,,,,5,harmonic,1.9,nw,z,,,,,,,
,,,,,,,,,,,baran,001,2023-11-07_16h15.40.131,vowel_harmony,2023.2.3,MacIntel,60.0024001,620.0149,620.9911,,,,,,,,,,,,,,,,,,,,,,,,,,620.9911,621.6069,m,1,0.5647,,621.6069,621.6071,,0,306,306,42,1,43,ürün,2268,103.0489,1954,0.2136,4,harmonic,1.1,word,m,,,,,,,
,,,,,,,,,,,baran,001,2023-11-07_16h15.40.131,vowel_harmony,2023.2.3,MacIntel,60.0024001,621.6079,622.606,,,,,,,,,,,,,,,,,,,,,,,,,,622.6061,623.1077,m,1,0.4879,,623.1077,623.1078,,0,307,307,6,1,7,hayal,4498,204.3713,4079,0.4459,5,harmonic,1.45,word,m,,,,,,,
,,,,,,,,,,,baran,001,2023-11-07_16h15.40.131,vowel_harmony,2023.2.3,MacIntel,60.0024001,623.1082,624.1062,,,,,,,,,,,,,,,,,,,,,,,,,,624.1062,624.9061,m,0,0.7802,,624.9061,624.9062,,0,308,308,229,1,230,tonam,,,,,5,harmonic,1.8,nw,z,,,,,,,
,,,,,,,,,,,baran,001,2023-11-07_16h15.40.131,vowel_harmony,2023.2.3,MacIntel,60.0024001,624.9065,625.9067,,,,,,,,,,,,,,,,,,,,,,,,,,625.9068,626.5076,m,1,0.5804,,626.5076,626.5077,,0,309,309,148,1,149,selam,1868,84.8745,1764,0.1928,5,notharmonic,1.35,word,m,,,,,,,
,,,,,,,,,,,baran,001,2023-11-07_16h15.40.131,vowel_harmony,2023.2.3,MacIntel,60.0024001,626.508,627.5024,,,,,,,,,,,,,,,,,,,,,,,,,,627.5024,628.1266,m,1,0.6065,,628.1266,628.1267,,0,310,310,125,1,126,ikna,1276,57.9764,1173,0.1282,4,notharmonic,1.85,word,m,,,,,,,
,,,,,,,,,,,baran,001,2023-11-07_16h15.40.131,vowel_harmony,2023.2.3,MacIntel,60.0024001,628.1274,629.1243,,,,,,,,,,,,,,,,,,,,,,,,,,629.1243,630.1406,z,1,0.9865,,630.1406,630.1407,,0,311,311,287,1,288,haköm,,,,,5,notharmonic,1.9,nw,z,,,,,,,
,,,,,,,,,,,baran,001,2023-11-07_16h15.40.131,vowel_harmony,2023.2.3,MacIntel,60.0024001,630.1411,631.1513,,,,,,,,,,,,,,,,,,,,,,,,,,631.1514,631.7399,m,1,0.5553,,631.7399,631.74,,0,312,312,156,1,157,medya,1784,81.0579,1495,0.1634,5,notharmonic,1.35,word,m,,,,,,,
,,,,,,,,,,,baran,001,2023-11-07_16h15.40.131,vowel_harmony,2023.2.3,MacIntel,60.0024001,631.7403,632.7407,,,,,,,,,,,,,,,,,,,,,,,,,,632.7407,633.4288,m,1,0.6635,,633.4288,633.4289,,0,313,313,95,1,96,takip,4996,226.9984,4651,0.5084,5,notharmonic,1.55,word,m,,,,,,,
,,,,,,,,,,,baran,001,2023-11-07_16h15.40.131,vowel_harmony,2023.2.3,MacIntel,60.0024001,633.4292,634.4223,,,,,,,,,,,,,,,,,,,,,,,,,,634.4223,635.0738,z,1,0.6327,,635.0739,635.0739,,0,314,314,232,1,233,kanur,,,,,5,harmonic,1.7,nw,z,,,,,,,
,,,,,,,,,,,baran,001,2023-11-07_16h15.40.131,vowel_harmony,2023.2.3,MacIntel,60.0024001,635.0742,636.0744,,,,,,,,,,,,,,,,,,,,,,,,,,636.0744,636.8069,z,1,0.703,,636.8069,636.807,,0,315,315,288,1,289,molit,,,,,5,notharmonic,1.95,nw,z,,,,,,,
,,,,,,,,,,,baran,001,2023-11-07_16h15.40.131,vowel_harmony,2023.2.3,MacIntel,60.0024001,636.8075,637.808,,,,,,,,,,,,,,,,,,,,,,,,,,637.808,638.6913,m,1,0.8568,,638.6913,638.6914,,0,316,316,54,1,55,yedek,825,37.4847,732,0.08,5,harmonic,1.65,word,m,,,,,,,
,,,,,,,,,,,baran,001,2023-11-07_16h15.40.131,vowel_harmony,2023.2.3,MacIntel,60.0024001,638.6919,639.6893,,,,,,,,,,,,,,,,,,,,,,,,,,639.6893,640.8576,m,1,1.1415,,640.8577,640.8577,,0,317,317,66,1,67,sanık,768,34.8949,699,0.0764,5,harmonic,1.85,word,m,,,,,,,
,,,,,,,,,,,baran,001,2023-11-07_16h15.40.131,vowel_harmony,2023.2.3,MacIntel,60.0024001,640.8582,641.8578,,,,,,,,,,,,,,,,,,,,,,,,,,641.8578,642.6626,z,1,0.7902,,642.6627,642.6628,,0,318,318,330,1,331,vahçe,,,,,5,notharmonic,1.9,nw,z,,,,,,,
,,,,,,,,,,,baran,001,2023-11-07_16h15.40.131,vowel_harmony,2023.2.3,MacIntel,60.0024001,642.6642,643.6559,,,,,,,,,,,,,,,,,,,,,,,,,,643.6559,644.2273,m,1,0.5504,,644.2273,644.2274,,0,319,319,9,1,10,karar,8108,368.3954,7436,0.8129,5,harmonic,1.6,word,m,,,,,,,
,,,,,,,,,,,baran,001,2023-11-07_16h15.40.131,vowel_harmony,2023.2.3,MacIntel,60.0024001,644.2276,645.2234,,,,,,,,,,,,,,,,,,,,,,,,,,645.2234,645.7896,z,1,0.5472,,645.7897,645.7898,,0,320,320,269,1,270,vekü,,,,,4,harmonic,2,nw,z,,,,,,,
,,,,,,,,,,,baran,001,2023-11-07_16h15.40.131,vowel_harmony,2023.2.3,MacIntel,60.0024001,645.79,646.7898,,,,,,,,,,,,,,,,,,,,,,,,,,646.7898,647.3092,m,1,0.4976,,647.3094,647.3098,,0,321,321,12,1,13,konu,5400,245.3546,5110,0.5586,4,harmonic,1,word,m,,,,,,,
,,,,,,,,,,,baran,001,2023-11-07_16h15.40.131,vowel_harmony,2023.2.3,MacIntel,60.0024001,647.3101,648.3055,,,,,,,,,,,,,,,,,,,,,,,,,,648.3055,648.872,z,1,0.5464,,648.8721,648.8721,,0,322,322,282,1,283,taöz,,,,,4,notharmonic,1.9,nw,z,,,,,,,
,,,,,,,,,,,baran,001,2023-11-07_16h15.40.131,vowel_harmony,2023.2.3,MacIntel,60.0024001,648.8724,649.8737,,,,,,,,,,,,,,,,,,,,,,,,,,649.8737,650.5724,z,1,0.6808,,650.5724,650.5725,,0,323,323,204,1,205,gerkez,,,,,6,harmonic,1.9,nw,z,,,,,,,
,,,,,,,,,,,baran,001,2023-11-07_16h15.40.131,vowel_harmony,2023.2.3,MacIntel,60.0024001,650.5734,651.5734,,,,,,,,,,,,,,,,,,,,,,,,,,651.5734,652.1072,m,1,0.5117,,652.1073,652.1073,,0,324,324,36,1,37,meslek,1082,49.1618,976,0.1067,6,harmonic,1.9,word,m,,,,,,,
,,,,,,,,,,,baran,001,2023-11-07_16h15.40.131,vowel_harmony,2023.2.3,MacIntel,60.0024001,652.1076,653.1072,,,,,,,,,,,,,,,,,,,,,,,,,,653.1072,653.6548,z,1,0.5339,,653.6548,653.6549,,0,325,325,227,1,228,zekö,,,,,4,harmonic,1.9,nw,z,,,,,,,
,,,,,,,,,,,baran,001,2023-11-07_16h15.40.131,vowel_harmony,2023.2.3,MacIntel,60.0024001,653.6561,654.6558,,,,,,,,,,,,,,,,,,,,,,,,,,654.6559,655.2059,z,1,0.5329,,655.2059,655.2062,,0,326,326,196,1,197,bilön,,,,,5,harmonic,1.9,nw,z,,,,,,,
,,,,,,,,,,,baran,001,2023-11-07_16h15.40.131,vowel_harmony,2023.2.3,MacIntel,60.0024001,655.2066,656.2083,,,,,,,,,,,,,,,,,,,,,,,,,,656.2083,656.7894,z,1,0.5527,,656.7894,656.7895,,0,327,327,226,1,227,tefem,,,,,5,harmonic,1.75,nw,z,,,,,,,
,,,,,,,,,,,baran,001,2023-11-07_16h15.40.131,vowel_harmony,2023.2.3,MacIntel,60.0024001,656.7902,657.7884,,,,,,,,,,,,,,,,,,,,,,,,,,657.7884,658.4571,z,1,0.6445,,658.4571,658.4572,,0,328,328,199,1,200,movu,,,,,4,harmonic,1.9,nw,z,,,,,,,
,,,,,,,,,,,baran,001,2023-11-07_16h15.40.131,vowel_harmony,2023.2.3,MacIntel,60.0024001,658.4575,659.4557,,,,,,,,,,,,,,,,,,,,,,,,,,659.4557,660.0065,m,1,0.5336,,660.0065,660.0066,,0,329,329,105,1,106,sahip,10887,494.6621,9847,1.0765,5,notharmonic,1.25,word,m,,,,,,,
,,,,,,,,,,,baran,001,2023-11-07_16h15.40.131,vowel_harmony,2023.2.3,MacIntel,60.0024001,660.0074,661.0058,,,,,,,,,,,,,,,,,,,,,,,,,,661.0059,661.6569,z,1,0.6368,,661.6569,661.6569,,0,330,330,316,1,317,misaf,,,,,5,notharmonic,1.85,nw,z,,,,,,,
,,,,,,,,,,,baran,001,2023-11-07_16h15.40.131,vowel_harmony,2023.2.3,MacIntel,60.0024001,661.6572,662.6562,,,,,,,,,,,,,,,,,,,,,,,,,,662.6562,663.2065,m,1,0.5304,,663.2065,663.2065,,0,331,331,43,1,44,geniş,3380,153.5738,3185,0.3482,5,harmonic,1.35,word,m,,,,,,,
,,,,,,,,,,,baran,001,2023-11-07_16h15.40.131,vowel_harmony,2023.2.3,MacIntel,60.0024001,663.207,664.205,,,,,,,,,,,,,,,,,,,,,,,,,,664.205,664.7894,m,1,0.5636,,664.7894,664.7896,,0,332,332,150,1,151,sabit,1046,47.5261,915,0.1,5,notharmonic,1.75,word,m,,,,,,,
,,,,,,,,,,,baran,001,2023-11-07_16h15.40.131,vowel_harmony,2023.2.3,MacIntel,60.0024001,664.7901,665.7894,,,,,,,,,,,,,,,,,,,,,,,,,,665.7894,666.4813,m,1,0.6779,,666.4813,666.4814,,0,333,333,175,1,176,aile,3655,166.0687,3126,0.3417,4,notharmonic,1,word,m,,,,,,,
,,,,,,,,,,,baran,001,2023-11-07_16h15.40.131,vowel_harmony,2023.2.3,MacIntel,60.0024001,666.4817,667.474,,,,,,,,,,,,,,,,,,,,,,,,,,667.474,668.1383,z,1,0.6471,,668.1384,668.1385,,0,334,334,244,1,245,kaof,,,,,4,harmonic,1.9,nw,z,,,,,,,
,,,,,,,,,,,baran,001,2023-11-07_16h15.40.131,vowel_harmony,2023.2.3,MacIntel,60.0024001,668.1389,669.1267,,,,,,,,,,,,,,,,,,,,,,,,,,669.1267,669.7222,m,1,0.5691,,669.7223,669.7224,,0,335,335,22,1,23,anlam,1730,78.6043,1617,0.1768,5,harmonic,1.25,word,m,,,,,,,
,,,,,,,,,,,baran,001,2023-11-07_16h15.40.131,vowel_harmony,2023.2.3,MacIntel,60.0024001,669.723,670.7219,,,,,,,,,,,,,,,,,,,,,,,,,,670.7219,671.4405,m,1,0.6937,,671.4406,671.4406,,0,336,336,69,1,70,forma,719,32.6685,597,0.0653,5,harmonic,1.8,word,m,,,,,,,
,,,,,,,,,,,baran,001,2023-11-07_16h15.40.131,vowel_harmony,2023.2.3,MacIntel,60.0024001,671.4411,672.4387,,,,,,,,,,,,,,,,,,,,,,,,,,672.4387,673.008,m,1,0.5287,,673.008,673.008,,0,337,337,58,1,59,ayak,2143,97.3694,1931,0.2111,4,harmonic,1,word,m,,,,,,,
,,,,,,,,,,,baran,001,2023-11-07_16h15.40.131,vowel_harmony,2023.2.3,MacIntel,60.0024001,673.0084,674.0059,,,,,,,,,,,,,,,,,,,,,,,,,,674.0059,674.6067,z,1,0.5863,,674.6067,674.6068,,0,338,338,334,1,335,işgan,,,,,5,notharmonic,1.95,nw,z,,,,,,,
,,,,,,,,,,,baran,001,2023-11-07_16h15.40.131,vowel_harmony,2023.2.3,MacIntel,60.0024001,674.6071,675.6055,,,,,,,,,,,,,,,,,,,,,,,,,,675.6055,676.2714,m,1,0.6497,,676.2714,676.2715,,0,339,339,26,1,27,sebze,1094,49.707,961,0.1051,5,harmonic,1.9,word,m,,,,,,,
,,,,,,,,,,,baran,001,2023-11-07_16h15.40.131,vowel_harmony,2023.2.3,MacIntel,60.0024001,676.2717,677.2744,,,,,,,,,,,,,,,,,,,,,,,,,,677.2744,677.8589,m,1,0.559,,677.8592,677.8594,,0,340,340,52,1,53,resim,2506,113.8627,2188,0.2392,5,harmonic,1.4,word,m,,,,,,,
,,,,,,,,,,,baran,001,2023-11-07_16h15.40.131,vowel_harmony,2023.2.3,MacIntel,60.0024001,677.8599,678.8567,,,,,,,,,,,,,,,,,,,,,,,,,,678.8568,679.8225,m,0,0.9472,,679.8225,679.8226,,0,341,341,213,1,214,kaun,,,,,4,harmonic,1.7,nw,z,,,,,,,
,,,,,,,,,,,baran,001,2023-11-07_16h15.40.131,vowel_harmony,2023.2.3,MacIntel,60.0024001,679.8231,680.8239,,,,,,,,,,,,,,,,,,,,,,,,,,680.824,682.3388,m,0,1.4948,,682.3388,682.3389,,0,342,342,358,1,359,yangin,,,,,6,notharmonic,1.9,nw,z,,,,,,,
,,,,,,,,,,,baran,001,2023-11-07_16h15.40.131,vowel_harmony,2023.2.3,MacIntel,60.0024001,682.3392,683.339,,,,,,,,,,,,,,,,,,,,,,,,,,683.339,684.5053,z,1,1.1372,,684.5053,684.5054,,0,343,343,230,1,231,bikir,,,,,5,harmonic,1.75,nw,z,,,,,,,
,,,,,,,,,,,baran,001,2023-11-07_16h15.40.131,vowel_harmony,2023.2.3,MacIntel,60.0024001,684.5057,685.5071,,,,,,,,,,,,,,,,,,,,,,,,,,685.5071,686.3927,m,1,0.8599,,686.3927,686.3943,,0,344,344,79,1,80,durum,6783,308.1926,6431,0.703,5,harmonic,1.7,word,m,,,,,,,
,,,,,,,,,,,baran,001,2023-11-07_16h15.40.131,vowel_harmony,2023.2.3,MacIntel,60.0024001,686.3954,687.3908,,,,,,,,,,,,,,,,,,,,,,,,,,687.3908,688.2238,z,1,0.8099,,688.2239,688.224,,0,345,345,270,1,271,miyaj,,,,,5,notharmonic,1.9,nw,z,,,,,,,
,,,,,,,,,,,baran,001,2023-11-07_16h15.40.131,vowel_harmony,2023.2.3,MacIntel,60.0024001,688.2247,689.2234,,,,,,,,,,,,,,,,,,,,,,,,,,689.2234,689.9056,m,1,0.6555,,689.9056,689.9056,,0,346,346,132,1,133,modern,2326,105.6842,2031,0.222,6,notharmonic,1.85,word,m,,,,,,,
,,,,,,,,,,,baran,001,2023-11-07_16h15.40.131,vowel_harmony,2023.2.3,MacIntel,60.0024001,689.906,690.905,,,,,,,,,,,,,,,,,,,,,,,,,,690.905,691.5738,z,1,0.6485,,691.5739,691.574,,0,347,347,285,1,286,iklon,,,,,5,notharmonic,1.85,nw,z,,,,,,,
,,,,,,,,,,,baran,001,2023-11-07_16h15.40.131,vowel_harmony,2023.2.3,MacIntel,60.0024001,691.5745,692.5717,,,,,,,,,,,,,,,,,,,,,,,,,,692.5717,693.3074,z,1,0.7021,,693.3075,693.3076,,0,348,348,276,1,277,iptap,,,,,5,notharmonic,1.95,nw,z,,,,,,,
,,,,,,,,,,,baran,001,2023-11-07_16h15.40.131,vowel_harmony,2023.2.3,MacIntel,60.0024001,693.3079,694.3063,,,,,,,,,,,,,,,,,,,,,,,,,,694.3063,694.9062,z,1,0.5724,,694.9062,694.9063,,0,349,349,290,1,291,aipa,,,,,4,notharmonic,1.95,nw,z,,,,,,,
,,,,,,,,,,,baran,001,2023-11-07_16h15.40.131,vowel_harmony,2023.2.3,MacIntel,60.0024001,694.9071,695.9056,,,,,,,,,,,,,,,,,,,,,,,,,,695.9057,696.7403,z,1,0.8165,,696.7403,696.7403,,0,350,350,294,1,295,mesap,,,,,5,notharmonic,1.8,nw,z,,,,,,,
,,,,,,,,,,,baran,001,2023-11-07_16h15.40.131,vowel_harmony,2023.2.3,MacIntel,60.0024001,696.7407,697.741,,,,,,,,,,,,,,,,,,,,,,,,,,697.741,698.3265,z,1,0.5562,,698.3266,698.3267,,0,351,351,252,1,253,anlgı,,,,,5,harmonic,1.9,nw,z,,,,,,,
,,,,,,,,,,,baran,001,2023-11-07_16h15.40.131,vowel_harmony,2023.2.3,MacIntel,60.0024001,698.327,699.3233,,,,,,,,,,,,,,,,,,,,,,,,,,699.3233,700.356,m,1,1.0008,,700.3561,700.3561,,0,352,352,166,1,167,maden,402,18.2653,339,0.0371,5,notharmonic,1.45,word,m,,,,,,,
,,,,,,,,,,,baran,001,2023-11-07_16h15.40.131,vowel_harmony,2023.2.3,MacIntel,60.0024001,700.3565,701.3546,,,,,,,,,,,,,,,,,,,,,,,,,,701.3547,701.938,m,1,0.5704,,701.938,701.938,,0,353,353,31,1,32,fazla,18293,831.1614,16694,1.825,5,harmonic,1,word,m,,,,,,,
,,,,,,,,,,,baran,001,2023-11-07_16h15.40.131,vowel_harmony,2023.2.3,MacIntel,60.0024001,701.9386,702.9394,,,,,,,,,,,,,,,,,,,,,,,,,,702.9395,703.7902,z,1,0.8303,,703.7902,703.7906,,0,354,354,332,1,333,tahane,,,,,6,notharmonic,1.85,nw,z,,,,,,,
,,,,,,,,,,,baran,001,2023-11-07_16h15.40.131,vowel_harmony,2023.2.3,MacIntel,60.0024001,703.791,704.791,,,,,,,,,,,,,,,,,,,,,,,,,,704.791,705.4068,m,1,0.5885,,705.4069,705.4072,,0,355,355,57,1,58,bölüm,1910,86.7828,1605,0.1755,5,harmonic,1.45,word,m,,,,,,,
,,,,,,,,,,,baran,001,2023-11-07_16h15.40.131,vowel_harmony,2023.2.3,MacIntel,60.0024001,705.4077,706.406,,,,,,,,,,,,,,,,,,,,,,,,,,706.406,707.1903,m,1,0.7671,,707.1904,707.1905,,0,356,356,173,1,174,sade,1193,54.2052,1114,0.1218,4,notharmonic,1.55,word,m,,,,,,,
,,,,,,,,,,,baran,001,2023-11-07_16h15.40.131,vowel_harmony,2023.2.3,MacIntel,60.0024001,707.1908,708.1882,,,,,,,,,,,,,,,,,,,,,,,,,,708.1882,708.7739,z,1,0.5662,,708.774,708.7741,,0,357,357,185,1,186,örtin,,,,,5,harmonic,1.9,nw,z,,,,,,,
,,,,,,,,,,,baran,001,2023-11-07_16h15.40.131,vowel_harmony,2023.2.3,MacIntel,60.0024001,708.7744,709.7749,,,,,,,,,,,,,,,,,,,,,,,,,,709.7749,710.3379,m,1,0.54,,710.3379,710.338,,0,358,358,155,1,156,ilaç,1366,62.0656,1215,0.1328,4,notharmonic,1.75,word,m,,,,,,,
,,,,,,,,,,,baran,001,2023-11-07_16h15.40.131,vowel_harmony,2023.2.3,MacIntel,60.0024001,710.3382,711.3382,,,,,,,,,,,,,,,,,,,,,,,,,,711.3382,711.9737,m,1,0.6075,,711.9737,711.9738,,0,359,359,38,1,39,dönem,2820,128.1296,2437,0.2664,5,harmonic,1.4,word,m,,,,,,,
,,,,,,,,,,,baran,001,2023-11-07_16h15.40.131,vowel_harmony,2023.2.3,MacIntel,60.0024001,,,,,,,,,,,,,,,,,,,,,,,,,,,,,,,,,,,,,,,,,,,,,,,,,,,,,,,711.9754,713.3907,space,1.3998,