Welcome_screen.started,Welcome_screen.stopped,key_respwelcome.keys,key_respwelcome.rt,key_respwelcome.duration,intro_x.thisRepN,intro_x.thisTrialN,intro_x.thisN,intro_x.thisIndex,intro_x.ran,Introduction,participant,session,date,expName,psychopyVersion,OS,frameRate,Fixation.started,Fixation.stopped,Studypractice.started,Studypractice.stopped,key_respstudy.keys,key_respstudy.corr,key_respstudy.rt,key_respstudy.duration,rt,corr,Feedback.started,Feedback.stopped,practice_loop.thisRepN,practice_loop.thisTrialN,practice_loop.thisN,practice_loop.thisIndex,practice_loop.ran,item_nr_p,target_p,isHarmonic_p,target_cond_p,CorrAns_p,Instraction.started,Instraction.stopped,key_respınstraction.keys,key_respınstraction.rt,key_respınstraction.duration,TestTrial.started,TestTrial.stopped,key_respTest.keys,key_respTest.corr,key_respTest.rt,key_respTest.duration,Pause.started,Pause.stopped,key_resp_xx.keys,test_loop.thisRepN,test_loop.thisTrialN,test_loop.thisN,test_loop.thisIndex,test_loop.ran,item_nr,target,BlogFreq_A1,BlogFreqpm_A1,BlogCD_A1,BlogCDPc_A1,WordLength_A1,isHarmonic_A1,old20,target_cond,CorrAns,key_resp_xx.rt,key_resp_xx.duration,Goodbye_screen.started,Goodbye_screen.stopped,key_respgoodbye.keys,key_respgoodbye.rt,key_respgoodbye.duration
0.0257,2.077,space,2.0325,,0,0,0,0,1,"Deneye hoş geldiniz,

Devam etmek için BOŞLUK tuşuna basınız.",deniz,001,2023-11-07_23h03.36.585,vowel_harmony,2023.2.3,Win32,59.60185958,,,,,,,,,,,,,,,,,,,,,,,,,,,,,,,,,,,,,,,,,,,,,,,,,,,,,,,,,,,
2.0774,16.0646,space,13.9557,,0,1,1,1,1,"Bu çalışma Valencia Üniversitesi kapsamında yürütülmektedir. Deneydeki göreviniz, ekrana çıkacak Türkçe sözcüklerin kelime olup olmadığını belirlemenizdir. Eğer sözcük gerçek bir kelime ise ""m"" tuşuna, değil ise ""z"" tuşuna basınız.   

Devam etmek için BOŞLUK tuşuna basınız.",deniz,001,2023-11-07_23h03.36.585,vowel_harmony,2023.2.3,Win32,59.60185958,,,,,,,,,,,,,,,,,,,,,,,,,,,,,,,,,,,,,,,,,,,,,,,,,,,,,,,,,,,
16.065,23.9127,space,7.8271,,0,2,2,2,1,"Her sözcük için en fazla iki saniyede cevap vermeniz beklenmektedir. Aksi takdirde deney bir sonraki sözcük ile devam eder. 
Bu çalışmada oldukça hızlı ve doğru cevaplama yapmanız beklenmektedir.

Devam etmek için BOŞLUK tuşuna basınız.",deniz,001,2023-11-07_23h03.36.585,vowel_harmony,2023.2.3,Win32,59.60185958,,,,,,,,,,,,,,,,,,,,,,,,,,,,,,,,,,,,,,,,,,,,,,,,,,,,,,,,,,,
23.9131,28.212,space,4.2763,,0,3,3,3,1,"Çalışmaya başlamadan önce ufak bir pratik yer almaktadır.
Kelimedir: ""m""
Kelime değildir: ""z""

Pratik teste başlamak için BOŞLUK tuşuna basınız. ",deniz,001,2023-11-07_23h03.36.585,vowel_harmony,2023.2.3,Win32,59.60185958,,,,,,,,,,,,,,,,,,,,,,,,,,,,,,,,,,,,,,,,,,,,,,,,,,,,,,,,,,,
,,,,,,,,,,,deniz,001,2023-11-07_23h03.36.585,vowel_harmony,2023.2.3,Win32,59.60185958,28.2239,29.2123,29.2124,30.1286,m,1,0.8985,,0.8985,1,30.1289,31.6284,0,0,0,7,1,8,oran,harmonic,word,m,,,,,,,,,,,,,,,,,,,,,,,,,,,,,,,,,,,,,
,,,,,,,,,,,deniz,001,2023-11-07_23h03.36.585,vowel_harmony,2023.2.3,Win32,59.60185958,31.629,32.6282,32.6283,33.3943,z,1,0.7415,,0.7415,1,33.3944,34.8938,0,1,1,11,1,12,geki,harmonic,nw,z,,,,,,,,,,,,,,,,,,,,,,,,,,,,,,,,,,,,,
,,,,,,,,,,,deniz,001,2023-11-07_23h03.36.585,vowel_harmony,2023.2.3,Win32,59.60185958,34.8942,35.8938,35.8939,36.9437,m,1,1.033,,1.033,1,36.9438,38.443,0,2,2,4,1,5,mimar,notharmonic,word,m,,,,,,,,,,,,,,,,,,,,,,,,,,,,,,,,,,,,,
,,,,,,,,,,,deniz,001,2023-11-07_23h03.36.585,vowel_harmony,2023.2.3,Win32,59.60185958,38.4435,39.4429,39.443,40.0927,m,1,0.6285,,0.6285,1,40.0927,41.5929,0,3,3,3,1,4,ihlal,notharmonic,word,m,,,,,,,,,,,,,,,,,,,,,,,,,,,,,,,,,,,,,
,,,,,,,,,,,deniz,001,2023-11-07_23h03.36.585,vowel_harmony,2023.2.3,Win32,59.60185958,41.5934,42.5933,42.5933,43.576,m,1,0.9606,,0.9606,1,43.5761,45.0752,0,4,4,5,1,6,bahçe,notharmonic,word,m,,,,,,,,,,,,,,,,,,,,,,,,,,,,,,,,,,,,,
,,,,,,,,,,,deniz,001,2023-11-07_23h03.36.585,vowel_harmony,2023.2.3,Win32,59.60185958,45.0756,46.0754,46.0755,46.6585,m,1,0.57,,0.57,1,46.6585,48.1578,0,5,5,0,1,1,ihale,notharmonic,word,m,,,,,,,,,,,,,,,,,,,,,,,,,,,,,,,,,,,,,
,,,,,,,,,,,deniz,001,2023-11-07_23h03.36.585,vowel_harmony,2023.2.3,Win32,59.60185958,48.1583,49.1582,49.1582,49.7078,z,1,0.5291,,0.5291,1,49.7079,51.2078,0,6,6,9,1,10,orat,harmonic,nw,z,,,,,,,,,,,,,,,,,,,,,,,,,,,,,,,,,,,,,
,,,,,,,,,,,deniz,001,2023-11-07_23h03.36.585,vowel_harmony,2023.2.3,Win32,59.60185958,51.2082,52.2075,52.2077,52.5406,m,0,0.319,,0.319,0,52.5406,54.0406,0,7,7,13,1,14,pilar,notharmonic,nw,z,,,,,,,,,,,,,,,,,,,,,,,,,,,,,,,,,,,,,
,,,,,,,,,,,deniz,001,2023-11-07_23h03.36.585,vowel_harmony,2023.2.3,Win32,59.60185958,54.041,55.0402,55.0402,55.807,z,1,0.752,,0.752,1,55.807,57.3066,0,8,8,14,1,15,pimer,harmonic,nw,z,,,,,,,,,,,,,,,,,,,,,,,,,,,,,,,,,,,,,
,,,,,,,,,,,deniz,001,2023-11-07_23h03.36.585,vowel_harmony,2023.2.3,Win32,59.60185958,57.3069,58.3064,58.3064,59.0226,z,1,0.6959,,0.6959,1,59.0226,60.5224,0,9,9,15,1,16,mımal,harmonic,nw,z,,,,,,,,,,,,,,,,,,,,,,,,,,,,,,,,,,,,,
,,,,,,,,,,,deniz,001,2023-11-07_23h03.36.585,vowel_harmony,2023.2.3,Win32,59.60185958,60.5229,61.5225,61.5225,62.1223,z,1,0.585,,0.585,1,62.1223,63.6219,0,10,10,12,1,13,ihlot,notharmonic,nw,z,,,,,,,,,,,,,,,,,,,,,,,,,,,,,,,,,,,,,
,,,,,,,,,,,deniz,001,2023-11-07_23h03.36.585,vowel_harmony,2023.2.3,Win32,59.60185958,63.6224,64.6214,64.6214,65.1549,m,0,0.5162,,0.5162,0,65.1549,66.6545,0,11,11,8,1,9,tahip,notharmonic,nw,z,,,,,,,,,,,,,,,,,,,,,,,,,,,,,,,,,,,,,
,,,,,,,,,,,deniz,001,2023-11-07_23h03.36.585,vowel_harmony,2023.2.3,Win32,59.60185958,66.655,67.6545,67.6547,68.4376,z,1,0.7637,,0.7637,1,68.4376,69.9373,0,12,12,10,1,11,mahne,notharmonic,nw,z,,,,,,,,,,,,,,,,,,,,,,,,,,,,,,,,,,,,,
,,,,,,,,,,,deniz,001,2023-11-07_23h03.36.585,vowel_harmony,2023.2.3,Win32,59.60185958,69.9377,70.9373,70.9373,71.5532,m,1,0.6071,,0.6071,1,71.5532,73.0529,0,13,13,1,1,2,veri,harmonic,word,m,,,,,,,,,,,,,,,,,,,,,,,,,,,,,,,,,,,,,
,,,,,,,,,,,deniz,001,2023-11-07_23h03.36.585,vowel_harmony,2023.2.3,Win32,59.60185958,73.0534,74.0529,74.053,74.5532,m,1,0.4831,,0.4831,1,74.5533,76.0527,0,14,14,2,1,3,memur,notharmonic,word,m,,,,,,,,,,,,,,,,,,,,,,,,,,,,,,,,,,,,,
,,,,,,,,,,,deniz,001,2023-11-07_23h03.36.585,vowel_harmony,2023.2.3,Win32,59.60185958,76.0531,77.0527,77.0528,77.5358,m,1,0.4647,,0.4647,1,77.5359,79.0352,0,15,15,6,1,7,pilot,notharmonic,word,m,,,,,,,,,,,,,,,,,,,,,,,,,,,,,,,,,,,,,
,,,,,,,,,,,deniz,001,2023-11-07_23h03.36.585,vowel_harmony,2023.2.3,Win32,59.60185958,,,,,,,,,,,,,,,,,,,,,,,79.0358,96.4327,space,17.3748,,,,,,,,,,,,,,,,,,,,,,,,,,,,,,,,,
,,,,,,,,,,,deniz,001,2023-11-07_23h03.36.585,vowel_harmony,2023.2.3,Win32,59.60185958,96.4835,97.4329,,,,,,,,,,,,,,,,,,,,,,,,,,97.4331,97.8989,m,1,0.4451,,97.8992,97.9004,,0,0,0,93,1,94,siyah,2944,133.7637,2527,0.2763,5,notharmonic,1.6,word,m,,,,,,,
,,,,,,,,,,,deniz,001,2023-11-07_23h03.36.585,vowel_harmony,2023.2.3,Win32,59.60185958,97.9012,98.8979,,,,,,,,,,,,,,,,,,,,,,,,,,98.8979,99.2649,m,1,0.355,,99.2649,99.2651,,0,1,1,164,1,165,sinema,1575,71.5618,1304,0.1426,6,notharmonic,1.8,word,m,,,,,,,
,,,,,,,,,,,deniz,001,2023-11-07_23h03.36.585,vowel_harmony,2023.2.3,Win32,59.60185958,99.2654,100.2644,,,,,,,,,,,,,,,,,,,,,,,,,,100.2644,100.6316,m,1,0.3549,,100.6316,100.6318,,0,2,2,138,1,139,kardeş,1270,57.7038,1174,0.1283,6,notharmonic,1.9,word,m,,,,,,,
,,,,,,,,,,,deniz,001,2023-11-07_23h03.36.585,vowel_harmony,2023.2.3,Win32,59.60185958,100.6321,101.6313,,,,,,,,,,,,,,,,,,,,,,,,,,101.6313,102.1819,z,1,0.5353,,102.1819,102.1824,,0,3,3,356,1,357,mergun,,,,,6,notharmonic,1.95,nw,z,,,,,,,
,,,,,,,,,,,deniz,001,2023-11-07_23h03.36.585,vowel_harmony,2023.2.3,Win32,59.60185958,102.1827,103.181,,,,,,,,,,,,,,,,,,,,,,,,,,103.1811,103.9639,z,1,0.7642,,103.964,103.9642,,0,4,4,309,1,310,yorgen,,,,,6,notharmonic,1.9,nw,z,,,,,,,
,,,,,,,,,,,deniz,001,2023-11-07_23h03.36.585,vowel_harmony,2023.2.3,Win32,59.60185958,103.9645,104.9636,,,,,,,,,,,,,,,,,,,,,,,,,,104.9636,105.7302,z,1,0.7556,,105.7303,105.7305,,0,5,5,242,1,243,kahon,,,,,5,harmonic,1.85,nw,z,,,,,,,
,,,,,,,,,,,deniz,001,2023-11-07_23h03.36.585,vowel_harmony,2023.2.3,Win32,59.60185958,105.7308,106.7306,,,,,,,,,,,,,,,,,,,,,,,,,,106.7306,107.2467,z,1,0.5016,,107.2467,107.2469,,0,6,6,217,1,218,sanfız,,,,,6,harmonic,1.85,nw,z,,,,,,,
,,,,,,,,,,,deniz,001,2023-11-07_23h03.36.585,vowel_harmony,2023.2.3,Win32,59.60185958,107.2477,108.2467,,,,,,,,,,,,,,,,,,,,,,,,,,108.2467,108.7798,z,1,0.5221,,108.7799,108.7801,,0,7,7,257,1,258,zerü,,,,,4,harmonic,1.8,nw,z,,,,,,,
,,,,,,,,,,,deniz,001,2023-11-07_23h03.36.585,vowel_harmony,2023.2.3,Win32,59.60185958,108.7805,109.7793,,,,,,,,,,,,,,,,,,,,,,,,,,109.7794,110.2795,z,1,0.4865,,110.2796,110.2797,,0,8,8,298,1,299,yelsın,,,,,6,notharmonic,1.95,nw,z,,,,,,,
,,,,,,,,,,,deniz,001,2023-11-07_23h03.36.585,vowel_harmony,2023.2.3,Win32,59.60185958,110.28,111.2792,,,,,,,,,,,,,,,,,,,,,,,,,,111.2792,111.879,z,1,0.5835,,111.8791,111.8792,,0,9,9,311,1,312,dedya,,,,,5,notharmonic,1.9,nw,z,,,,,,,
,,,,,,,,,,,deniz,001,2023-11-07_23h03.36.585,vowel_harmony,2023.2.3,Win32,59.60185958,111.8804,112.8788,,,,,,,,,,,,,,,,,,,,,,,,,,112.8789,113.4284,m,1,0.5318,,113.4284,113.4285,,0,10,10,74,1,75,başarı,1398,63.5196,1300,0.1421,6,harmonic,1.2,word,m,,,,,,,
,,,,,,,,,,,deniz,001,2023-11-07_23h03.36.585,vowel_harmony,2023.2.3,Win32,59.60185958,113.4288,114.4284,,,,,,,,,,,,,,,,,,,,,,,,,,114.4285,114.9783,m,1,0.533,,114.9784,114.9786,,0,11,11,33,1,34,moda,1381,62.7472,1231,0.1346,4,harmonic,1.55,word,m,,,,,,,
,,,,,,,,,,,deniz,001,2023-11-07_23h03.36.585,vowel_harmony,2023.2.3,Win32,59.60185958,114.9789,115.9782,,,,,,,,,,,,,,,,,,,,,,,,,,115.9782,116.3781,m,1,0.3806,,116.3782,116.3784,,0,12,12,12,1,13,konu,5400,245.3546,5110,0.5586,4,harmonic,1,word,m,,,,,,,
,,,,,,,,,,,deniz,001,2023-11-07_23h03.36.585,vowel_harmony,2023.2.3,Win32,59.60185958,116.3789,117.3779,,,,,,,,,,,,,,,,,,,,,,,,,,117.3779,118.061,z,1,0.6702,,118.061,118.0611,,0,13,13,307,1,308,merbat,,,,,6,notharmonic,1.95,nw,z,,,,,,,
,,,,,,,,,,,deniz,001,2023-11-07_23h03.36.585,vowel_harmony,2023.2.3,Win32,59.60185958,118.0617,119.0609,,,,,,,,,,,,,,,,,,,,,,,,,,119.0609,119.7611,z,1,0.6715,,119.7611,119.7612,,0,14,14,241,1,242,porlam,,,,,6,harmonic,2,nw,z,,,,,,,
,,,,,,,,,,,deniz,001,2023-11-07_23h03.36.585,vowel_harmony,2023.2.3,Win32,59.60185958,119.7618,120.7605,,,,,,,,,,,,,,,,,,,,,,,,,,120.7605,121.3106,m,1,0.5201,,121.3106,121.3107,,0,15,15,30,1,31,çevre,1662,75.5147,1409,0.154,5,harmonic,1.55,word,m,,,,,,,
,,,,,,,,,,,deniz,001,2023-11-07_23h03.36.585,vowel_harmony,2023.2.3,Win32,59.60185958,121.3113,122.3104,,,,,,,,,,,,,,,,,,,,,,,,,,122.3105,122.9931,z,1,0.6485,,122.9931,122.9932,,0,16,16,314,1,315,seral,,,,,5,notharmonic,1.7,nw,z,,,,,,,
,,,,,,,,,,,deniz,001,2023-11-07_23h03.36.585,vowel_harmony,2023.2.3,Win32,59.60185958,122.9939,123.9817,,,,,,,,,,,,,,,,,,,,,,,,,,123.9817,124.5628,z,1,0.5644,,124.5628,124.5628,,0,17,17,353,1,354,ikno,,,,,4,notharmonic,1.95,nw,z,,,,,,,
,,,,,,,,,,,deniz,001,2023-11-07_23h03.36.585,vowel_harmony,2023.2.3,Win32,59.60185958,124.563,125.5598,,,,,,,,,,,,,,,,,,,,,,,,,,125.5599,126.0764,z,1,0.4837,,126.0764,126.0765,,0,18,18,304,1,305,annö,,,,,4,notharmonic,1.95,nw,z,,,,,,,
,,,,,,,,,,,deniz,001,2023-11-07_23h03.36.585,vowel_harmony,2023.2.3,Win32,59.60185958,126.0771,127.0841,,,,,,,,,,,,,,,,,,,,,,,,,,127.0844,127.685,m,1,0.5845,,127.6851,127.6852,,0,19,19,31,1,32,fazla,18293,831.1614,16694,1.825,5,harmonic,1,word,m,,,,,,,
,,,,,,,,,,,deniz,001,2023-11-07_23h03.36.585,vowel_harmony,2023.2.3,Win32,59.60185958,127.6856,128.6759,,,,,,,,,,,,,,,,,,,,,,,,,,128.676,129.1587,z,0,0.4504,,129.1587,129.159,,0,20,20,52,1,53,resim,2506,113.8627,2188,0.2392,5,harmonic,1.4,word,m,,,,,,,
,,,,,,,,,,,deniz,001,2023-11-07_23h03.36.585,vowel_harmony,2023.2.3,Win32,59.60185958,129.1601,130.1588,,,,,,,,,,,,,,,,,,,,,,,,,,130.159,130.8472,z,1,0.6666,,130.8473,130.8473,,0,21,21,193,1,194,yokın,,,,,5,harmonic,1.85,nw,z,,,,,,,
,,,,,,,,,,,deniz,001,2023-11-07_23h03.36.585,vowel_harmony,2023.2.3,Win32,59.60185958,130.8475,131.8489,,,,,,,,,,,,,,,,,,,,,,,,,,131.8491,132.7158,z,1,0.8515,,132.7159,132.716,,0,22,22,222,1,223,gelü,,,,,4,harmonic,1.75,nw,z,,,,,,,
,,,,,,,,,,,deniz,001,2023-11-07_23h03.36.585,vowel_harmony,2023.2.3,Win32,59.60185958,132.7169,133.7077,,,,,,,,,,,,,,,,,,,,,,,,,,133.7077,134.2915,m,0,0.5499,,134.2915,134.2917,,0,23,23,303,1,304,fisor,,,,,5,notharmonic,1.9,nw,z,,,,,,,
,,,,,,,,,,,deniz,001,2023-11-07_23h03.36.585,vowel_harmony,2023.2.3,Win32,59.60185958,134.2922,135.2909,,,,,,,,,,,,,,,,,,,,,,,,,,135.291,136.0741,z,1,0.75,,136.0742,136.0743,,0,24,24,342,1,343,kulön,,,,,5,notharmonic,1.9,nw,z,,,,,,,
,,,,,,,,,,,deniz,001,2023-11-07_23h03.36.585,vowel_harmony,2023.2.3,Win32,59.60185958,136.0749,137.0654,,,,,,,,,,,,,,,,,,,,,,,,,,137.0655,137.8128,z,1,0.7338,,137.8128,137.8129,,0,25,25,283,1,284,fahe,,,,,4,notharmonic,1.95,nw,z,,,,,,,
,,,,,,,,,,,deniz,001,2023-11-07_23h03.36.585,vowel_harmony,2023.2.3,Win32,59.60185958,137.8132,138.8071,,,,,,,,,,,,,,,,,,,,,,,,,,138.8071,139.4735,m,1,0.6338,,139.4736,139.4736,,0,26,26,45,1,46,bilgi,5981,271.7529,5353,0.5852,5,harmonic,1.5,word,m,,,,,,,
,,,,,,,,,,,deniz,001,2023-11-07_23h03.36.585,vowel_harmony,2023.2.3,Win32,59.60185958,139.4743,140.473,,,,,,,,,,,,,,,,,,,,,,,,,,140.4731,141.0901,m,1,0.5844,,141.0902,141.0905,,0,27,27,54,1,55,yedek,825,37.4847,732,0.08,5,harmonic,1.65,word,m,,,,,,,
,,,,,,,,,,,deniz,001,2023-11-07_23h03.36.585,vowel_harmony,2023.2.3,Win32,59.60185958,141.0914,142.09,,,,,,,,,,,,,,,,,,,,,,,,,,142.0903,142.8898,z,1,0.7658,,142.8898,142.8899,,0,28,28,274,1,275,pisan,,,,,5,notharmonic,1.75,nw,z,,,,,,,
,,,,,,,,,,,deniz,001,2023-11-07_23h03.36.585,vowel_harmony,2023.2.3,Win32,59.60185958,142.8906,143.8896,,,,,,,,,,,,,,,,,,,,,,,,,,143.8896,144.7555,m,1,0.8409,,144.7556,144.7557,,0,29,29,156,1,157,medya,1784,81.0579,1495,0.1634,5,notharmonic,1.35,word,m,,,,,,,
,,,,,,,,,,,deniz,001,2023-11-07_23h03.36.585,vowel_harmony,2023.2.3,Win32,59.60185958,144.7563,145.758,,,,,,,,,,,,,,,,,,,,,,,,,,145.758,146.7112,z,1,0.9342,,146.7112,146.7113,,0,30,30,325,1,326,garit,,,,,5,notharmonic,1.85,nw,z,,,,,,,
,,,,,,,,,,,deniz,001,2023-11-07_23h03.36.585,vowel_harmony,2023.2.3,Win32,59.60185958,146.7115,147.7114,,,,,,,,,,,,,,,,,,,,,,,,,,147.7115,148.8885,m,1,1.1552,,148.8885,148.8886,,0,31,31,85,1,86,geçmiş,4195,190.6042,4039,0.4415,6,harmonic,1.55,word,m,,,,,,,
,,,,,,,,,,,deniz,001,2023-11-07_23h03.36.585,vowel_harmony,2023.2.3,Win32,59.60185958,148.8891,149.8885,,,,,,,,,,,,,,,,,,,,,,,,,,149.8886,150.5379,z,1,0.618,,150.538,150.538,,0,32,32,291,1,292,mepan,,,,,5,notharmonic,1.75,nw,z,,,,,,,
,,,,,,,,,,,deniz,001,2023-11-07_23h03.36.585,vowel_harmony,2023.2.3,Win32,59.60185958,150.5388,151.5376,,,,,,,,,,,,,,,,,,,,,,,,,,151.5376,152.0777,z,1,0.518,,152.0777,152.0777,,0,33,33,250,1,251,kakuk,,,,,5,harmonic,1.9,nw,z,,,,,,,
,,,,,,,,,,,deniz,001,2023-11-07_23h03.36.585,vowel_harmony,2023.2.3,Win32,59.60185958,152.078,153.0711,,,,,,,,,,,,,,,,,,,,,,,,,,153.0711,153.6376,z,1,0.5385,,153.6376,153.6377,,0,34,34,343,1,344,tarne,,,,,5,notharmonic,1.85,nw,z,,,,,,,
,,,,,,,,,,,deniz,001,2023-11-07_23h03.36.585,vowel_harmony,2023.2.3,Win32,59.60185958,153.6389,154.6373,,,,,,,,,,,,,,,,,,,,,,,,,,154.6373,155.1761,z,1,0.5172,,155.1761,155.1763,,0,35,35,306,1,307,otet,,,,,4,notharmonic,1.95,nw,z,,,,,,,
,,,,,,,,,,,deniz,001,2023-11-07_23h03.36.585,vowel_harmony,2023.2.3,Win32,59.60185958,155.1766,156.1702,,,,,,,,,,,,,,,,,,,,,,,,,,156.1703,156.7935,m,1,0.6009,,156.7935,156.7935,,0,36,36,144,1,145,garip,2567,116.6343,2355,0.2574,5,notharmonic,1.65,word,m,,,,,,,
,,,,,,,,,,,deniz,001,2023-11-07_23h03.36.585,vowel_harmony,2023.2.3,Win32,59.60185958,156.794,157.7921,,,,,,,,,,,,,,,,,,,,,,,,,,157.7921,158.3198,m,1,0.5053,,158.3198,158.3199,,0,37,37,172,1,173,milyar,1496,67.9723,1078,0.1178,6,notharmonic,1.85,word,m,,,,,,,
,,,,,,,,,,,deniz,001,2023-11-07_23h03.36.585,vowel_harmony,2023.2.3,Win32,59.60185958,158.3205,159.3194,,,,,,,,,,,,,,,,,,,,,,,,,,159.3194,159.7198,m,1,0.3743,,159.7199,159.72,,0,38,38,91,1,92,ifade,6177,280.6584,5726,0.626,5,notharmonic,1.7,word,m,,,,,,,
,,,,,,,,,,,deniz,001,2023-11-07_23h03.36.585,vowel_harmony,2023.2.3,Win32,59.60185958,159.7205,160.7191,,,,,,,,,,,,,,,,,,,,,,,,,,160.7191,161.3859,z,1,0.6337,,161.386,161.386,,0,39,39,234,1,235,düzöt,,,,,5,harmonic,2.05,nw,z,,,,,,,
,,,,,,,,,,,deniz,001,2023-11-07_23h03.36.585,vowel_harmony,2023.2.3,Win32,59.60185958,161.3866,162.375,,,,,,,,,,,,,,,,,,,,,,,,,,162.3752,162.8525,m,1,0.4501,,162.8527,162.8527,,0,40,40,107,1,108,merak,5806,263.8016,5524,0.6039,5,notharmonic,1.65,word,m,,,,,,,
,,,,,,,,,,,deniz,001,2023-11-07_23h03.36.585,vowel_harmony,2023.2.3,Win32,59.60185958,162.8533,163.8524,,,,,,,,,,,,,,,,,,,,,,,,,,163.8524,164.3019,m,1,0.4207,,164.302,164.302,,0,41,41,121,1,122,mesaj,1604,72.8794,1386,0.1515,5,notharmonic,1.8,word,m,,,,,,,
,,,,,,,,,,,deniz,001,2023-11-07_23h03.36.585,vowel_harmony,2023.2.3,Win32,59.60185958,164.3027,165.302,,,,,,,,,,,,,,,,,,,,,,,,,,165.302,165.8909,z,0,0.5672,,165.8909,165.8909,,0,42,42,118,1,119,meşhur,1092,49.6161,1057,0.1156,6,notharmonic,1.9,word,m,,,,,,,
,,,,,,,,,,,deniz,001,2023-11-07_23h03.36.585,vowel_harmony,2023.2.3,Win32,59.60185958,165.8912,166.8884,,,,,,,,,,,,,,,,,,,,,,,,,,166.8884,167.485,m,1,0.5663,,167.4853,167.4855,,0,43,43,95,1,96,takip,4996,226.9984,4651,0.5084,5,notharmonic,1.55,word,m,,,,,,,
,,,,,,,,,,,deniz,001,2023-11-07_23h03.36.585,vowel_harmony,2023.2.3,Win32,59.60185958,167.4864,168.4845,,,,,,,,,,,,,,,,,,,,,,,,,,168.4845,169.1512,z,1,0.6337,,169.1513,169.1513,,0,44,44,223,1,224,kakon,,,,,5,harmonic,1.85,nw,z,,,,,,,
,,,,,,,,,,,deniz,001,2023-11-07_23h03.36.585,vowel_harmony,2023.2.3,Win32,59.60185958,169.1519,170.151,,,,,,,,,,,,,,,,,,,,,,,,,,170.151,170.9339,z,1,0.7572,,170.9339,170.9339,,0,45,45,345,1,346,bardeş,,,,,6,notharmonic,1.95,nw,z,,,,,,,
,,,,,,,,,,,deniz,001,2023-11-07_23h03.36.585,vowel_harmony,2023.2.3,Win32,59.60185958,170.9346,171.9236,,,,,,,,,,,,,,,,,,,,,,,,,,171.9236,172.6905,m,1,0.7501,,172.6907,172.6907,,0,46,46,82,1,83,aday,1028,46.7082,873,0.0954,4,harmonic,1.45,word,m,,,,,,,
,,,,,,,,,,,deniz,001,2023-11-07_23h03.36.585,vowel_harmony,2023.2.3,Win32,59.60185958,172.6909,173.6835,,,,,,,,,,,,,,,,,,,,,,,,,,173.6836,174.5221,z,1,0.8164,,174.5221,174.5221,,0,47,47,213,1,214,kaun,,,,,4,harmonic,1.7,nw,z,,,,,,,
,,,,,,,,,,,deniz,001,2023-11-07_23h03.36.585,vowel_harmony,2023.2.3,Win32,59.60185958,174.5223,175.5167,,,,,,,,,,,,,,,,,,,,,,,,,,175.5167,176.1663,m,1,0.6238,,176.1664,176.1664,,0,48,48,157,1,158,aktif,1062,48.2531,986,0.1078,5,notharmonic,1.9,word,m,,,,,,,
,,,,,,,,,,,deniz,001,2023-11-07_23h03.36.585,vowel_harmony,2023.2.3,Win32,59.60185958,176.167,177.1725,,,,,,,,,,,,,,,,,,,,,,,,,,177.1725,177.7232,m,1,0.5338,,177.7232,177.7233,,0,49,49,109,1,110,milyon,3936,178.8362,2958,0.3234,6,notharmonic,1.75,word,m,,,,,,,
,,,,,,,,,,,deniz,001,2023-11-07_23h03.36.585,vowel_harmony,2023.2.3,Win32,59.60185958,177.7235,178.716,,,,,,,,,,,,,,,,,,,,,,,,,,178.7161,179.3159,m,1,0.572,,179.3159,179.3159,,0,50,50,96,1,97,dahil,3189,144.8955,3060,0.3345,5,notharmonic,1.7,word,m,,,,,,,
,,,,,,,,,,,deniz,001,2023-11-07_23h03.36.585,vowel_harmony,2023.2.3,Win32,59.60185958,179.3165,180.3158,,,,,,,,,,,,,,,,,,,,,,,,,,180.3159,182.0046,z,1,1.667,,182.0048,182.0048,,0,51,51,335,1,336,lilo,,,,,4,notharmonic,1.8,nw,z,,,,,,,
,,,,,,,,,,,deniz,001,2023-11-07_23h03.36.585,vowel_harmony,2023.2.3,Win32,59.60185958,182.0051,182.9985,,,,,,,,,,,,,,,,,,,,,,,,,,182.9986,183.8033,z,1,0.7834,,183.8034,183.8034,,0,52,52,288,1,289,molit,,,,,5,notharmonic,1.95,nw,z,,,,,,,
,,,,,,,,,,,deniz,001,2023-11-07_23h03.36.585,vowel_harmony,2023.2.3,Win32,59.60185958,183.8036,184.7981,,,,,,,,,,,,,,,,,,,,,,,,,,184.7982,185.5976,m,1,0.7696,,185.5976,185.5978,,0,53,53,120,1,121,ihmal,1002,45.5269,977,0.1068,5,notharmonic,1.65,word,m,,,,,,,
,,,,,,,,,,,deniz,001,2023-11-07_23h03.36.585,vowel_harmony,2023.2.3,Win32,59.60185958,185.5989,186.5979,,,,,,,,,,,,,,,,,,,,,,,,,,186.5979,187.1028,m,1,0.4831,,187.1028,187.1028,,0,54,54,163,1,164,limon,1658,75.3329,1481,0.1619,5,notharmonic,1.75,word,m,,,,,,,
,,,,,,,,,,,deniz,001,2023-11-07_23h03.36.585,vowel_harmony,2023.2.3,Win32,59.60185958,187.1031,188.1022,,,,,,,,,,,,,,,,,,,,,,,,,,188.1022,189.1138,z,1,0.9862,,189.1138,189.1138,,0,55,55,206,1,207,bevek,,,,,5,harmonic,1.75,nw,z,,,,,,,
,,,,,,,,,,,deniz,001,2023-11-07_23h03.36.585,vowel_harmony,2023.2.3,Win32,59.60185958,189.1146,190.1136,,,,,,,,,,,,,,,,,,,,,,,,,,190.1137,190.7968,m,1,0.6498,,190.7968,190.797,,0,56,56,88,1,89,yalnız,5891,267.6637,5440,0.5947,6,harmonic,1.6,word,m,,,,,,,
,,,,,,,,,,,deniz,001,2023-11-07_23h03.36.585,vowel_harmony,2023.2.3,Win32,59.60185958,190.7975,191.8041,,,,,,,,,,,,,,,,,,,,,,,,,,191.8042,192.8183,m,1,1.0001,,192.8184,192.8185,,0,57,57,122,1,123,devam,17666,802.673,16284,1.7802,5,notharmonic,1.55,word,m,,,,,,,
,,,,,,,,,,,deniz,001,2023-11-07_23h03.36.585,vowel_harmony,2023.2.3,Win32,59.60185958,192.8187,193.813,,,,,,,,,,,,,,,,,,,,,,,,,,193.8131,194.8793,m,1,1.0373,,194.8793,194.8794,,0,58,58,59,1,60,köpek,1044,47.4352,901,0.0985,5,harmonic,1.75,word,m,,,,,,,
,,,,,,,,,,,deniz,001,2023-11-07_23h03.36.585,vowel_harmony,2023.2.3,Win32,59.60185958,194.8879,195.8794,,,,,,,,,,,,,,,,,,,,,,,,,,195.8796,196.2623,m,1,0.3576,,196.2624,196.2624,,0,59,59,15,1,16,hayat,7922,359.9443,7314,0.7996,5,harmonic,1.9,word,m,,,,,,,
,,,,,,,,,,,deniz,001,2023-11-07_23h03.36.585,vowel_harmony,2023.2.3,Win32,59.60185958,196.263,197.268,,,,,,,,,,,,,,,,,,,,,,,,,,197.2681,197.7293,m,1,0.4398,,197.7296,197.7302,,0,60,60,64,1,65,lise,888,40.3472,816,0.0892,4,harmonic,1.5,word,m,,,,,,,
,,,,,,,,,,,deniz,001,2023-11-07_23h03.36.585,vowel_harmony,2023.2.3,Win32,59.60185958,197.7306,198.7288,,,,,,,,,,,,,,,,,,,,,,,,,,198.7289,199.1949,m,1,0.4444,,199.195,199.195,,0,61,61,97,1,98,mevcut,3007,136.6262,2842,0.3107,6,notharmonic,1.95,word,m,,,,,,,
,,,,,,,,,,,deniz,001,2023-11-07_23h03.36.585,vowel_harmony,2023.2.3,Win32,59.60185958,199.1955,200.1947,,,,,,,,,,,,,,,,,,,,,,,,,,200.1948,200.5951,m,1,0.3757,,200.5951,200.5953,,0,62,62,148,1,149,selam,1868,84.8745,1764,0.1928,5,notharmonic,1.35,word,m,,,,,,,
,,,,,,,,,,,deniz,001,2023-11-07_23h03.36.585,vowel_harmony,2023.2.3,Win32,59.60185958,200.5959,201.5946,,,,,,,,,,,,,,,,,,,,,,,,,,201.5947,202.185,m,1,0.5684,,202.185,202.185,,0,63,63,23,1,24,kurum,986,44.7999,882,0.0964,5,harmonic,1.75,word,m,,,,,,,
,,,,,,,,,,,deniz,001,2023-11-07_23h03.36.585,vowel_harmony,2023.2.3,Win32,59.60185958,202.1853,203.1777,,,,,,,,,,,,,,,,,,,,,,,,,,203.1777,203.5166,m,0,0.3173,,203.5166,203.5167,,0,64,64,278,1,279,sekon,,,,,5,notharmonic,1.85,nw,z,,,,,,,
,,,,,,,,,,,deniz,001,2023-11-07_23h03.36.585,vowel_harmony,2023.2.3,Win32,59.60185958,203.5169,204.5105,,,,,,,,,,,,,,,,,,,,,,,,,,204.5105,206.3607,z,1,1.8248,,206.3607,206.3609,,0,65,65,262,1,263,sauk,,,,,4,harmonic,1.85,nw,z,,,,,,,
,,,,,,,,,,,deniz,001,2023-11-07_23h03.36.585,vowel_harmony,2023.2.3,Win32,59.60185958,206.3618,207.3678,,,,,,,,,,,,,,,,,,,,,,,,,,207.3679,207.8936,z,1,0.4988,,207.8936,207.8936,,0,66,66,273,1,274,nimal,,,,,5,notharmonic,1.9,nw,z,,,,,,,
,,,,,,,,,,,deniz,001,2023-11-07_23h03.36.585,vowel_harmony,2023.2.3,Win32,59.60185958,207.8942,208.893,,,,,,,,,,,,,,,,,,,,,,,,,,208.8931,209.7928,m,1,0.8675,,209.7929,209.7929,,0,67,67,113,1,114,model,1200,54.5232,1082,0.1183,5,notharmonic,1.75,word,m,,,,,,,
,,,,,,,,,,,deniz,001,2023-11-07_23h03.36.585,vowel_harmony,2023.2.3,Win32,59.60185958,209.7935,210.7931,,,,,,,,,,,,,,,,,,,,,,,,,,210.7931,211.4314,m,1,0.6164,,211.4315,211.4316,,0,68,68,3,1,4,minik,2916,132.4915,2594,0.2836,5,harmonic,1.6,word,m,,,,,,,
,,,,,,,,,,,deniz,001,2023-11-07_23h03.36.585,vowel_harmony,2023.2.3,Win32,59.60185958,211.4318,212.4275,,,,,,,,,,,,,,,,,,,,,,,,,,212.4277,212.9761,m,1,0.5164,,212.9761,212.9761,,0,69,69,68,1,69,ücret,734,33.35,634,0.0693,5,harmonic,1.85,word,m,,,,,,,
,,,,,,,,,,,deniz,001,2023-11-07_23h03.36.585,vowel_harmony,2023.2.3,Win32,59.60185958,212.9768,213.9754,,,,,,,,,,,,,,,,,,,,,,,,,,213.9754,214.8422,z,1,0.8339,,214.8422,214.8422,,0,70,70,237,1,238,taşal,,,,,5,harmonic,1.8,nw,z,,,,,,,
,,,,,,,,,,,deniz,001,2023-11-07_23h03.36.585,vowel_harmony,2023.2.3,Win32,59.60185958,214.843,215.8422,,,,,,,,,,,,,,,,,,,,,,,,,,215.8422,216.5253,z,1,0.6568,,216.5253,216.5254,,0,71,71,180,1,181,ayaro,,,,,5,harmonic,1.8,nw,z,,,,,,,
,,,,,,,,,,,deniz,001,2023-11-07_23h03.36.585,vowel_harmony,2023.2.3,Win32,59.60185958,216.526,217.5175,,,,,,,,,,,,,,,,,,,,,,,,,,217.5176,218.1414,z,1,0.6061,,218.1415,218.1415,,0,72,72,219,1,220,barlum,,,,,6,harmonic,1.9,nw,z,,,,,,,
,,,,,,,,,,,deniz,001,2023-11-07_23h03.36.585,vowel_harmony,2023.2.3,Win32,59.60185958,218.1421,219.1415,,,,,,,,,,,,,,,,,,,,,,,,,,219.1415,219.8243,z,1,0.6558,,219.8243,219.8243,,0,73,73,195,1,196,netüm,,,,,5,harmonic,1.95,nw,z,,,,,,,
,,,,,,,,,,,deniz,001,2023-11-07_23h03.36.585,vowel_harmony,2023.2.3,Win32,59.60185958,219.8249,220.8243,,,,,,,,,,,,,,,,,,,,,,,,,,220.8243,221.441,m,1,0.5834,,221.441,221.4411,,0,74,74,86,1,87,gerçek,8983,408.1519,8058,0.8809,6,harmonic,1.7,word,m,,,,,,,
,,,,,,,,,,,deniz,001,2023-11-07_23h03.36.585,vowel_harmony,2023.2.3,Win32,59.60185958,221.4422,222.4466,,,,,,,,,,,,,,,,,,,,,,,,,,222.4466,223.0625,z,1,0.5952,,223.0625,223.0625,,0,75,75,264,1,265,vepü,,,,,4,harmonic,2,nw,z,,,,,,,
,,,,,,,,,,,deniz,001,2023-11-07_23h03.36.585,vowel_harmony,2023.2.3,Win32,59.60185958,223.0627,224.0621,,,,,,,,,,,,,,,,,,,,,,,,,,224.0622,224.7736,z,1,0.6864,,224.7736,224.7737,,0,76,76,224,1,225,ertre,,,,,5,harmonic,1.95,nw,z,,,,,,,
,,,,,,,,,,,deniz,001,2023-11-07_23h03.36.585,vowel_harmony,2023.2.3,Win32,59.60185958,224.7744,225.7731,,,,,,,,,,,,,,,,,,,,,,,,,,225.7732,226.6565,z,1,0.8555,,226.6565,226.6566,,0,77,77,276,1,277,iptap,,,,,5,notharmonic,1.95,nw,z,,,,,,,
,,,,,,,,,,,deniz,001,2023-11-07_23h03.36.585,vowel_harmony,2023.2.3,Win32,59.60185958,226.6572,227.6469,,,,,,,,,,,,,,,,,,,,,,,,,,227.647,228.3247,m,1,0.6568,,228.3247,228.3247,,0,78,78,142,1,143,siyasi,2909,132.1734,2445,0.2673,6,notharmonic,1.8,word,m,,,,,,,
,,,,,,,,,,,deniz,001,2023-11-07_23h03.36.585,vowel_harmony,2023.2.3,Win32,59.60185958,228.325,229.3229,,,,,,,,,,,,,,,,,,,,,,,,,,229.3229,231.1773,z,1,1.8325,,231.1774,231.1774,,0,79,79,331,1,332,ehun,,,,,4,notharmonic,1.95,nw,z,,,,,,,
,,,,,,,,,,,deniz,001,2023-11-07_23h03.36.585,vowel_harmony,2023.2.3,Win32,59.60185958,231.1848,232.1952,,,,,,,,,,,,,,,,,,,,,,,,,,232.1952,232.9219,m,1,0.6954,,232.922,232.922,,0,80,80,34,1,35,hoca,1893,86.0104,1526,0.1668,4,harmonic,1.45,word,m,,,,,,,
,,,,,,,,,,,deniz,001,2023-11-07_23h03.36.585,vowel_harmony,2023.2.3,Win32,59.60185958,232.9226,233.9272,,,,,,,,,,,,,,,,,,,,,,,,,,233.9272,234.6385,z,1,0.6839,,234.6385,234.6387,,0,81,81,198,1,199,yarbız,,,,,6,harmonic,1.95,nw,z,,,,,,,
,,,,,,,,,,,deniz,001,2023-11-07_23h03.36.585,vowel_harmony,2023.2.3,Win32,59.60185958,234.64,235.6383,,,,,,,,,,,,,,,,,,,,,,,,,,235.6384,236.2599,m,1,0.6001,,236.26,236.2601,,0,82,82,176,1,177,harika,4682,212.7315,4422,0.4834,6,notharmonic,1.9,word,m,,,,,,,
,,,,,,,,,,,deniz,001,2023-11-07_23h03.36.585,vowel_harmony,2023.2.3,Win32,59.60185958,236.2603,237.2545,,,,,,,,,,,,,,,,,,,,,,,,,,237.2545,237.8374,z,1,0.5528,,237.8374,237.8375,,0,83,83,282,1,283,taöz,,,,,4,notharmonic,1.9,nw,z,,,,,,,
,,,,,,,,,,,deniz,001,2023-11-07_23h03.36.585,vowel_harmony,2023.2.3,Win32,59.60185958,237.8381,238.8261,,,,,,,,,,,,,,,,,,,,,,,,,,238.8261,239.5262,m,1,0.6835,,239.5262,239.5263,,0,84,84,127,1,128,şahane,1153,52.3877,1108,0.1211,6,notharmonic,1.8,word,m,,,,,,,
,,,,,,,,,,,deniz,001,2023-11-07_23h03.36.585,vowel_harmony,2023.2.3,Win32,59.60185958,239.5265,240.5201,,,,,,,,,,,,,,,,,,,,,,,,,,240.5202,241.137,z,1,0.5932,,241.1371,241.1371,,0,85,85,246,1,247,orkın,,,,,5,harmonic,1.9,nw,z,,,,,,,
,,,,,,,,,,,deniz,001,2023-11-07_23h03.36.585,vowel_harmony,2023.2.3,Win32,59.60185958,241.1377,242.1438,,,,,,,,,,,,,,,,,,,,,,,,,,242.1439,243.1536,z,1,0.9938,,243.1537,243.1539,,0,86,86,267,1,268,nokuma,,,,,6,harmonic,1.75,nw,z,,,,,,,
,,,,,,,,,,,deniz,001,2023-11-07_23h03.36.585,vowel_harmony,2023.2.3,Win32,59.60185958,243.1548,244.153,,,,,,,,,,,,,,,,,,,,,,,,,,244.153,244.8531,z,1,0.667,,244.8531,244.8531,,0,87,87,216,1,217,çeyret,,,,,6,harmonic,1.9,nw,z,,,,,,,
,,,,,,,,,,,deniz,001,2023-11-07_23h03.36.585,vowel_harmony,2023.2.3,Win32,59.60185958,244.8539,245.8528,,,,,,,,,,,,,,,,,,,,,,,,,,245.8529,246.4583,m,1,0.5836,,246.4583,246.4584,,0,88,88,42,1,43,ürün,2268,103.0489,1954,0.2136,4,harmonic,1.1,word,m,,,,,,,
,,,,,,,,,,,deniz,001,2023-11-07_23h03.36.585,vowel_harmony,2023.2.3,Win32,59.60185958,246.4586,247.4556,,,,,,,,,,,,,,,,,,,,,,,,,,247.4556,248.1406,z,1,0.6666,,248.1406,248.1407,,0,89,89,248,1,249,şegim,,,,,5,harmonic,1.9,nw,z,,,,,,,
,,,,,,,,,,,deniz,001,2023-11-07_23h03.36.585,vowel_harmony,2023.2.3,Win32,59.60185958,248.141,249.1357,,,,,,,,,,,,,,,,,,,,,,,,,,249.1357,249.8907,z,1,0.7334,,249.8907,249.8907,,0,90,90,330,1,331,vahçe,,,,,5,notharmonic,1.9,nw,z,,,,,,,
,,,,,,,,,,,deniz,001,2023-11-07_23h03.36.585,vowel_harmony,2023.2.3,Win32,59.60185958,249.891,250.8848,,,,,,,,,,,,,,,,,,,,,,,,,,250.8849,251.6019,z,1,0.6846,,251.6019,251.602,,0,91,91,305,1,306,tamü,,,,,4,notharmonic,1.75,nw,z,,,,,,,
,,,,,,,,,,,deniz,001,2023-11-07_23h03.36.585,vowel_harmony,2023.2.3,Win32,59.60185958,251.6028,252.5926,,,,,,,,,,,,,,,,,,,,,,,,,,252.5928,253.1348,z,1,0.518,,253.1348,253.1349,,0,92,92,348,1,349,aife,,,,,4,notharmonic,1.75,nw,z,,,,,,,
,,,,,,,,,,,deniz,001,2023-11-07_23h03.36.585,vowel_harmony,2023.2.3,Win32,59.60185958,253.1355,254.1344,,,,,,,,,,,,,,,,,,,,,,,,,,254.1345,254.4175,z,0,0.2607,,254.4175,254.4176,,0,93,93,2,1,3,radyo,763,34.6677,636,0.0695,5,harmonic,1.85,word,m,,,,,,,
,,,,,,,,,,,deniz,001,2023-11-07_23h03.36.585,vowel_harmony,2023.2.3,Win32,59.60185958,254.4183,255.4177,,,,,,,,,,,,,,,,,,,,,,,,,,255.4177,256.5337,m,1,1.0934,,256.5337,256.5338,,0,94,94,66,1,67,sanık,768,34.8949,699,0.0764,5,harmonic,1.85,word,m,,,,,,,
,,,,,,,,,,,deniz,001,2023-11-07_23h03.36.585,vowel_harmony,2023.2.3,Win32,59.60185958,256.5344,257.5336,,,,,,,,,,,,,,,,,,,,,,,,,,257.5338,258.1507,m,1,0.5829,,258.1507,258.1509,,0,95,95,106,1,107,esnaf,315,14.3124,284,0.031,5,notharmonic,1.55,word,m,,,,,,,
,,,,,,,,,,,deniz,001,2023-11-07_23h03.36.585,vowel_harmony,2023.2.3,Win32,59.60185958,258.1516,259.1501,,,,,,,,,,,,,,,,,,,,,,,,,,259.1502,260.9385,m,1,1.7666,,260.9385,260.9386,,0,96,96,130,1,131,hamile,1075,48.8437,877,0.0959,6,notharmonic,1.5,word,m,,,,,,,
,,,,,,,,,,,deniz,001,2023-11-07_23h03.36.585,vowel_harmony,2023.2.3,Win32,59.60185958,260.9388,261.9394,,,,,,,,,,,,,,,,,,,,,,,,,,261.9394,262.6569,z,1,0.7006,,262.6569,262.657,,0,97,97,184,1,185,yapor,,,,,5,harmonic,1.9,nw,z,,,,,,,
,,,,,,,,,,,deniz,001,2023-11-07_23h03.36.585,vowel_harmony,2023.2.3,Win32,59.60185958,262.6578,263.6494,,,,,,,,,,,,,,,,,,,,,,,,,,263.6494,264.8488,m,1,1.1665,,264.8488,264.8489,,0,98,98,69,1,70,forma,719,32.6685,597,0.0653,5,harmonic,1.8,word,m,,,,,,,
,,,,,,,,,,,deniz,001,2023-11-07_23h03.36.585,vowel_harmony,2023.2.3,Win32,59.60185958,264.8496,265.8485,,,,,,,,,,,,,,,,,,,,,,,,,,265.8486,266.888,z,1,1.018,,266.8881,266.8881,,0,99,99,296,1,297,işban,,,,,5,notharmonic,1.95,nw,z,,,,,,,
,,,,,,,,,,,deniz,001,2023-11-07_23h03.36.585,vowel_harmony,2023.2.3,Win32,59.60185958,266.8885,267.8821,,,,,,,,,,,,,,,,,,,,,,,,,,267.8821,269.6701,z,1,1.7664,,269.6701,269.6703,,0,100,100,292,1,293,kinam,,,,,5,notharmonic,1.85,nw,z,,,,,,,
,,,,,,,,,,,deniz,001,2023-11-07_23h03.36.585,vowel_harmony,2023.2.3,Win32,59.60185958,269.6776,270.6815,,,,,,,,,,,,,,,,,,,,,,,,,,270.6815,271.6033,z,1,0.9003,,271.6033,271.6033,,0,101,101,188,1,189,tonık,,,,,5,harmonic,1.85,nw,z,,,,,,,
,,,,,,,,,,,deniz,001,2023-11-07_23h03.36.585,vowel_harmony,2023.2.3,Win32,59.60185958,271.6037,272.604,,,,,,,,,,,,,,,,,,,,,,,,,,272.604,273.2974,m,1,0.6655,,273.2974,273.2975,,0,102,102,146,1,147,mavi,2206,100.2319,1934,0.2114,4,notharmonic,1.45,word,m,,,,,,,
,,,,,,,,,,,deniz,001,2023-11-07_23h03.36.585,vowel_harmony,2023.2.3,Win32,59.60185958,273.298,274.2972,,,,,,,,,,,,,,,,,,,,,,,,,,274.2972,275.0301,z,1,0.7042,,275.0301,275.0301,,0,103,103,336,1,337,diyam,,,,,5,notharmonic,1.85,nw,z,,,,,,,
,,,,,,,,,,,deniz,001,2023-11-07_23h03.36.585,vowel_harmony,2023.2.3,Win32,59.60185958,275.0307,276.0305,,,,,,,,,,,,,,,,,,,,,,,,,,276.0305,276.9842,m,1,0.932,,276.9842,276.9843,,0,104,104,60,1,61,doğu,2105,95.6429,1823,0.1993,4,harmonic,1.05,word,m,,,,,,,
,,,,,,,,,,,deniz,001,2023-11-07_23h03.36.585,vowel_harmony,2023.2.3,Win32,59.60185958,276.9844,277.98,,,,,,,,,,,,,,,,,,,,,,,,,,277.98,278.6134,z,1,0.606,,278.6134,278.6135,,0,105,105,340,1,341,minya,,,,,5,notharmonic,1.95,nw,z,,,,,,,
,,,,,,,,,,,deniz,001,2023-11-07_23h03.36.585,vowel_harmony,2023.2.3,Win32,59.60185958,278.6141,279.6126,,,,,,,,,,,,,,,,,,,,,,,,,,279.6126,280.1963,m,1,0.551,,280.1963,280.1964,,0,106,106,170,1,171,basit,3385,153.801,3177,0.3473,5,notharmonic,1.65,word,m,,,,,,,
,,,,,,,,,,,deniz,001,2023-11-07_23h03.36.585,vowel_harmony,2023.2.3,Win32,59.60185958,280.1971,281.1961,,,,,,,,,,,,,,,,,,,,,,,,,,281.1961,282.002,m,1,0.7841,,282.002,282.0021,,0,107,107,24,1,25,yorgun,1153,52.3877,1108,0.1211,6,harmonic,1.55,word,m,,,,,,,
,,,,,,,,,,,deniz,001,2023-11-07_23h03.36.585,vowel_harmony,2023.2.3,Win32,59.60185958,282.0023,282.9955,,,,,,,,,,,,,,,,,,,,,,,,,,282.9955,283.5289,m,1,0.5089,,283.529,283.529,,0,108,108,5,1,6,bebek,3301,149.9843,2794,0.3054,5,harmonic,1.6,word,m,,,,,,,
,,,,,,,,,,,deniz,001,2023-11-07_23h03.36.585,vowel_harmony,2023.2.3,Win32,59.60185958,283.5297,284.5283,,,,,,,,,,,,,,,,,,,,,,,,,,284.5284,285.1115,m,1,0.552,,285.1115,285.1116,,0,109,109,104,1,105,cevap,5232,237.7213,4822,0.5271,5,notharmonic,1.85,word,m,,,,,,,
,,,,,,,,,,,deniz,001,2023-11-07_23h03.36.585,vowel_harmony,2023.2.3,Win32,59.60185958,285.1123,286.1115,,,,,,,,,,,,,,,,,,,,,,,,,,286.1115,286.8849,z,1,0.7515,,286.885,286.885,,0,110,110,239,1,240,şekik,,,,,5,harmonic,1.7,nw,z,,,,,,,
,,,,,,,,,,,deniz,001,2023-11-07_23h03.36.585,vowel_harmony,2023.2.3,Win32,59.60185958,286.8852,287.8777,,,,,,,,,,,,,,,,,,,,,,,,,,287.8777,288.4944,z,1,0.588,,288.4945,288.4946,,0,111,111,245,1,246,bıyan,,,,,5,harmonic,1.7,nw,z,,,,,,,
,,,,,,,,,,,deniz,001,2023-11-07_23h03.36.585,vowel_harmony,2023.2.3,Win32,59.60185958,288.4952,289.494,,,,,,,,,,,,,,,,,,,,,,,,,,289.4941,290.1107,z,1,0.5881,,290.1108,290.1109,,0,112,112,197,1,198,ranar,,,,,5,harmonic,1.75,nw,z,,,,,,,
,,,,,,,,,,,deniz,001,2023-11-07_23h03.36.585,vowel_harmony,2023.2.3,Win32,59.60185958,290.1115,291.1106,,,,,,,,,,,,,,,,,,,,,,,,,,291.1107,291.4658,z,1,0.333,,291.4659,291.4659,,0,113,113,313,1,314,ikas,,,,,4,notharmonic,1.85,nw,z,,,,,,,
,,,,,,,,,,,deniz,001,2023-11-07_23h03.36.585,vowel_harmony,2023.2.3,Win32,59.60185958,291.4662,292.4608,,,,,,,,,,,,,,,,,,,,,,,,,,292.4608,292.9824,m,1,0.5001,,292.9824,292.9824,,0,114,114,47,1,48,kaza,740,33.6227,679,0.0742,4,harmonic,1.85,word,m,,,,,,,
,,,,,,,,,,,deniz,001,2023-11-07_23h03.36.585,vowel_harmony,2023.2.3,Win32,59.60185958,292.9826,293.9769,,,,,,,,,,,,,,,,,,,,,,,,,,293.9769,294.5988,m,1,0.6003,,294.5988,294.5988,,0,115,115,80,1,81,merkez,1445,65.6551,1255,0.1372,6,harmonic,1.8,word,m,,,,,,,
,,,,,,,,,,,deniz,001,2023-11-07_23h03.36.585,vowel_harmony,2023.2.3,Win32,59.60185958,294.5991,295.5933,,,,,,,,,,,,,,,,,,,,,,,,,,295.5934,296.2432,z,1,0.6205,,296.2432,296.2433,,0,116,116,281,1,282,afel,,,,,4,notharmonic,1.8,nw,z,,,,,,,
,,,,,,,,,,,deniz,001,2023-11-07_23h03.36.585,vowel_harmony,2023.2.3,Win32,59.60185958,296.2444,297.2326,,,,,,,,,,,,,,,,,,,,,,,,,,297.2326,297.9423,z,1,0.6825,,297.9423,297.9424,,0,117,117,265,1,266,parula,,,,,6,harmonic,1.75,nw,z,,,,,,,
,,,,,,,,,,,deniz,001,2023-11-07_23h03.36.585,vowel_harmony,2023.2.3,Win32,59.60185958,297.943,298.9425,,,,,,,,,,,,,,,,,,,,,,,,,,298.9425,299.4255,z,0,0.4603,,299.4255,299.4255,,0,118,118,111,1,112,kahve,2634,119.6785,2283,0.2496,5,notharmonic,1.85,word,m,,,,,,,
,,,,,,,,,,,deniz,001,2023-11-07_23h03.36.585,vowel_harmony,2023.2.3,Win32,59.60185958,299.4262,300.4254,,,,,,,,,,,,,,,,,,,,,,,,,,300.4254,300.9259,m,0,0.4674,,300.9259,300.9261,,0,119,119,263,1,264,duzur,,,,,5,harmonic,1.8,nw,z,,,,,,,
,,,,,,,,,,,deniz,001,2023-11-07_23h03.36.585,vowel_harmony,2023.2.3,Win32,59.60185958,300.9269,301.9306,,,,,,,,,,,,,,,,,,,,,,,,,,301.9306,303.1918,m,1,1.2369,,303.1918,322.356,space,0,120,120,11,1,12,umut,1988,90.3268,1818,0.1987,4,harmonic,1.55,word,m,19.1368,,,,,,
,,,,,,,,,,,deniz,001,2023-11-07_23h03.36.585,vowel_harmony,2023.2.3,Win32,59.60185958,322.3667,323.3712,,,,,,,,,,,,,,,,,,,,,,,,,,323.3712,324.5704,z,1,1.1666,,324.5704,324.5705,,0,121,121,266,1,267,düştön,,,,,6,harmonic,1.9,nw,z,,,,,,,
,,,,,,,,,,,deniz,001,2023-11-07_23h03.36.585,vowel_harmony,2023.2.3,Win32,59.60185958,324.5712,325.5702,,,,,,,,,,,,,,,,,,,,,,,,,,325.5702,326.4925,m,1,0.9008,,326.4925,326.4925,,0,122,122,76,1,77,ilişki,1675,76.1054,1524,0.1666,6,harmonic,1.8,word,m,,,,,,,
,,,,,,,,,,,deniz,001,2023-11-07_23h03.36.585,vowel_harmony,2023.2.3,Win32,59.60185958,326.4927,327.4879,,,,,,,,,,,,,,,,,,,,,,,,,,327.4882,328.02,m,1,0.5082,,328.0201,328.0202,,0,123,123,57,1,58,bölüm,1910,86.7828,1605,0.1755,5,harmonic,1.45,word,m,,,,,,,
,,,,,,,,,,,deniz,001,2023-11-07_23h03.36.585,vowel_harmony,2023.2.3,Win32,59.60185958,328.0207,329.0196,,,,,,,,,,,,,,,,,,,,,,,,,,329.0197,329.4761,m,1,0.4336,,329.4761,329.4762,,0,124,124,37,1,38,hayvan,2363,107.3653,1894,0.2071,6,harmonic,1.5,word,m,,,,,,,
,,,,,,,,,,,deniz,001,2023-11-07_23h03.36.585,vowel_harmony,2023.2.3,Win32,59.60185958,329.4764,330.4694,,,,,,,,,,,,,,,,,,,,,,,,,,330.4694,331.0694,z,1,0.5671,,331.0694,331.0694,,0,125,125,215,1,216,aydo,,,,,4,harmonic,1.9,nw,z,,,,,,,
,,,,,,,,,,,deniz,001,2023-11-07_23h03.36.585,vowel_harmony,2023.2.3,Win32,59.60185958,331.07,332.0603,,,,,,,,,,,,,,,,,,,,,,,,,,332.0604,332.7279,m,1,0.6477,,332.7279,332.728,,0,126,126,137,1,138,parti,2613,118.7244,2059,0.2251,5,notharmonic,1.8,word,m,,,,,,,
,,,,,,,,,,,deniz,001,2023-11-07_23h03.36.585,vowel_harmony,2023.2.3,Win32,59.60185958,332.7284,333.7192,,,,,,,,,,,,,,,,,,,,,,,,,,333.7192,334.1524,m,1,0.4069,,334.1524,334.1526,,0,127,127,65,1,66,fikir,2552,115.9528,2413,0.2638,5,harmonic,1.9,word,m,,,,,,,
,,,,,,,,,,,deniz,001,2023-11-07_23h03.36.585,vowel_harmony,2023.2.3,Win32,59.60185958,334.1533,335.1522,,,,,,,,,,,,,,,,,,,,,,,,,,335.1522,335.5577,m,0,0.3837,,335.5577,335.5577,,0,128,128,285,1,286,iklon,,,,,5,notharmonic,1.85,nw,z,,,,,,,
,,,,,,,,,,,deniz,001,2023-11-07_23h03.36.585,vowel_harmony,2023.2.3,Win32,59.60185958,335.558,336.552,,,,,,,,,,,,,,,,,,,,,,,,,,336.552,337.2269,m,1,0.6534,,337.2271,337.2273,,0,129,129,51,1,52,ilginç,2803,127.3572,2690,0.2941,6,harmonic,1.8,word,m,,,,,,,
,,,,,,,,,,,deniz,001,2023-11-07_23h03.36.585,vowel_harmony,2023.2.3,Win32,59.60185958,337.2276,338.2181,,,,,,,,,,,,,,,,,,,,,,,,,,338.2181,338.8729,z,1,0.633,,338.8729,338.8729,,0,130,130,256,1,257,yaruza,,,,,6,harmonic,1.9,nw,z,,,,,,,
,,,,,,,,,,,deniz,001,2023-11-07_23h03.36.585,vowel_harmony,2023.2.3,Win32,59.60185958,338.8731,339.8732,,,,,,,,,,,,,,,,,,,,,,,,,,339.8732,340.5007,m,1,0.6007,,340.5007,340.5009,,0,131,131,4,1,5,metre,1156,52.5241,1015,0.111,5,harmonic,1.7,word,m,,,,,,,
,,,,,,,,,,,deniz,001,2023-11-07_23h03.36.585,vowel_harmony,2023.2.3,Win32,59.60185958,340.5019,341.501,,,,,,,,,,,,,,,,,,,,,,,,,,341.501,342.1277,m,1,0.6055,,342.1277,342.1278,,0,132,132,29,1,30,huzur,1911,86.8283,1799,0.1967,5,harmonic,1.8,word,m,,,,,,,
,,,,,,,,,,,deniz,001,2023-11-07_23h03.36.585,vowel_harmony,2023.2.3,Win32,59.60185958,342.128,343.1172,,,,,,,,,,,,,,,,,,,,,,,,,,343.1172,343.7169,m,1,0.5729,,343.7169,343.7171,,0,133,133,112,1,113,sezon,2315,105.1844,1917,0.2096,5,notharmonic,1.8,word,m,,,,,,,
,,,,,,,,,,,deniz,001,2023-11-07_23h03.36.585,vowel_harmony,2023.2.3,Win32,59.60185958,343.7177,344.7167,,,,,,,,,,,,,,,,,,,,,,,,,,344.7168,345.2331,m,1,0.4918,,345.2331,345.2331,,0,134,134,102,1,103,esas,1965,89.2818,1795,0.1962,4,notharmonic,1.75,word,m,,,,,,,
,,,,,,,,,,,deniz,001,2023-11-07_23h03.36.585,vowel_harmony,2023.2.3,Win32,59.60185958,345.2337,346.233,,,,,,,,,,,,,,,,,,,,,,,,,,346.233,347.0328,z,1,0.7753,,347.0328,347.0332,,0,135,135,258,1,259,karıha,,,,,6,harmonic,1.75,nw,z,,,,,,,
,,,,,,,,,,,deniz,001,2023-11-07_23h03.36.585,vowel_harmony,2023.2.3,Win32,59.60185958,347.0349,348.0331,,,,,,,,,,,,,,,,,,,,,,,,,,348.0331,348.9161,m,1,0.8525,,348.9161,348.9161,,0,136,136,70,1,71,yarın,3440,156.3,3222,0.3522,5,harmonic,1.85,word,m,,,,,,,
,,,,,,,,,,,deniz,001,2023-11-07_23h03.36.585,vowel_harmony,2023.2.3,Win32,59.60185958,348.9168,349.9156,,,,,,,,,,,,,,,,,,,,,,,,,,349.9156,350.4154,m,1,0.4686,,350.4154,350.4156,,0,137,137,89,1,90,etki,1234,56.0681,1169,0.1278,4,harmonic,1.4,word,m,,,,,,,
,,,,,,,,,,,deniz,001,2023-11-07_23h03.36.585,vowel_harmony,2023.2.3,Win32,59.60185958,350.4161,351.4154,,,,,,,,,,,,,,,,,,,,,,,,,,351.4154,352.5573,z,1,1.1192,,352.5573,352.5574,,0,138,138,194,1,195,rayna,,,,,5,harmonic,1.7,nw,z,,,,,,,
,,,,,,,,,,,deniz,001,2023-11-07_23h03.36.585,vowel_harmony,2023.2.3,Win32,59.60185958,352.5662,353.565,,,,,,,,,,,,,,,,,,,,,,,,,,353.5651,354.1651,m,1,0.5684,,354.1652,354.1653,,0,139,139,129,1,130,tahmin,2353,106.911,2273,0.2485,6,notharmonic,1.6,word,m,,,,,,,
,,,,,,,,,,,deniz,001,2023-11-07_23h03.36.585,vowel_harmony,2023.2.3,Win32,59.60185958,354.1659,355.1644,,,,,,,,,,,,,,,,,,,,,,,,,,355.1645,355.7699,m,1,0.5835,,355.7699,355.77,,0,140,140,90,1,91,tarif,2834,128.7657,2611,0.2854,5,notharmonic,1.5,word,m,,,,,,,
,,,,,,,,,,,deniz,001,2023-11-07_23h03.36.585,vowel_harmony,2023.2.3,Win32,59.60185958,355.7702,356.7689,,,,,,,,,,,,,,,,,,,,,,,,,,356.7689,357.3547,m,1,0.5681,,357.3547,357.3548,,0,141,141,110,1,111,rüya,1062,48.2531,937,0.1024,4,notharmonic,1.75,word,m,,,,,,,
,,,,,,,,,,,deniz,001,2023-11-07_23h03.36.585,vowel_harmony,2023.2.3,Win32,59.60185958,357.3554,358.3528,,,,,,,,,,,,,,,,,,,,,,,,,,358.3528,358.7146,m,0,0.3451,,358.7146,358.7149,,0,142,142,260,1,261,yarlam,,,,,6,harmonic,1.75,nw,z,,,,,,,
,,,,,,,,,,,deniz,001,2023-11-07_23h03.36.585,vowel_harmony,2023.2.3,Win32,59.60185958,358.7156,359.7137,,,,,,,,,,,,,,,,,,,,,,,,,,359.7137,360.5854,m,1,0.85,,360.5855,360.5855,,0,143,143,14,1,15,yaşam,4348,197.5559,3918,0.4283,5,harmonic,1.4,word,m,,,,,,,
,,,,,,,,,,,deniz,001,2023-11-07_23h03.36.585,vowel_harmony,2023.2.3,Win32,59.60185958,360.586,361.5802,,,,,,,,,,,,,,,,,,,,,,,,,,361.5803,362.1713,m,1,0.5684,,362.1713,362.1713,,0,144,144,169,1,170,hikaye,1555,70.653,1405,0.1536,6,notharmonic,1.8,word,m,,,,,,,
,,,,,,,,,,,deniz,001,2023-11-07_23h03.36.585,vowel_harmony,2023.2.3,Win32,59.60185958,362.1717,363.1629,,,,,,,,,,,,,,,,,,,,,,,,,,363.1629,364.0686,z,1,0.8837,,364.0686,364.0686,,0,145,145,200,1,201,duşın,,,,,5,harmonic,1.9,nw,z,,,,,,,
,,,,,,,,,,,deniz,001,2023-11-07_23h03.36.585,vowel_harmony,2023.2.3,Win32,59.60185958,364.069,365.0625,,,,,,,,,,,,,,,,,,,,,,,,,,365.0626,365.7296,z,1,0.6385,,365.7297,365.7298,,0,146,146,226,1,227,tefem,,,,,5,harmonic,1.75,nw,z,,,,,,,
,,,,,,,,,,,deniz,001,2023-11-07_23h03.36.585,vowel_harmony,2023.2.3,Win32,59.60185958,365.7303,366.7338,,,,,,,,,,,,,,,,,,,,,,,,,,366.7339,367.3531,z,1,0.6005,,367.3531,367.3532,,0,147,147,259,1,260,hayuk,,,,,5,harmonic,1.95,nw,z,,,,,,,
,,,,,,,,,,,deniz,001,2023-11-07_23h03.36.585,vowel_harmony,2023.2.3,Win32,59.60185958,367.3536,368.3454,,,,,,,,,,,,,,,,,,,,,,,,,,368.3454,368.8451,m,1,0.4672,,368.8451,368.8452,,0,148,148,134,1,135,iptal,793,36.0308,725,0.0793,5,notharmonic,1.35,word,m,,,,,,,
,,,,,,,,,,,deniz,001,2023-11-07_23h03.36.585,vowel_harmony,2023.2.3,Win32,59.60185958,368.8458,369.845,,,,,,,,,,,,,,,,,,,,,,,,,,369.8451,370.3951,m,1,0.5235,,370.3951,370.3952,,0,149,149,62,1,63,cümle,1911,86.8283,1765,0.193,5,harmonic,1.85,word,m,,,,,,,
,,,,,,,,,,,deniz,001,2023-11-07_23h03.36.585,vowel_harmony,2023.2.3,Win32,59.60185958,370.3957,371.3946,,,,,,,,,,,,,,,,,,,,,,,,,,371.3946,372.0614,m,1,0.6417,,372.0614,372.0619,,0,150,150,126,1,127,adet,4367,198.4192,3768,0.4119,4,notharmonic,1.4,word,m,,,,,,,
,,,,,,,,,,,deniz,001,2023-11-07_23h03.36.585,vowel_harmony,2023.2.3,Win32,59.60185958,372.0632,373.0667,,,,,,,,,,,,,,,,,,,,,,,,,,373.0667,373.7169,z,1,0.6341,,373.7169,373.717,,0,151,151,334,1,335,işgan,,,,,5,notharmonic,1.95,nw,z,,,,,,,
,,,,,,,,,,,deniz,001,2023-11-07_23h03.36.585,vowel_harmony,2023.2.3,Win32,59.60185958,373.7172,374.7148,,,,,,,,,,,,,,,,,,,,,,,,,,374.7148,375.2993,z,1,0.5673,,375.2993,375.2993,,0,152,152,235,1,236,oşup,,,,,4,harmonic,1.75,nw,z,,,,,,,
,,,,,,,,,,,deniz,001,2023-11-07_23h03.36.585,vowel_harmony,2023.2.3,Win32,59.60185958,375.2997,376.2938,,,,,,,,,,,,,,,,,,,,,,,,,,376.2938,376.8671,m,1,0.5513,,376.8671,376.8672,,0,153,153,105,1,106,sahip,10887,494.6621,9847,1.0765,5,notharmonic,1.25,word,m,,,,,,,
,,,,,,,,,,,deniz,001,2023-11-07_23h03.36.585,vowel_harmony,2023.2.3,Win32,59.60185958,376.8675,377.8603,,,,,,,,,,,,,,,,,,,,,,,,,,377.8603,378.4264,z,1,0.5424,,378.4266,378.4266,,0,154,154,229,1,230,tonam,,,,,5,harmonic,1.8,nw,z,,,,,,,
,,,,,,,,,,,deniz,001,2023-11-07_23h03.36.585,vowel_harmony,2023.2.3,Win32,59.60185958,378.4274,379.4153,,,,,,,,,,,,,,,,,,,,,,,,,,379.4153,380.0155,m,1,0.5842,,380.0155,380.0156,,0,155,155,179,1,180,dakika,5891,267.6637,5207,0.5692,6,notharmonic,1.75,word,m,,,,,,,
,,,,,,,,,,,deniz,001,2023-11-07_23h03.36.585,vowel_harmony,2023.2.3,Win32,59.60185958,380.0159,381.0149,,,,,,,,,,,,,,,,,,,,,,,,,,381.0149,381.5765,m,1,0.5336,,381.5766,381.5766,,0,156,156,177,1,178,tekrar,10788,490.1639,9352,1.0224,6,notharmonic,1.85,word,m,,,,,,,
,,,,,,,,,,,deniz,001,2023-11-07_23h03.36.585,vowel_harmony,2023.2.3,Win32,59.60185958,381.5773,382.5662,,,,,,,,,,,,,,,,,,,,,,,,,,382.5663,383.481,m,1,0.898,,383.481,383.4811,,0,157,157,119,1,120,kulüp,649,29.488,467,0.0511,5,notharmonic,1.4,word,m,,,,,,,
,,,,,,,,,,,deniz,001,2023-11-07_23h03.36.585,vowel_harmony,2023.2.3,Win32,59.60185958,383.4813,384.4753,,,,,,,,,,,,,,,,,,,,,,,,,,384.4753,385.1752,z,1,0.6753,,385.1752,385.1753,,0,158,158,280,1,281,adalek,,,,,6,notharmonic,1.85,nw,z,,,,,,,
,,,,,,,,,,,deniz,001,2023-11-07_23h03.36.585,vowel_harmony,2023.2.3,Win32,59.60185958,385.176,386.1749,,,,,,,,,,,,,,,,,,,,,,,,,,386.175,386.7824,z,1,0.5858,,386.7824,386.7825,,0,159,159,354,1,355,taden,,,,,5,notharmonic,1.7,nw,z,,,,,,,
,,,,,,,,,,,deniz,001,2023-11-07_23h03.36.585,vowel_harmony,2023.2.3,Win32,59.60185958,386.7828,387.775,,,,,,,,,,,,,,,,,,,,,,,,,,387.7751,388.2918,m,1,0.4839,,388.2919,388.2922,,0,160,160,18,1,19,normal,4154,188.7413,3788,0.4141,6,harmonic,1.75,word,m,,,,,,,
,,,,,,,,,,,deniz,001,2023-11-07_23h03.36.585,vowel_harmony,2023.2.3,Win32,59.60185958,388.2931,389.2915,,,,,,,,,,,,,,,,,,,,,,,,,,389.2915,389.8582,z,1,0.5418,,389.8582,389.8583,,0,161,161,192,1,193,vecö,,,,,4,harmonic,1.95,nw,z,,,,,,,
,,,,,,,,,,,deniz,001,2023-11-07_23h03.36.585,vowel_harmony,2023.2.3,Win32,59.60185958,389.8589,390.8577,,,,,,,,,,,,,,,,,,,,,,,,,,390.8578,391.7979,z,1,0.9187,,391.798,391.798,,0,162,162,277,1,278,balsin,,,,,6,notharmonic,1.85,nw,z,,,,,,,
,,,,,,,,,,,deniz,001,2023-11-07_23h03.36.585,vowel_harmony,2023.2.3,Win32,59.60185958,391.7982,392.791,,,,,,,,,,,,,,,,,,,,,,,,,,392.7911,393.4963,z,1,0.684,,393.4963,393.4964,,0,163,163,341,1,342,işgan,,,,,5,notharmonic,1.95,nw,z,,,,,,,
,,,,,,,,,,,deniz,001,2023-11-07_23h03.36.585,vowel_harmony,2023.2.3,Win32,59.60185958,393.4967,394.4904,,,,,,,,,,,,,,,,,,,,,,,,,,394.4904,395.2069,m,1,0.6832,,395.2069,395.2069,,0,164,164,67,1,68,bayram,1948,88.5094,1648,0.1802,6,harmonic,1.85,word,m,,,,,,,
,,,,,,,,,,,deniz,001,2023-11-07_23h03.36.585,vowel_harmony,2023.2.3,Win32,59.60185958,395.2093,396.2068,,,,,,,,,,,,,,,,,,,,,,,,,,396.2068,397.2638,m,1,1.0356,,397.2638,397.2638,,0,165,165,175,1,176,aile,3655,166.0687,3126,0.3417,4,notharmonic,1,word,m,,,,,,,
,,,,,,,,,,,deniz,001,2023-11-07_23h03.36.585,vowel_harmony,2023.2.3,Win32,59.60185958,397.2641,398.2563,,,,,,,,,,,,,,,,,,,,,,,,,,398.2564,399.0397,z,1,0.7555,,399.0397,399.0398,,0,166,166,204,1,205,gerkez,,,,,6,harmonic,1.9,nw,z,,,,,,,
,,,,,,,,,,,deniz,001,2023-11-07_23h03.36.585,vowel_harmony,2023.2.3,Win32,59.60185958,399.0405,400.0393,,,,,,,,,,,,,,,,,,,,,,,,,,400.0394,400.7894,z,1,0.7178,,400.7895,400.7895,,0,167,167,352,1,353,yılden,,,,,6,notharmonic,1.8,nw,z,,,,,,,
,,,,,,,,,,,deniz,001,2023-11-07_23h03.36.585,vowel_harmony,2023.2.3,Win32,59.60185958,400.7901,401.796,,,,,,,,,,,,,,,,,,,,,,,,,,401.796,402.4116,m,1,0.5991,,402.4116,402.4116,,0,168,168,152,1,153,tedavi,1865,84.7382,1597,0.1746,6,notharmonic,1.8,word,m,,,,,,,
,,,,,,,,,,,deniz,001,2023-11-07_23h03.36.585,vowel_harmony,2023.2.3,Win32,59.60185958,402.412,403.4099,,,,,,,,,,,,,,,,,,,,,,,,,,403.4099,404.7272,m,1,1.3006,,404.7272,404.7273,,0,169,169,48,1,49,teşvik,932,42.3464,867,0.0948,6,harmonic,1.8,word,m,,,,,,,
,,,,,,,,,,,deniz,001,2023-11-07_23h03.36.585,vowel_harmony,2023.2.3,Win32,59.60185958,404.7275,405.7214,,,,,,,,,,,,,,,,,,,,,,,,,,405.7214,406.7046,z,1,0.9572,,406.7046,406.7047,,0,170,170,209,1,210,sapor,,,,,5,harmonic,1.8,nw,z,,,,,,,
,,,,,,,,,,,deniz,001,2023-11-07_23h03.36.585,vowel_harmony,2023.2.3,Win32,59.60185958,406.7053,407.6936,,,,,,,,,,,,,,,,,,,,,,,,,,407.6937,408.4375,z,1,0.7206,,408.4375,408.4377,,0,171,171,287,1,288,haköm,,,,,5,notharmonic,1.9,nw,z,,,,,,,
,,,,,,,,,,,deniz,001,2023-11-07_23h03.36.585,vowel_harmony,2023.2.3,Win32,59.60185958,408.4383,409.4377,,,,,,,,,,,,,,,,,,,,,,,,,,409.4378,410.5207,m,1,1.0502,,410.5207,410.5208,,0,172,172,41,1,42,zengin,2193,99.6412,2015,0.2203,6,harmonic,1.65,word,m,,,,,,,
,,,,,,,,,,,deniz,001,2023-11-07_23h03.36.585,vowel_harmony,2023.2.3,Win32,59.60185958,410.5215,411.5204,,,,,,,,,,,,,,,,,,,,,,,,,,411.5204,412.3282,m,1,0.7846,,412.3284,412.3288,,0,173,173,21,1,22,duygu,1877,85.2834,1760,0.1924,5,harmonic,1.8,word,m,,,,,,,
,,,,,,,,,,,deniz,001,2023-11-07_23h03.36.585,vowel_harmony,2023.2.3,Win32,59.60185958,412.3292,413.3203,,,,,,,,,,,,,,,,,,,,,,,,,,413.3203,413.9868,z,1,0.6336,,413.9868,413.9869,,0,174,174,240,1,241,hoga,,,,,4,harmonic,1.75,nw,z,,,,,,,
,,,,,,,,,,,deniz,001,2023-11-07_23h03.36.585,vowel_harmony,2023.2.3,Win32,59.60185958,413.9876,414.9914,,,,,,,,,,,,,,,,,,,,,,,,,,414.9915,415.5752,m,1,0.5671,,415.5753,415.5753,,0,175,175,19,1,20,ödül,1063,48.2985,926,0.1012,4,harmonic,1.7,word,m,,,,,,,
,,,,,,,,,,,deniz,001,2023-11-07_23h03.36.585,vowel_harmony,2023.2.3,Win32,59.60185958,415.5755,416.5696,,,,,,,,,,,,,,,,,,,,,,,,,,416.5696,417.24,z,1,0.6488,,417.2401,417.2401,,0,176,176,272,1,273,daken,,,,,5,notharmonic,1.8,nw,z,,,,,,,
,,,,,,,,,,,deniz,001,2023-11-07_23h03.36.585,vowel_harmony,2023.2.3,Win32,59.60185958,417.2402,418.2381,,,,,,,,,,,,,,,,,,,,,,,,,,418.2381,419.1519,z,1,0.8839,,419.152,419.152,,0,177,177,301,1,302,mezak,,,,,5,notharmonic,1.8,nw,z,,,,,,,
,,,,,,,,,,,deniz,001,2023-11-07_23h03.36.585,vowel_harmony,2023.2.3,Win32,59.60185958,419.1526,420.1519,,,,,,,,,,,,,,,,,,,,,,,,,,420.152,421.0237,m,1,0.8502,,421.0238,421.0239,,0,178,178,94,1,95,final,876,39.802,778,0.0851,5,notharmonic,1,word,m,,,,,,,
,,,,,,,,,,,deniz,001,2023-11-07_23h03.36.585,vowel_harmony,2023.2.3,Win32,59.60185958,421.0241,422.0259,,,,,,,,,,,,,,,,,,,,,,,,,,422.0259,422.6095,z,1,0.5672,,422.6095,422.6096,,0,179,179,268,1,269,haldum,,,,,6,harmonic,2,nw,z,,,,,,,
,,,,,,,,,,,deniz,001,2023-11-07_23h03.36.585,vowel_harmony,2023.2.3,Win32,59.60185958,422.6098,423.6012,,,,,,,,,,,,,,,,,,,,,,,,,,423.6012,424.4066,m,1,0.7834,,424.4067,424.4068,,0,180,180,55,1,56,akıl,2208,100.3228,2004,0.2191,4,harmonic,1,word,m,,,,,,,
,,,,,,,,,,,deniz,001,2023-11-07_23h03.36.585,vowel_harmony,2023.2.3,Win32,59.60185958,424.407,425.4056,,,,,,,,,,,,,,,,,,,,,,,,,,425.4056,425.9178,m,1,0.484,,425.9179,425.918,,0,181,181,6,1,7,hayal,4498,204.3713,4079,0.4459,5,harmonic,1.45,word,m,,,,,,,
,,,,,,,,,,,deniz,001,2023-11-07_23h03.36.585,vowel_harmony,2023.2.3,Win32,59.60185958,425.9188,426.9096,,,,,,,,,,,,,,,,,,,,,,,,,,426.9097,427.5103,m,1,0.5838,,427.5103,427.5104,,0,182,182,141,1,142,madde,3793,172.3389,3389,0.3705,5,notharmonic,1.7,word,m,,,,,,,
,,,,,,,,,,,deniz,001,2023-11-07_23h03.36.585,vowel_harmony,2023.2.3,Win32,59.60185958,427.5107,428.5005,,,,,,,,,,,,,,,,,,,,,,,,,,428.5006,429.2224,m,1,0.7,,429.2225,429.2225,,0,183,183,16,1,17,yavaş,5087,231.1331,2886,0.3155,5,harmonic,1.6,word,m,,,,,,,
,,,,,,,,,,,deniz,001,2023-11-07_23h03.36.585,vowel_harmony,2023.2.3,Win32,59.60185958,429.2228,430.2169,,,,,,,,,,,,,,,,,,,,,,,,,,430.2169,430.8721,z,1,0.6339,,430.8721,430.8722,,0,184,184,247,1,248,hafgın,,,,,6,harmonic,2,nw,z,,,,,,,
,,,,,,,,,,,deniz,001,2023-11-07_23h03.36.585,vowel_harmony,2023.2.3,Win32,59.60185958,430.8724,431.8669,,,,,,,,,,,,,,,,,,,,,,,,,,431.867,432.5171,z,1,0.6219,,432.5174,432.5179,,0,185,185,249,1,250,hurıt,,,,,5,harmonic,1.95,nw,z,,,,,,,
,,,,,,,,,,,deniz,001,2023-11-07_23h03.36.585,vowel_harmony,2023.2.3,Win32,59.60185958,432.5182,433.5162,,,,,,,,,,,,,,,,,,,,,,,,,,433.5163,434.238,m,1,0.7,,434.238,434.2381,,0,186,186,114,1,115,nisan,2321,105.457,2044,0.2235,5,notharmonic,1.6,word,m,,,,,,,
,,,,,,,,,,,deniz,001,2023-11-07_23h03.36.585,vowel_harmony,2023.2.3,Win32,59.60185958,434.2383,435.2323,,,,,,,,,,,,,,,,,,,,,,,,,,435.2323,435.9041,z,1,0.6494,,435.9041,435.9042,,0,187,187,300,1,301,nilgi,,,,,5,notharmonic,1.85,nw,z,,,,,,,
,,,,,,,,,,,deniz,001,2023-11-07_23h03.36.585,vowel_harmony,2023.2.3,Win32,59.60185958,435.9044,436.9046,,,,,,,,,,,,,,,,,,,,,,,,,,436.9047,437.7319,z,1,0.8019,,437.732,437.7327,,0,188,188,294,1,295,mesap,,,,,5,notharmonic,1.8,nw,z,,,,,,,
,,,,,,,,,,,deniz,001,2023-11-07_23h03.36.585,vowel_harmony,2023.2.3,Win32,59.60185958,437.7338,438.7371,,,,,,,,,,,,,,,,,,,,,,,,,,438.7371,440.0148,z,1,1.2543,,440.0148,440.0149,,0,189,189,357,1,358,işarek,,,,,6,notharmonic,1.95,nw,z,,,,,,,
,,,,,,,,,,,deniz,001,2023-11-07_23h03.36.585,vowel_harmony,2023.2.3,Win32,59.60185958,440.0159,441.0147,,,,,,,,,,,,,,,,,,,,,,,,,,441.0147,441.8559,z,1,0.8182,,441.8561,441.8564,,0,190,190,349,1,350,harten,,,,,6,notharmonic,1.85,nw,z,,,,,,,
,,,,,,,,,,,deniz,001,2023-11-07_23h03.36.585,vowel_harmony,2023.2.3,Win32,59.60185958,441.8569,442.8473,,,,,,,,,,,,,,,,,,,,,,,,,,442.8474,443.5805,m,1,0.7003,,443.5805,443.5807,,0,191,191,171,1,172,reklam,1565,71.1074,1244,0.136,6,notharmonic,1.9,word,m,,,,,,,
,,,,,,,,,,,deniz,001,2023-11-07_23h03.36.585,vowel_harmony,2023.2.3,Win32,59.60185958,443.5812,444.5802,,,,,,,,,,,,,,,,,,,,,,,,,,444.5802,445.4135,z,1,0.8043,,445.4135,445.4136,,0,192,192,315,1,316,takep,,,,,5,notharmonic,1.85,nw,z,,,,,,,
,,,,,,,,,,,deniz,001,2023-11-07_23h03.36.585,vowel_harmony,2023.2.3,Win32,59.60185958,445.4144,446.4133,,,,,,,,,,,,,,,,,,,,,,,,,,446.4133,447.6968,m,1,1.2586,,447.6969,447.6975,,0,193,193,1,1,2,erkek,6188,281.1582,5195,0.5679,5,harmonic,1.65,word,m,,,,,,,
,,,,,,,,,,,deniz,001,2023-11-07_23h03.36.585,vowel_harmony,2023.2.3,Win32,59.60185958,447.6985,448.6967,,,,,,,,,,,,,,,,,,,,,,,,,,448.6967,449.5299,z,1,0.8004,,449.5299,449.53,,0,194,194,329,1,330,taif,,,,,4,notharmonic,1.8,nw,z,,,,,,,
,,,,,,,,,,,deniz,001,2023-11-07_23h03.36.585,vowel_harmony,2023.2.3,Win32,59.60185958,449.5307,450.5291,,,,,,,,,,,,,,,,,,,,,,,,,,450.5292,451.1459,z,1,0.5896,,451.1459,451.1461,,0,195,195,337,1,338,bakem,,,,,5,notharmonic,1.7,nw,z,,,,,,,
,,,,,,,,,,,deniz,001,2023-11-07_23h03.36.585,vowel_harmony,2023.2.3,Win32,59.60185958,451.1467,452.1358,,,,,,,,,,,,,,,,,,,,,,,,,,452.1359,452.8012,z,1,0.6491,,452.8012,452.8013,,0,196,196,210,1,211,şevci,,,,,5,harmonic,1.75,nw,z,,,,,,,
,,,,,,,,,,,deniz,001,2023-11-07_23h03.36.585,vowel_harmony,2023.2.3,Win32,59.60185958,452.8015,453.7955,,,,,,,,,,,,,,,,,,,,,,,,,,453.7956,454.4955,z,1,0.6702,,454.4956,454.4957,,0,197,197,220,1,221,denbi,,,,,5,harmonic,1.75,nw,z,,,,,,,
,,,,,,,,,,,deniz,001,2023-11-07_23h03.36.585,vowel_harmony,2023.2.3,Win32,59.60185958,454.4963,455.4952,,,,,,,,,,,,,,,,,,,,,,,,,,455.4952,456.0283,z,1,0.5099,,456.0283,456.0285,,0,198,198,346,1,347,kidan,,,,,5,notharmonic,1.8,nw,z,,,,,,,
,,,,,,,,,,,deniz,001,2023-11-07_23h03.36.585,vowel_harmony,2023.2.3,Win32,59.60185958,456.029,457.0174,,,,,,,,,,,,,,,,,,,,,,,,,,457.0174,457.5345,z,1,0.4997,,457.5345,457.5347,,0,199,199,233,1,234,devpi,,,,,5,harmonic,1.8,nw,z,,,,,,,
,,,,,,,,,,,deniz,001,2023-11-07_23h03.36.585,vowel_harmony,2023.2.3,Win32,59.60185958,457.5349,458.5278,,,,,,,,,,,,,,,,,,,,,,,,,,458.5278,459.0444,z,1,0.4866,,459.0444,459.0445,,0,200,200,218,1,219,tezöl,,,,,5,harmonic,2,nw,z,,,,,,,
,,,,,,,,,,,deniz,001,2023-11-07_23h03.36.585,vowel_harmony,2023.2.3,Win32,59.60185958,459.0451,460.047,,,,,,,,,,,,,,,,,,,,,,,,,,460.047,460.711,m,1,0.6374,,460.7111,460.7111,,0,201,201,27,1,28,bölge,1283,58.2944,1123,0.1228,5,harmonic,1.65,word,m,,,,,,,
,,,,,,,,,,,deniz,001,2023-11-07_23h03.36.585,vowel_harmony,2023.2.3,Win32,59.60185958,460.7117,461.7108,,,,,,,,,,,,,,,,,,,,,,,,,,461.7108,462.5435,z,1,0.8087,,462.5435,462.544,,0,202,202,221,1,222,yaypın,,,,,6,harmonic,1.75,nw,z,,,,,,,
,,,,,,,,,,,deniz,001,2023-11-07_23h03.36.585,vowel_harmony,2023.2.3,Win32,59.60185958,462.5452,463.5463,,,,,,,,,,,,,,,,,,,,,,,,,,463.5463,464.1157,z,1,0.5504,,464.1158,464.1158,,0,203,203,185,1,186,örtin,,,,,5,harmonic,1.9,nw,z,,,,,,,
,,,,,,,,,,,deniz,001,2023-11-07_23h03.36.585,vowel_harmony,2023.2.3,Win32,59.60185958,464.1161,465.1101,,,,,,,,,,,,,,,,,,,,,,,,,,465.1101,465.7097,m,1,0.5773,,465.7098,465.7101,,0,204,204,56,1,57,sağlam,1818,82.6027,1720,0.188,6,harmonic,1.6,word,m,,,,,,,
,,,,,,,,,,,deniz,001,2023-11-07_23h03.36.585,vowel_harmony,2023.2.3,Win32,59.60185958,465.7109,466.715,,,,,,,,,,,,,,,,,,,,,,,,,,466.715,467.5996,z,1,0.8685,,467.5996,467.6001,,0,205,205,190,1,191,reklen,,,,,6,harmonic,1.8,nw,z,,,,,,,
,,,,,,,,,,,deniz,001,2023-11-07_23h03.36.585,vowel_harmony,2023.2.3,Win32,59.60185958,467.6012,468.5922,,,,,,,,,,,,,,,,,,,,,,,,,,468.5923,469.3456,m,1,0.7318,,469.3456,469.3457,,0,206,206,116,1,117,daire,621,28.2158,503,0.055,5,notharmonic,1,word,m,,,,,,,
,,,,,,,,,,,deniz,001,2023-11-07_23h03.36.585,vowel_harmony,2023.2.3,Win32,59.60185958,469.3459,470.3421,,,,,,,,,,,,,,,,,,,,,,,,,,470.3421,470.9645,m,1,0.6003,,470.9646,470.9646,,0,207,207,71,1,72,örnek,3463,157.345,3266,0.357,5,harmonic,1.85,word,m,,,,,,,
,,,,,,,,,,,deniz,001,2023-11-07_23h03.36.585,vowel_harmony,2023.2.3,Win32,59.60185958,470.9648,471.9653,,,,,,,,,,,,,,,,,,,,,,,,,,471.9654,472.6159,m,1,0.6336,,472.616,472.6165,,0,208,208,28,1,29,parlak,1142,51.888,1088,0.1189,6,harmonic,1.7,word,m,,,,,,,
,,,,,,,,,,,deniz,001,2023-11-07_23h03.36.585,vowel_harmony,2023.2.3,Win32,59.60185958,472.6176,473.6111,,,,,,,,,,,,,,,,,,,,,,,,,,473.6112,474.1467,m,1,0.5168,,474.1467,474.1468,,0,209,209,167,1,168,adalet,1611,73.1975,1388,0.1517,6,notharmonic,1.65,word,m,,,,,,,
,,,,,,,,,,,deniz,001,2023-11-07_23h03.36.585,vowel_harmony,2023.2.3,Win32,59.60185958,474.1471,475.1412,,,,,,,,,,,,,,,,,,,,,,,,,,475.1412,475.8244,z,1,0.6503,,475.8245,475.8246,,0,210,210,203,1,204,döves,,,,,5,harmonic,1.8,nw,z,,,,,,,
,,,,,,,,,,,deniz,001,2023-11-07_23h03.36.585,vowel_harmony,2023.2.3,Win32,59.60185958,475.8252,476.8139,,,,,,,,,,,,,,,,,,,,,,,,,,476.8139,477.3816,z,1,0.5506,,477.3816,477.3817,,0,211,211,350,1,351,resun,,,,,5,notharmonic,1.85,nw,z,,,,,,,
,,,,,,,,,,,deniz,001,2023-11-07_23h03.36.585,vowel_harmony,2023.2.3,Win32,59.60185958,477.3822,478.3739,,,,,,,,,,,,,,,,,,,,,,,,,,478.374,479.1292,z,1,0.733,,479.1292,479.1293,,0,212,212,228,1,229,haytam,,,,,6,harmonic,1.75,nw,z,,,,,,,
,,,,,,,,,,,deniz,001,2023-11-07_23h03.36.585,vowel_harmony,2023.2.3,Win32,59.60185958,479.1295,480.1236,,,,,,,,,,,,,,,,,,,,,,,,,,480.1236,480.89,m,1,0.7335,,480.89,480.8901,,0,213,213,20,1,21,nefes,2871,130.4469,2553,0.2791,5,harmonic,1.8,word,m,,,,,,,
,,,,,,,,,,,deniz,001,2023-11-07_23h03.36.585,vowel_harmony,2023.2.3,Win32,59.60185958,480.8906,481.897,,,,,,,,,,,,,,,,,,,,,,,,,,481.897,482.8564,z,1,0.9365,,482.8564,482.8565,,0,214,214,332,1,333,tahane,,,,,6,notharmonic,1.85,nw,z,,,,,,,
,,,,,,,,,,,deniz,001,2023-11-07_23h03.36.585,vowel_harmony,2023.2.3,Win32,59.60185958,482.8571,483.8564,,,,,,,,,,,,,,,,,,,,,,,,,,483.8565,484.4894,m,1,0.6084,,484.4894,484.4895,,0,215,215,7,1,8,hizmet,3023,137.3531,2689,0.294,6,harmonic,1.75,word,m,,,,,,,
,,,,,,,,,,,deniz,001,2023-11-07_23h03.36.585,vowel_harmony,2023.2.3,Win32,59.60185958,484.4902,485.4895,,,,,,,,,,,,,,,,,,,,,,,,,,485.4895,486.1447,z,1,0.6335,,486.1447,486.1448,,0,216,216,327,1,328,parkeş,,,,,6,notharmonic,1.9,nw,z,,,,,,,
,,,,,,,,,,,deniz,001,2023-11-07_23h03.36.585,vowel_harmony,2023.2.3,Win32,59.60185958,486.145,487.1458,,,,,,,,,,,,,,,,,,,,,,,,,,487.1458,487.9443,z,1,0.7822,,487.9443,487.9444,,0,217,217,279,1,280,tadde,,,,,5,notharmonic,1.8,nw,z,,,,,,,
,,,,,,,,,,,deniz,001,2023-11-07_23h03.36.585,vowel_harmony,2023.2.3,Win32,59.60185958,487.9447,488.9382,,,,,,,,,,,,,,,,,,,,,,,,,,488.9382,489.5102,z,1,0.5506,,489.5103,489.5104,,0,218,218,191,1,192,doab,,,,,4,harmonic,2,nw,z,,,,,,,
,,,,,,,,,,,deniz,001,2023-11-07_23h03.36.585,vowel_harmony,2023.2.3,Win32,59.60185958,489.5106,490.5047,,,,,,,,,,,,,,,,,,,,,,,,,,490.5049,490.9715,z,1,0.4369,,490.9716,490.9716,,0,219,219,232,1,233,kanur,,,,,5,harmonic,1.7,nw,z,,,,,,,
,,,,,,,,,,,deniz,001,2023-11-07_23h03.36.585,vowel_harmony,2023.2.3,Win32,59.60185958,490.9723,491.9751,,,,,,,,,,,,,,,,,,,,,,,,,,491.9751,492.6107,z,1,0.6179,,492.6108,492.6109,,0,220,220,347,1,348,tekram,,,,,6,notharmonic,1.95,nw,z,,,,,,,
,,,,,,,,,,,deniz,001,2023-11-07_23h03.36.585,vowel_harmony,2023.2.3,Win32,59.60185958,492.6112,493.6042,,,,,,,,,,,,,,,,,,,,,,,,,,493.6042,494.1541,z,0,0.5247,,494.1542,494.1543,,0,221,221,9,1,10,karar,8108,368.3954,7436,0.8129,5,harmonic,1.6,word,m,,,,,,,
,,,,,,,,,,,deniz,001,2023-11-07_23h03.36.585,vowel_harmony,2023.2.3,Win32,59.60185958,494.1549,495.154,,,,,,,,,,,,,,,,,,,,,,,,,,495.1541,496.0535,z,1,0.8723,,496.0536,496.0539,,0,222,222,255,1,256,yokın,,,,,5,harmonic,1.85,nw,z,,,,,,,
,,,,,,,,,,,deniz,001,2023-11-07_23h03.36.585,vowel_harmony,2023.2.3,Win32,59.60185958,496.0549,497.0598,,,,,,,,,,,,,,,,,,,,,,,,,,497.0598,497.8032,m,1,0.7256,,497.8033,497.8035,,0,223,223,32,1,33,temel,4231,192.2399,3851,0.421,5,harmonic,1.55,word,m,,,,,,,
,,,,,,,,,,,deniz,001,2023-11-07_23h03.36.585,vowel_harmony,2023.2.3,Win32,59.60185958,497.8043,498.8032,,,,,,,,,,,,,,,,,,,,,,,,,,498.8032,499.9862,z,1,1.1507,,499.9862,499.9864,,0,224,224,320,1,321,finak,,,,,5,notharmonic,1.85,nw,z,,,,,,,
,,,,,,,,,,,deniz,001,2023-11-07_23h03.36.585,vowel_harmony,2023.2.3,Win32,59.60185958,499.9874,500.9748,,,,,,,,,,,,,,,,,,,,,,,,,,500.9749,502.0264,m,1,1.0353,,502.0264,502.0265,,0,225,225,101,1,102,imza,1358,61.7021,1253,0.137,4,notharmonic,1.65,word,m,,,,,,,
,,,,,,,,,,,deniz,001,2023-11-07_23h03.36.585,vowel_harmony,2023.2.3,Win32,59.60185958,502.0268,503.0189,,,,,,,,,,,,,,,,,,,,,,,,,,503.0189,504.0406,z,0,1.0003,,504.0407,504.0407,,0,226,226,166,1,167,maden,402,18.2653,339,0.0371,5,notharmonic,1.45,word,m,,,,,,,
,,,,,,,,,,,deniz,001,2023-11-07_23h03.36.585,vowel_harmony,2023.2.3,Win32,59.60185958,504.0411,505.0351,,,,,,,,,,,,,,,,,,,,,,,,,,505.0351,506.0068,z,1,0.9503,,506.0068,506.0069,,0,227,227,355,1,356,adül,,,,,4,notharmonic,1.85,nw,z,,,,,,,
,,,,,,,,,,,deniz,001,2023-11-07_23h03.36.585,vowel_harmony,2023.2.3,Win32,59.60185958,506.0071,507.0019,,,,,,,,,,,,,,,,,,,,,,,,,,507.0021,507.575,m,1,0.5503,,507.5751,507.5751,,0,228,228,135,1,136,hafif,3355,152.4379,3101,0.339,5,notharmonic,1.75,word,m,,,,,,,
,,,,,,,,,,,deniz,001,2023-11-07_23h03.36.585,vowel_harmony,2023.2.3,Win32,59.60185958,507.5753,508.5679,,,,,,,,,,,,,,,,,,,,,,,,,,508.568,509.4232,z,1,0.8333,,509.4232,509.4239,,0,229,229,297,1,298,sapet,,,,,5,notharmonic,1.85,nw,z,,,,,,,
,,,,,,,,,,,deniz,001,2023-11-07_23h03.36.585,vowel_harmony,2023.2.3,Win32,59.60185958,509.4241,510.4174,,,,,,,,,,,,,,,,,,,,,,,,,,510.4174,511.1232,z,1,0.684,,511.1232,511.1233,,0,230,230,182,1,183,orsın,,,,,5,harmonic,1.95,nw,z,,,,,,,
,,,,,,,,,,,deniz,001,2023-11-07_23h03.36.585,vowel_harmony,2023.2.3,Win32,59.60185958,511.1235,512.1237,,,,,,,,,,,,,,,,,,,,,,,,,,512.1238,513.056,m,1,0.9167,,513.0561,513.0562,,0,231,231,149,1,150,ceza,2611,118.6335,2169,0.2371,4,notharmonic,1.5,word,m,,,,,,,
,,,,,,,,,,,deniz,001,2023-11-07_23h03.36.585,vowel_harmony,2023.2.3,Win32,59.60185958,513.0565,514.0546,,,,,,,,,,,,,,,,,,,,,,,,,,514.0546,514.8388,z,1,0.7664,,514.8389,514.839,,0,232,232,302,1,303,işgar,,,,,5,notharmonic,1.9,nw,z,,,,,,,
,,,,,,,,,,,deniz,001,2023-11-07_23h03.36.585,vowel_harmony,2023.2.3,Win32,59.60185958,514.8391,515.8334,,,,,,,,,,,,,,,,,,,,,,,,,,515.8334,516.4556,m,1,0.6004,,516.4556,516.4557,,0,233,233,136,1,137,beyaz,5517,250.6706,4788,0.5234,5,notharmonic,1.85,word,m,,,,,,,
,,,,,,,,,,,deniz,001,2023-11-07_23h03.36.585,vowel_harmony,2023.2.3,Win32,59.60185958,516.456,517.4501,,,,,,,,,,,,,,,,,,,,,,,,,,517.4502,518.0331,m,1,0.5508,,518.0331,518.0334,,0,234,234,84,1,85,ülke,3121,141.8059,2801,0.3062,4,harmonic,1.65,word,m,,,,,,,
,,,,,,,,,,,deniz,001,2023-11-07_23h03.36.585,vowel_harmony,2023.2.3,Win32,59.60185958,518.0345,519.0328,,,,,,,,,,,,,,,,,,,,,,,,,,519.0328,519.8048,z,1,0.7501,,519.8048,519.8049,,0,235,235,186,1,187,habık,,,,,5,harmonic,1.9,nw,z,,,,,,,
,,,,,,,,,,,deniz,001,2023-11-07_23h03.36.585,vowel_harmony,2023.2.3,Win32,59.60185958,519.8052,520.7992,,,,,,,,,,,,,,,,,,,,,,,,,,520.7993,521.8332,z,1,1.0025,,521.8335,521.8337,,0,236,236,275,1,276,tahçe,,,,,5,notharmonic,1.95,nw,z,,,,,,,
,,,,,,,,,,,deniz,001,2023-11-07_23h03.36.585,vowel_harmony,2023.2.3,Win32,59.60185958,521.834,522.832,,,,,,,,,,,,,,,,,,,,,,,,,,522.832,523.4152,z,0,0.5562,,523.4152,523.4153,,0,237,237,78,1,79,ulusal,1551,70.4713,1355,0.1481,6,harmonic,1.75,word,m,,,,,,,
,,,,,,,,,,,deniz,001,2023-11-07_23h03.36.585,vowel_harmony,2023.2.3,Win32,59.60185958,523.4159,524.4147,,,,,,,,,,,,,,,,,,,,,,,,,,524.4147,525.1702,z,1,0.7336,,525.1703,525.1704,,0,238,238,269,1,270,vekü,,,,,4,harmonic,2,nw,z,,,,,,,
,,,,,,,,,,,deniz,001,2023-11-07_23h03.36.585,vowel_harmony,2023.2.3,Win32,59.60185958,525.1707,526.1674,,,,,,,,,,,,,,,,,,,,,,,,,,526.1674,527.5051,z,1,1.3189,,527.5051,527.5051,,0,239,239,271,1,272,mimal,,,,,5,notharmonic,1.8,nw,z,,,,,,,
,,,,,,,,,,,deniz,001,2023-11-07_23h03.36.585,vowel_harmony,2023.2.3,Win32,59.60185958,527.5195,528.5189,,,,,,,,,,,,,,,,,,,,,,,,,,528.5189,529.3032,m,1,0.7671,,529.3033,545.3939,space,0,240,240,133,1,134,taze,2268,103.0489,2062,0.2254,4,notharmonic,1.65,word,m,16.0683,,,,,,
,,,,,,,,,,,deniz,001,2023-11-07_23h03.36.585,vowel_harmony,2023.2.3,Win32,59.60185958,545.4039,546.394,,,,,,,,,,,,,,,,,,,,,,,,,,546.3941,547.1038,m,1,0.6879,,547.1038,547.1039,,0,241,241,10,1,11,bardak,1728,78.5135,1569,0.1715,6,harmonic,1.6,word,m,,,,,,,
,,,,,,,,,,,deniz,001,2023-11-07_23h03.36.585,vowel_harmony,2023.2.3,Win32,59.60185958,547.1041,548.0986,,,,,,,,,,,,,,,,,,,,,,,,,,548.0987,548.6771,m,1,0.5537,,548.6772,548.6772,,0,242,242,22,1,23,anlam,1730,78.6043,1617,0.1768,5,harmonic,1.25,word,m,,,,,,,
,,,,,,,,,,,deniz,001,2023-11-07_23h03.36.585,vowel_harmony,2023.2.3,Win32,59.60185958,548.6779,549.682,,,,,,,,,,,,,,,,,,,,,,,,,,549.682,550.1268,m,1,0.4236,,550.1269,550.127,,0,243,243,103,1,104,tane,5623,255.4868,5075,0.5548,4,notharmonic,1.3,word,m,,,,,,,
,,,,,,,,,,,deniz,001,2023-11-07_23h03.36.585,vowel_harmony,2023.2.3,Win32,59.60185958,550.1276,551.1318,,,,,,,,,,,,,,,,,,,,,,,,,,551.1318,551.7495,z,1,0.6011,,551.7496,551.7497,,0,244,244,319,1,320,biho,,,,,4,notharmonic,2,nw,z,,,,,,,
,,,,,,,,,,,deniz,001,2023-11-07_23h03.36.585,vowel_harmony,2023.2.3,Win32,59.60185958,551.7502,552.7434,,,,,,,,,,,,,,,,,,,,,,,,,,552.7437,553.3479,z,1,0.5823,,553.348,553.348,,0,245,245,324,1,325,pakeh,,,,,5,notharmonic,1.9,nw,z,,,,,,,
,,,,,,,,,,,deniz,001,2023-11-07_23h03.36.585,vowel_harmony,2023.2.3,Win32,59.60185958,553.3483,554.3454,,,,,,,,,,,,,,,,,,,,,,,,,,554.3454,554.9308,z,1,0.5668,,554.9309,554.931,,0,246,246,293,1,294,esnan,,,,,5,notharmonic,1.85,nw,z,,,,,,,
,,,,,,,,,,,deniz,001,2023-11-07_23h03.36.585,vowel_harmony,2023.2.3,Win32,59.60185958,554.9313,555.9257,,,,,,,,,,,,,,,,,,,,,,,,,,555.9257,557.076,m,1,1.1261,,557.0762,557.0768,,0,247,247,0,1,1,sanat,3121,141.8059,2485,0.2717,5,harmonic,1.4,word,m,,,,,,,
,,,,,,,,,,,deniz,001,2023-11-07_23h03.36.585,vowel_harmony,2023.2.3,Win32,59.60185958,557.0774,558.0751,,,,,,,,,,,,,,,,,,,,,,,,,,558.0751,558.6638,m,1,0.5673,,558.6638,558.6638,,0,248,248,13,1,14,nokta,2085,94.7341,1939,0.212,5,harmonic,1.5,word,m,,,,,,,
,,,,,,,,,,,deniz,001,2023-11-07_23h03.36.585,vowel_harmony,2023.2.3,Win32,59.60185958,558.6641,559.6583,,,,,,,,,,,,,,,,,,,,,,,,,,559.6583,560.2633,z,1,0.5837,,560.2633,560.2634,,0,249,249,187,1,188,remrin,,,,,6,harmonic,1.9,nw,z,,,,,,,
,,,,,,,,,,,deniz,001,2023-11-07_23h03.36.585,vowel_harmony,2023.2.3,Win32,59.60185958,560.2636,561.2579,,,,,,,,,,,,,,,,,,,,,,,,,,561.2579,561.9508,m,1,0.6713,,561.9509,561.9509,,0,250,250,125,1,126,ikna,1276,57.9764,1173,0.1282,4,notharmonic,1.85,word,m,,,,,,,
,,,,,,,,,,,deniz,001,2023-11-07_23h03.36.585,vowel_harmony,2023.2.3,Win32,59.60185958,561.9511,562.9408,,,,,,,,,,,,,,,,,,,,,,,,,,562.9408,563.5575,z,1,0.5873,,563.5576,563.5576,,0,251,251,201,1,202,ergiy,,,,,5,harmonic,1.85,nw,z,,,,,,,
,,,,,,,,,,,deniz,001,2023-11-07_23h03.36.585,vowel_harmony,2023.2.3,Win32,59.60185958,563.5582,564.5568,,,,,,,,,,,,,,,,,,,,,,,,,,564.5568,565.2567,z,1,0.668,,565.2567,565.2568,,0,252,252,339,1,340,asmel,,,,,5,notharmonic,1.95,nw,z,,,,,,,
,,,,,,,,,,,deniz,001,2023-11-07_23h03.36.585,vowel_harmony,2023.2.3,Win32,59.60185958,565.2574,566.2569,,,,,,,,,,,,,,,,,,,,,,,,,,566.2569,567.0802,z,1,0.802,,567.0803,567.0804,,0,253,253,344,1,345,barika,,,,,6,notharmonic,1.75,nw,z,,,,,,,
,,,,,,,,,,,deniz,001,2023-11-07_23h03.36.585,vowel_harmony,2023.2.3,Win32,59.60185958,567.0807,568.0733,,,,,,,,,,,,,,,,,,,,,,,,,,568.0734,569.1561,m,1,1.0564,,569.1562,569.1563,,0,254,254,77,1,78,ufak,3252,147.758,2980,0.3258,4,harmonic,1.5,word,m,,,,,,,
,,,,,,,,,,,deniz,001,2023-11-07_23h03.36.585,vowel_harmony,2023.2.3,Win32,59.60185958,569.1568,570.1563,,,,,,,,,,,,,,,,,,,,,,,,,,570.1563,570.7556,z,1,0.5726,,570.7556,570.7557,,0,255,255,299,1,300,fihal,,,,,5,notharmonic,1.95,nw,z,,,,,,,
,,,,,,,,,,,deniz,001,2023-11-07_23h03.36.585,vowel_harmony,2023.2.3,Win32,59.60185958,570.7563,571.7561,,,,,,,,,,,,,,,,,,,,,,,,,,571.7562,572.4614,z,1,0.6837,,572.4614,572.4616,,0,256,256,199,1,200,movu,,,,,4,harmonic,1.9,nw,z,,,,,,,
,,,,,,,,,,,deniz,001,2023-11-07_23h03.36.585,vowel_harmony,2023.2.3,Win32,59.60185958,572.4627,573.4553,,,,,,,,,,,,,,,,,,,,,,,,,,573.4553,574.0552,z,1,0.5726,,574.0553,574.0553,,0,257,257,252,1,253,anlgı,,,,,5,harmonic,1.9,nw,z,,,,,,,
,,,,,,,,,,,deniz,001,2023-11-07_23h03.36.585,vowel_harmony,2023.2.3,Win32,59.60185958,574.056,575.0552,,,,,,,,,,,,,,,,,,,,,,,,,,575.0552,575.6381,z,1,0.5498,,575.6382,575.6383,,0,258,258,205,1,206,kahay,,,,,5,harmonic,1.9,nw,z,,,,,,,
,,,,,,,,,,,deniz,001,2023-11-07_23h03.36.585,vowel_harmony,2023.2.3,Win32,59.60185958,575.6388,576.6381,,,,,,,,,,,,,,,,,,,,,,,,,,576.6381,577.1609,z,1,0.5012,,577.161,577.1611,,0,259,259,244,1,245,kaof,,,,,4,harmonic,1.9,nw,z,,,,,,,
,,,,,,,,,,,deniz,001,2023-11-07_23h03.36.585,vowel_harmony,2023.2.3,Win32,59.60185958,577.1613,578.1544,,,,,,,,,,,,,,,,,,,,,,,,,,578.1544,578.5044,z,1,0.3196,,578.5044,578.5045,,0,260,260,270,1,271,miyaj,,,,,5,notharmonic,1.9,nw,z,,,,,,,
,,,,,,,,,,,deniz,001,2023-11-07_23h03.36.585,vowel_harmony,2023.2.3,Win32,59.60185958,578.5051,579.5042,,,,,,,,,,,,,,,,,,,,,,,,,,579.5042,580.1212,m,1,0.5885,,580.1213,580.1215,,0,261,261,108,1,109,tarih,2806,127.4935,2483,0.2714,5,notharmonic,1.55,word,m,,,,,,,
,,,,,,,,,,,deniz,001,2023-11-07_23h03.36.585,vowel_harmony,2023.2.3,Win32,59.60185958,580.1224,581.1259,,,,,,,,,,,,,,,,,,,,,,,,,,581.1259,581.8767,z,1,0.7343,,581.8768,581.8768,,0,262,262,208,1,209,yayram,,,,,6,harmonic,1.85,nw,z,,,,,,,
,,,,,,,,,,,deniz,001,2023-11-07_23h03.36.585,vowel_harmony,2023.2.3,Win32,59.60185958,581.8771,582.8701,,,,,,,,,,,,,,,,,,,,,,,,,,582.8702,583.5919,z,1,0.6997,,583.5919,583.592,,0,263,263,230,1,231,bikir,,,,,5,harmonic,1.75,nw,z,,,,,,,
,,,,,,,,,,,deniz,001,2023-11-07_23h03.36.585,vowel_harmony,2023.2.3,Win32,59.60185958,583.5922,584.5865,,,,,,,,,,,,,,,,,,,,,,,,,,584.5866,585.1864,m,1,0.5695,,585.1864,585.1865,,0,264,264,73,1,74,millet,1658,75.3329,1508,0.1649,6,harmonic,1.7,word,m,,,,,,,
,,,,,,,,,,,deniz,001,2023-11-07_23h03.36.585,vowel_harmony,2023.2.3,Win32,59.60185958,585.1871,586.1863,,,,,,,,,,,,,,,,,,,,,,,,,,586.1863,586.8592,m,1,0.6511,,586.8592,586.8594,,0,265,265,35,1,36,hava,4975,226.0443,4398,0.4808,4,harmonic,1,word,m,,,,,,,
,,,,,,,,,,,deniz,001,2023-11-07_23h03.36.585,vowel_harmony,2023.2.3,Win32,59.60185958,586.8598,587.8524,,,,,,,,,,,,,,,,,,,,,,,,,,587.8524,588.558,z,1,0.6837,,588.5581,588.5581,,0,266,266,253,1,254,meslet,,,,,6,harmonic,1.85,nw,z,,,,,,,
,,,,,,,,,,,deniz,001,2023-11-07_23h03.36.585,vowel_harmony,2023.2.3,Win32,59.60185958,588.5585,589.5521,,,,,,,,,,,,,,,,,,,,,,,,,,589.5521,590.0575,m,1,0.4836,,590.0575,590.0575,,0,267,267,155,1,156,ilaç,1366,62.0656,1215,0.1328,4,notharmonic,1.75,word,m,,,,,,,
,,,,,,,,,,,deniz,001,2023-11-07_23h03.36.585,vowel_harmony,2023.2.3,Win32,59.60185958,590.0577,591.0522,,,,,,,,,,,,,,,,,,,,,,,,,,591.0523,592.0925,z,1,1.0184,,592.0926,592.0928,,0,268,268,322,1,323,normin,,,,,6,notharmonic,1.95,nw,z,,,,,,,
,,,,,,,,,,,deniz,001,2023-11-07_23h03.36.585,vowel_harmony,2023.2.3,Win32,59.60185958,592.0936,593.0848,,,,,,,,,,,,,,,,,,,,,,,,,,593.0849,593.8683,z,1,0.7532,,593.8684,593.8685,,0,269,269,289,1,290,karmen,,,,,6,notharmonic,1.75,nw,z,,,,,,,
,,,,,,,,,,,deniz,001,2023-11-07_23h03.36.585,vowel_harmony,2023.2.3,Win32,59.60185958,593.8692,594.8732,,,,,,,,,,,,,,,,,,,,,,,,,,594.8732,595.4843,m,1,0.5922,,595.4843,595.4846,,0,270,270,174,1,175,bugün,13879,630.6067,12842,1.4039,5,notharmonic,1.85,word,m,,,,,,,
,,,,,,,,,,,deniz,001,2023-11-07_23h03.36.585,vowel_harmony,2023.2.3,Win32,59.60185958,595.4853,596.4841,,,,,,,,,,,,,,,,,,,,,,,,,,596.4841,597.767,m,1,1.2608,,597.7671,597.7676,,0,271,271,153,1,154,inşaat,432,19.6284,376,0.0411,6,notharmonic,1.6,word,m,,,,,,,
,,,,,,,,,,,deniz,001,2023-11-07_23h03.36.585,vowel_harmony,2023.2.3,Win32,59.60185958,597.776,598.7673,,,,,,,,,,,,,,,,,,,,,,,,,,598.7673,599.4056,m,1,0.6173,,599.4056,599.4057,,0,272,272,75,1,76,roman,1499,68.1086,1281,0.14,5,harmonic,1.6,word,m,,,,,,,
,,,,,,,,,,,deniz,001,2023-11-07_23h03.36.585,vowel_harmony,2023.2.3,Win32,59.60185958,599.4059,600.4003,,,,,,,,,,,,,,,,,,,,,,,,,,600.4004,601.0723,m,1,0.6502,,601.0724,601.0724,,0,273,273,44,1,45,kayıt,1234,56.0681,1058,0.1157,5,harmonic,1.35,word,m,,,,,,,
,,,,,,,,,,,deniz,001,2023-11-07_23h03.36.585,vowel_harmony,2023.2.3,Win32,59.60185958,601.0727,602.0722,,,,,,,,,,,,,,,,,,,,,,,,,,602.0722,602.6497,z,1,0.5576,,602.6498,602.6502,,0,274,274,214,1,215,vecü,,,,,4,harmonic,1.95,nw,z,,,,,,,
,,,,,,,,,,,deniz,001,2023-11-07_23h03.36.585,vowel_harmony,2023.2.3,Win32,59.60185958,602.6512,603.6526,,,,,,,,,,,,,,,,,,,,,,,,,,603.6526,604.4161,z,1,0.7428,,604.4162,604.4163,,0,275,275,351,1,352,seğlık,,,,,6,notharmonic,1.9,nw,z,,,,,,,
,,,,,,,,,,,deniz,001,2023-11-07_23h03.36.585,vowel_harmony,2023.2.3,Win32,59.60185958,604.4171,605.4158,,,,,,,,,,,,,,,,,,,,,,,,,,605.4158,606.216,m,1,0.7666,,606.2162,606.2164,,0,276,276,58,1,59,ayak,2143,97.3694,1931,0.2111,4,harmonic,1,word,m,,,,,,,
,,,,,,,,,,,deniz,001,2023-11-07_23h03.36.585,vowel_harmony,2023.2.3,Win32,59.60185958,606.2174,607.2222,,,,,,,,,,,,,,,,,,,,,,,,,,607.2222,607.8987,m,1,0.6486,,607.8988,607.8989,,0,277,277,131,1,132,hakim,1677,76.1962,1559,0.1704,5,notharmonic,1,word,m,,,,,,,
,,,,,,,,,,,deniz,001,2023-11-07_23h03.36.585,vowel_harmony,2023.2.3,Win32,59.60185958,607.8995,608.8982,,,,,,,,,,,,,,,,,,,,,,,,,,608.8983,609.7151,z,1,0.7893,,609.7152,609.7154,,0,278,278,295,1,296,haylin,,,,,6,notharmonic,1.8,nw,z,,,,,,,
,,,,,,,,,,,deniz,001,2023-11-07_23h03.36.585,vowel_harmony,2023.2.3,Win32,59.60185958,609.716,610.7147,,,,,,,,,,,,,,,,,,,,,,,,,,610.7148,611.3861,m,1,0.6496,,611.3862,611.3862,,0,279,279,92,1,93,sahne,1380,62.7017,1238,0.1353,5,notharmonic,1.65,word,m,,,,,,,
,,,,,,,,,,,deniz,001,2023-11-07_23h03.36.585,vowel_harmony,2023.2.3,Win32,59.60185958,611.3865,612.3814,,,,,,,,,,,,,,,,,,,,,,,,,,612.3814,612.9669,m,1,0.5625,,612.9669,612.9669,,0,280,280,115,1,116,saniye,1088,49.4344,984,0.1076,6,notharmonic,1.35,word,m,,,,,,,
,,,,,,,,,,,deniz,001,2023-11-07_23h03.36.585,vowel_harmony,2023.2.3,Win32,59.60185958,612.9673,613.9668,,,,,,,,,,,,,,,,,,,,,,,,,,613.9668,614.7138,z,1,0.7178,,614.7138,614.7141,,0,281,281,202,1,203,güvin,,,,,5,harmonic,1.95,nw,z,,,,,,,
,,,,,,,,,,,deniz,001,2023-11-07_23h03.36.585,vowel_harmony,2023.2.3,Win32,59.60185958,614.7152,615.7138,,,,,,,,,,,,,,,,,,,,,,,,,,615.7138,616.6663,m,1,0.9309,,616.6663,616.6664,,0,282,282,160,1,161,hakem,603,27.3979,473,0.0517,5,notharmonic,1.3,word,m,,,,,,,
,,,,,,,,,,,deniz,001,2023-11-07_23h03.36.585,vowel_harmony,2023.2.3,Win32,59.60185958,616.6667,617.6636,,,,,,,,,,,,,,,,,,,,,,,,,,617.6636,618.1798,m,1,0.4885,,618.1798,618.1799,,0,283,283,145,1,146,iddia,2430,110.4096,2295,0.2509,5,notharmonic,1.85,word,m,,,,,,,
,,,,,,,,,,,deniz,001,2023-11-07_23h03.36.585,vowel_harmony,2023.2.3,Win32,59.60185958,618.1805,619.1797,,,,,,,,,,,,,,,,,,,,,,,,,,619.1797,619.613,m,1,0.404,,619.613,619.6131,,0,284,284,43,1,44,geniş,3380,153.5738,3185,0.3482,5,harmonic,1.35,word,m,,,,,,,
,,,,,,,,,,,deniz,001,2023-11-07_23h03.36.585,vowel_harmony,2023.2.3,Win32,59.60185958,619.6138,620.6128,,,,,,,,,,,,,,,,,,,,,,,,,,620.6128,621.3125,z,1,0.6748,,621.3125,621.3126,,0,285,285,231,1,232,norgun,,,,,6,harmonic,1.75,nw,z,,,,,,,
,,,,,,,,,,,deniz,001,2023-11-07_23h03.36.585,vowel_harmony,2023.2.3,Win32,59.60185958,621.3133,622.3019,,,,,,,,,,,,,,,,,,,,,,,,,,622.3019,622.7959,m,1,0.4731,,622.7959,622.7963,,0,286,286,36,1,37,meslek,1082,49.1618,976,0.1067,6,harmonic,1.9,word,m,,,,,,,
,,,,,,,,,,,deniz,001,2023-11-07_23h03.36.585,vowel_harmony,2023.2.3,Win32,59.60185958,622.7972,623.8008,,,,,,,,,,,,,,,,,,,,,,,,,,623.8009,624.5669,z,1,0.7493,,624.5669,624.5671,,0,287,287,359,1,360,kardez,,,,,6,notharmonic,1.95,nw,z,,,,,,,
,,,,,,,,,,,deniz,001,2023-11-07_23h03.36.585,vowel_harmony,2023.2.3,Win32,59.60185958,624.5673,625.5615,,,,,,,,,,,,,,,,,,,,,,,,,,625.5616,626.3117,z,1,0.724,,626.3117,626.3117,,0,288,288,338,1,339,pardön,,,,,6,notharmonic,1.95,nw,z,,,,,,,
,,,,,,,,,,,deniz,001,2023-11-07_23h03.36.585,vowel_harmony,2023.2.3,Win32,59.60185958,626.3124,627.3018,,,,,,,,,,,,,,,,,,,,,,,,,,627.3018,627.9448,z,1,0.6159,,627.9448,627.945,,0,289,289,358,1,359,yangin,,,,,6,notharmonic,1.9,nw,z,,,,,,,
,,,,,,,,,,,deniz,001,2023-11-07_23h03.36.585,vowel_harmony,2023.2.3,Win32,59.60185958,627.9455,628.9445,,,,,,,,,,,,,,,,,,,,,,,,,,628.9446,630.5942,m,1,1.6212,,630.5942,630.5943,,0,290,290,162,1,163,hariç,1267,57.5675,1233,0.1348,5,notharmonic,1.75,word,m,,,,,,,
,,,,,,,,,,,deniz,001,2023-11-07_23h03.36.585,vowel_harmony,2023.2.3,Win32,59.60185958,630.5949,631.5991,,,,,,,,,,,,,,,,,,,,,,,,,,631.5991,632.4675,z,1,0.8515,,632.4675,632.4676,,0,291,291,261,1,262,kardok,,,,,6,harmonic,1.95,nw,z,,,,,,,
,,,,,,,,,,,deniz,001,2023-11-07_23h03.36.585,vowel_harmony,2023.2.3,Win32,59.60185958,632.4679,633.4604,,,,,,,,,,,,,,,,,,,,,,,,,,633.4605,634.3103,m,0,0.823,,634.3104,634.3105,,0,292,292,308,1,309,hafer,,,,,5,notharmonic,1.85,nw,z,,,,,,,
,,,,,,,,,,,deniz,001,2023-11-07_23h03.36.585,vowel_harmony,2023.2.3,Win32,59.60185958,634.3111,635.3154,,,,,,,,,,,,,,,,,,,,,,,,,,635.3154,636.2485,z,1,0.9166,,636.2485,636.2486,,0,293,293,333,1,334,heyran,,,,,6,notharmonic,1.85,nw,z,,,,,,,
,,,,,,,,,,,deniz,001,2023-11-07_23h03.36.585,vowel_harmony,2023.2.3,Win32,59.60185958,636.2488,637.2435,,,,,,,,,,,,,,,,,,,,,,,,,,637.2436,637.8762,m,1,0.5987,,637.8762,637.8762,,0,294,294,40,1,41,tepki,1695,77.0141,1578,0.1725,5,harmonic,1.55,word,m,,,,,,,
,,,,,,,,,,,deniz,001,2023-11-07_23h03.36.585,vowel_harmony,2023.2.3,Win32,59.60185958,637.8769,638.8762,,,,,,,,,,,,,,,,,,,,,,,,,,638.8762,640.3592,m,1,1.454,,640.3592,640.3594,,0,295,295,72,1,73,çorba,1674,76.0599,1513,0.1654,5,harmonic,1.75,word,m,,,,,,,
,,,,,,,,,,,deniz,001,2023-11-07_23h03.36.585,vowel_harmony,2023.2.3,Win32,59.60185958,640.3677,641.3614,,,,,,,,,,,,,,,,,,,,,,,,,,641.3614,641.9845,z,1,0.6036,,641.9846,641.9847,,0,296,296,243,1,244,korguf,,,,,6,harmonic,2,nw,z,,,,,,,
,,,,,,,,,,,deniz,001,2023-11-07_23h03.36.585,vowel_harmony,2023.2.3,Win32,59.60185958,641.985,642.9748,,,,,,,,,,,,,,,,,,,,,,,,,,642.9748,643.6474,m,1,0.6502,,643.6474,643.6475,,0,297,297,25,1,26,rapor,703,31.9415,617,0.0675,5,harmonic,1.8,word,m,,,,,,,
,,,,,,,,,,,deniz,001,2023-11-07_23h03.36.585,vowel_harmony,2023.2.3,Win32,59.60185958,643.6477,644.6416,,,,,,,,,,,,,,,,,,,,,,,,,,644.6416,645.2247,m,1,0.5524,,645.2248,645.225,,0,298,298,128,1,129,tatil,2152,97.7783,1865,0.2039,5,notharmonic,1.7,word,m,,,,,,,
,,,,,,,,,,,deniz,001,2023-11-07_23h03.36.585,vowel_harmony,2023.2.3,Win32,59.60185958,645.2256,646.2244,,,,,,,,,,,,,,,,,,,,,,,,,,646.2244,646.8488,m,1,0.6014,,646.849,646.8493,,0,299,299,173,1,174,sade,1193,54.2052,1114,0.1218,4,notharmonic,1.55,word,m,,,,,,,
,,,,,,,,,,,deniz,001,2023-11-07_23h03.36.585,vowel_harmony,2023.2.3,Win32,59.60185958,646.8496,647.8407,,,,,,,,,,,,,,,,,,,,,,,,,,647.8407,648.4793,z,1,0.6169,,648.4793,648.4793,,0,300,300,189,1,190,düvre,,,,,5,harmonic,1.85,nw,z,,,,,,,
,,,,,,,,,,,deniz,001,2023-11-07_23h03.36.585,vowel_harmony,2023.2.3,Win32,59.60185958,648.4795,649.4787,,,,,,,,,,,,,,,,,,,,,,,,,,649.4787,649.9737,m,1,0.4672,,649.9737,649.9739,,0,301,301,100,1,101,düşman,1065,48.3894,962,0.1052,6,notharmonic,1.85,word,m,,,,,,,
,,,,,,,,,,,deniz,001,2023-11-07_23h03.36.585,vowel_harmony,2023.2.3,Win32,59.60185958,649.9745,650.9738,,,,,,,,,,,,,,,,,,,,,,,,,,650.9739,651.5903,z,1,0.5927,,651.5903,651.5903,,0,302,302,225,1,226,düvem,,,,,5,harmonic,1.7,nw,z,,,,,,,
,,,,,,,,,,,deniz,001,2023-11-07_23h03.36.585,vowel_harmony,2023.2.3,Win32,59.60185958,651.5909,652.5794,,,,,,,,,,,,,,,,,,,,,,,,,,652.5794,653.1955,z,1,0.5959,,653.1956,653.1956,,0,303,303,328,1,329,kirul,,,,,5,notharmonic,1.95,nw,z,,,,,,,
,,,,,,,,,,,deniz,001,2023-11-07_23h03.36.585,vowel_harmony,2023.2.3,Win32,59.60185958,653.1959,654.1898,,,,,,,,,,,,,,,,,,,,,,,,,,654.1898,654.7614,m,1,0.5499,,654.7614,654.7614,,0,304,304,158,1,159,klasik,1871,85.0108,1734,0.1896,6,notharmonic,2,word,m,,,,,,,
,,,,,,,,,,,deniz,001,2023-11-07_23h03.36.585,vowel_harmony,2023.2.3,Win32,59.60185958,654.7617,655.7609,,,,,,,,,,,,,,,,,,,,,,,,,,655.7609,656.3557,z,1,0.5663,,656.3558,656.356,,0,305,305,321,1,322,makih,,,,,5,notharmonic,1.8,nw,z,,,,,,,
,,,,,,,,,,,deniz,001,2023-11-07_23h03.36.585,vowel_harmony,2023.2.3,Win32,59.60185958,656.3566,657.3483,,,,,,,,,,,,,,,,,,,,,,,,,,657.3483,657.8556,z,1,0.4875,,657.8556,657.8558,,0,306,306,290,1,291,aipa,,,,,4,notharmonic,1.95,nw,z,,,,,,,
,,,,,,,,,,,deniz,001,2023-11-07_23h03.36.585,vowel_harmony,2023.2.3,Win32,59.60185958,657.8563,658.8607,,,,,,,,,,,,,,,,,,,,,,,,,,658.8607,659.3886,z,1,0.5007,,659.3887,659.3888,,0,307,307,251,1,252,oştay,,,,,5,harmonic,1.95,nw,z,,,,,,,
,,,,,,,,,,,deniz,001,2023-11-07_23h03.36.585,vowel_harmony,2023.2.3,Win32,59.60185958,659.3897,660.3936,,,,,,,,,,,,,,,,,,,,,,,,,,660.3936,661.1771,z,0,0.767,,661.1771,661.1773,,0,308,308,139,1,140,lira,1253,56.9314,947,0.1035,4,notharmonic,1.4,word,m,,,,,,,
,,,,,,,,,,,deniz,001,2023-11-07_23h03.36.585,vowel_harmony,2023.2.3,Win32,59.60185958,661.1776,662.1806,,,,,,,,,,,,,,,,,,,,,,,,,,662.1807,663.6374,m,1,1.4432,,663.6374,663.6374,,0,309,309,99,1,100,ilave,3173,144.1685,2619,0.2863,5,notharmonic,1.85,word,m,,,,,,,
,,,,,,,,,,,deniz,001,2023-11-07_23h03.36.585,vowel_harmony,2023.2.3,Win32,59.60185958,663.6381,664.6372,,,,,,,,,,,,,,,,,,,,,,,,,,664.6374,665.0875,m,1,0.4264,,665.0876,665.0876,,0,310,310,98,1,99,paket,1532,69.608,1392,0.1522,5,notharmonic,1.55,word,m,,,,,,,
,,,,,,,,,,,deniz,001,2023-11-07_23h03.36.585,vowel_harmony,2023.2.3,Win32,59.60185958,665.0879,666.0875,,,,,,,,,,,,,,,,,,,,,,,,,,666.0875,666.6872,m,1,0.5675,,666.6872,666.6874,,0,311,311,8,1,9,güven,1433,65.1098,1300,0.1421,5,harmonic,1.35,word,m,,,,,,,
,,,,,,,,,,,deniz,001,2023-11-07_23h03.36.585,vowel_harmony,2023.2.3,Win32,59.60185958,666.688,667.6935,,,,,,,,,,,,,,,,,,,,,,,,,,667.6938,668.2755,m,1,0.5618,,668.2755,668.2756,,0,312,312,63,1,64,sultan,1756,79.7857,1368,0.1496,6,harmonic,1.55,word,m,,,,,,,
,,,,,,,,,,,deniz,001,2023-11-07_23h03.36.585,vowel_harmony,2023.2.3,Win32,59.60185958,668.2759,669.2754,,,,,,,,,,,,,,,,,,,,,,,,,,669.2754,670.4363,z,1,1.1426,,670.4364,670.4365,,0,313,313,212,1,213,ortat,,,,,5,harmonic,1.7,nw,z,,,,,,,
,,,,,,,,,,,deniz,001,2023-11-07_23h03.36.585,vowel_harmony,2023.2.3,Win32,59.60185958,670.4371,671.4363,,,,,,,,,,,,,,,,,,,,,,,,,,671.4363,672.7127,z,1,1.2544,,672.7127,672.7128,,0,314,314,207,1,208,örtre,,,,,5,harmonic,1.85,nw,z,,,,,,,
,,,,,,,,,,,deniz,001,2023-11-07_23h03.36.585,vowel_harmony,2023.2.3,Win32,59.60185958,672.7132,673.7024,,,,,,,,,,,,,,,,,,,,,,,,,,673.7025,674.7192,m,1,0.9877,,674.7192,674.7194,,0,315,315,38,1,39,dönem,2820,128.1296,2437,0.2664,5,harmonic,1.4,word,m,,,,,,,
,,,,,,,,,,,deniz,001,2023-11-07_23h03.36.585,vowel_harmony,2023.2.3,Win32,59.60185958,674.7199,675.719,,,,,,,,,,,,,,,,,,,,,,,,,,675.719,676.2737,m,1,0.5332,,676.2737,676.2738,,0,316,316,168,1,169,kilo,3389,153.9827,2646,0.2893,4,notharmonic,1.65,word,m,,,,,,,
,,,,,,,,,,,deniz,001,2023-11-07_23h03.36.585,vowel_harmony,2023.2.3,Win32,59.60185958,676.274,677.276,,,,,,,,,,,,,,,,,,,,,,,,,,677.2761,677.7432,z,0,0.4509,,677.7434,677.7439,,0,317,317,165,1,166,gazete,1402,63.7013,1270,0.1388,6,notharmonic,1.8,word,m,,,,,,,
,,,,,,,,,,,deniz,001,2023-11-07_23h03.36.585,vowel_harmony,2023.2.3,Win32,59.60185958,677.7445,678.7345,,,,,,,,,,,,,,,,,,,,,,,,,,678.7345,679.34,m,0,0.5833,,679.34,679.3402,,0,318,318,316,1,317,misaf,,,,,5,notharmonic,1.85,nw,z,,,,,,,
,,,,,,,,,,,deniz,001,2023-11-07_23h03.36.585,vowel_harmony,2023.2.3,Win32,59.60185958,679.3404,680.3344,,,,,,,,,,,,,,,,,,,,,,,,,,680.3344,681.2897,z,1,0.9335,,681.2897,681.2898,,0,319,319,254,1,255,millek,,,,,6,harmonic,1.8,nw,z,,,,,,,
,,,,,,,,,,,deniz,001,2023-11-07_23h03.36.585,vowel_harmony,2023.2.3,Win32,59.60185958,681.2901,682.2842,,,,,,,,,,,,,,,,,,,,,,,,,,682.2842,683.1506,m,1,0.8334,,683.1506,683.1507,,0,320,320,79,1,80,durum,6783,308.1926,6431,0.703,5,harmonic,1.7,word,m,,,,,,,
,,,,,,,,,,,deniz,001,2023-11-07_23h03.36.585,vowel_harmony,2023.2.3,Win32,59.60185958,683.1514,684.1501,,,,,,,,,,,,,,,,,,,,,,,,,,684.1502,684.7719,m,1,0.6002,,684.7719,684.772,,0,321,321,151,1,152,ateş,2108,95.7792,1803,0.1971,4,notharmonic,1.65,word,m,,,,,,,
,,,,,,,,,,,deniz,001,2023-11-07_23h03.36.585,vowel_harmony,2023.2.3,Win32,59.60185958,684.7722,685.7713,,,,,,,,,,,,,,,,,,,,,,,,,,685.7713,686.3222,m,1,0.5343,,686.3222,686.3223,,0,322,322,123,1,124,haber,4559,207.1429,4151,0.4538,5,notharmonic,1.85,word,m,,,,,,,
,,,,,,,,,,,deniz,001,2023-11-07_23h03.36.585,vowel_harmony,2023.2.3,Win32,59.60185958,686.3226,687.32,,,,,,,,,,,,,,,,,,,,,,,,,,687.32,688.4832,m,1,1.1412,,688.4832,688.4834,,0,323,323,178,1,179,dikkat,6230,283.0665,5888,0.6437,6,notharmonic,2.05,word,m,,,,,,,
,,,,,,,,,,,deniz,001,2023-11-07_23h03.36.585,vowel_harmony,2023.2.3,Win32,59.60185958,688.484,689.4825,,,,,,,,,,,,,,,,,,,,,,,,,,689.4825,690.1876,z,1,0.6836,,690.1876,690.1877,,0,324,324,238,1,239,kocı,,,,,4,harmonic,1.95,nw,z,,,,,,,
,,,,,,,,,,,deniz,001,2023-11-07_23h03.36.585,vowel_harmony,2023.2.3,Win32,59.60185958,690.1879,691.1873,,,,,,,,,,,,,,,,,,,,,,,,,,691.1873,691.9729,z,1,0.7686,,691.9729,691.973,,0,325,325,196,1,197,bilön,,,,,5,harmonic,1.9,nw,z,,,,,,,
,,,,,,,,,,,deniz,001,2023-11-07_23h03.36.585,vowel_harmony,2023.2.3,Win32,59.60185958,691.9735,692.9703,,,,,,,,,,,,,,,,,,,,,,,,,,692.9703,693.5206,z,1,0.5332,,693.5207,693.5208,,0,326,326,286,1,287,cedan,,,,,5,notharmonic,1.8,nw,z,,,,,,,
,,,,,,,,,,,deniz,001,2023-11-07_23h03.36.585,vowel_harmony,2023.2.3,Win32,59.60185958,693.521,694.515,,,,,,,,,,,,,,,,,,,,,,,,,,694.515,695.1034,m,1,0.5665,,695.1034,695.1035,,0,327,327,53,1,54,gelir,7578,344.3143,7014,0.7668,5,harmonic,1.4,word,m,,,,,,,
,,,,,,,,,,,deniz,001,2023-11-07_23h03.36.585,vowel_harmony,2023.2.3,Win32,59.60185958,695.1038,696.0978,,,,,,,,,,,,,,,,,,,,,,,,,,696.0978,696.9217,m,1,0.802,,696.9217,696.9218,,0,328,328,87,1,88,mümkün,6604,300.0596,6264,0.6848,6,harmonic,1.9,word,m,,,,,,,
,,,,,,,,,,,deniz,001,2023-11-07_23h03.36.585,vowel_harmony,2023.2.3,Win32,59.60185958,696.9223,697.9142,,,,,,,,,,,,,,,,,,,,,,,,,,697.9142,698.5032,m,1,0.5673,,698.5032,698.5034,,0,329,329,159,1,160,vakit,3476,157.9357,3298,0.3605,5,notharmonic,1.65,word,m,,,,,,,
,,,,,,,,,,,deniz,001,2023-11-07_23h03.36.585,vowel_harmony,2023.2.3,Win32,59.60185958,698.5037,699.4974,,,,,,,,,,,,,,,,,,,,,,,,,,699.4974,699.9363,m,1,0.4173,,699.9364,699.9365,,0,330,330,161,1,162,komik,1617,73.4701,1506,0.1646,5,notharmonic,1.75,word,m,,,,,,,
,,,,,,,,,,,deniz,001,2023-11-07_23h03.36.585,vowel_harmony,2023.2.3,Win32,59.60185958,699.9367,700.9357,,,,,,,,,,,,,,,,,,,,,,,,,,700.9357,701.3471,m,1,0.3882,,701.3472,701.3473,,0,331,331,26,1,27,sebze,1094,49.707,961,0.1051,5,harmonic,1.9,word,m,,,,,,,
,,,,,,,,,,,deniz,001,2023-11-07_23h03.36.585,vowel_harmony,2023.2.3,Win32,59.60185958,701.348,702.3364,,,,,,,,,,,,,,,,,,,,,,,,,,702.3366,702.8467,m,1,0.4866,,702.8467,702.8468,,0,332,332,17,1,18,yakın,7990,363.0339,7595,0.8303,5,harmonic,1.8,word,m,,,,,,,
,,,,,,,,,,,deniz,001,2023-11-07_23h03.36.585,vowel_harmony,2023.2.3,Win32,59.60185958,702.8475,703.8465,,,,,,,,,,,,,,,,,,,,,,,,,,703.8465,704.5133,z,1,0.6399,,704.5134,704.5135,,0,333,333,326,1,327,ailo,,,,,4,notharmonic,1.75,nw,z,,,,,,,
,,,,,,,,,,,deniz,001,2023-11-07_23h03.36.585,vowel_harmony,2023.2.3,Win32,59.60185958,704.5141,705.5181,,,,,,,,,,,,,,,,,,,,,,,,,,705.5181,706.1656,z,1,0.6305,,706.1656,706.1656,,0,334,334,227,1,228,zekö,,,,,4,harmonic,1.9,nw,z,,,,,,,
,,,,,,,,,,,deniz,001,2023-11-07_23h03.36.585,vowel_harmony,2023.2.3,Win32,59.60185958,706.1659,707.1693,,,,,,,,,,,,,,,,,,,,,,,,,,707.1693,707.8289,z,1,0.632,,707.829,707.8291,,0,335,335,317,1,318,mevul,,,,,5,notharmonic,1.95,nw,z,,,,,,,
,,,,,,,,,,,deniz,001,2023-11-07_23h03.36.585,vowel_harmony,2023.2.3,Win32,59.60185958,707.8297,708.8318,,,,,,,,,,,,,,,,,,,,,,,,,,708.8318,710.1119,m,1,1.2584,,710.1119,710.112,,0,336,336,61,1,62,yıldız,1775,80.649,1532,0.1675,6,harmonic,1.6,word,m,,,,,,,
,,,,,,,,,,,deniz,001,2023-11-07_23h03.36.585,vowel_harmony,2023.2.3,Win32,59.60185958,710.1127,711.1141,,,,,,,,,,,,,,,,,,,,,,,,,,711.1141,711.695,z,1,0.5599,,711.695,711.6951,,0,337,337,284,1,285,deval,,,,,5,notharmonic,1.75,nw,z,,,,,,,
,,,,,,,,,,,deniz,001,2023-11-07_23h03.36.585,vowel_harmony,2023.2.3,Win32,59.60185958,711.6957,712.6843,,,,,,,,,,,,,,,,,,,,,,,,,,712.6843,714.0336,m,1,1.332,,714.0336,714.0337,,0,338,338,83,1,84,küçük,14048,638.2854,12467,1.3629,5,harmonic,1.75,word,m,,,,,,,
,,,,,,,,,,,deniz,001,2023-11-07_23h03.36.585,vowel_harmony,2023.2.3,Win32,59.60185958,714.034,715.028,,,,,,,,,,,,,,,,,,,,,,,,,,715.028,715.7443,m,1,0.6893,,715.7444,715.7447,,0,339,339,81,1,82,üretim,1593,72.3796,1283,0.1403,6,harmonic,1.6,word,m,,,,,,,
,,,,,,,,,,,deniz,001,2023-11-07_23h03.36.585,vowel_harmony,2023.2.3,Win32,59.60185958,715.7454,716.753,,,,,,,,,,,,,,,,,,,,,,,,,,716.753,717.2841,m,1,0.5169,,717.2841,717.2842,,0,340,340,150,1,151,sabit,1046,47.5261,915,0.1,5,notharmonic,1.75,word,m,,,,,,,
,,,,,,,,,,,deniz,001,2023-11-07_23h03.36.585,vowel_harmony,2023.2.3,Win32,59.60185958,717.2844,718.2773,,,,,,,,,,,,,,,,,,,,,,,,,,718.2773,718.7825,m,1,0.4837,,718.7825,718.7827,,0,341,341,124,1,125,ilan,1579,71.7435,1499,0.1639,4,notharmonic,1,word,m,,,,,,,
,,,,,,,,,,,deniz,001,2023-11-07_23h03.36.585,vowel_harmony,2023.2.3,Win32,59.60185958,718.7829,719.7768,,,,,,,,,,,,,,,,,,,,,,,,,,719.7768,720.643,m,1,0.8406,,720.643,720.6432,,0,342,342,132,1,133,modern,2326,105.6842,2031,0.222,6,notharmonic,1.85,word,m,,,,,,,
,,,,,,,,,,,deniz,001,2023-11-07_23h03.36.585,vowel_harmony,2023.2.3,Win32,59.60185958,720.6437,721.6316,,,,,,,,,,,,,,,,,,,,,,,,,,721.6316,722.0667,m,0,0.4185,,722.0667,722.0667,,0,343,343,318,1,319,yorgün,,,,,6,notharmonic,1.9,nw,z,,,,,,,
,,,,,,,,,,,deniz,001,2023-11-07_23h03.36.585,vowel_harmony,2023.2.3,Win32,59.60185958,722.067,723.0593,,,,,,,,,,,,,,,,,,,,,,,,,,723.0594,723.6264,m,1,0.5338,,723.6264,723.6266,,0,344,344,154,1,155,sakin,1855,84.2838,1635,0.1787,5,notharmonic,1.05,word,m,,,,,,,
,,,,,,,,,,,deniz,001,2023-11-07_23h03.36.585,vowel_harmony,2023.2.3,Win32,59.60185958,723.6271,724.6256,,,,,,,,,,,,,,,,,,,,,,,,,,724.6256,725.2926,z,1,0.634,,725.2927,725.2929,,0,345,345,181,1,182,rapkı,,,,,5,harmonic,1.85,nw,z,,,,,,,
,,,,,,,,,,,deniz,001,2023-11-07_23h03.36.585,vowel_harmony,2023.2.3,Win32,59.60185958,725.2935,726.2924,,,,,,,,,,,,,,,,,,,,,,,,,,726.2925,727.5649,m,1,1.2508,,727.565,727.565,,0,346,346,117,1,118,nasip,1069,48.5711,1042,0.1139,5,notharmonic,1.8,word,m,,,,,,,
,,,,,,,,,,,deniz,001,2023-11-07_23h03.36.585,vowel_harmony,2023.2.3,Win32,59.60185958,727.5653,728.5586,,,,,,,,,,,,,,,,,,,,,,,,,,728.5587,729.1969,m,1,0.6168,,729.1969,729.197,,0,347,347,147,1,148,işaret,1888,85.7832,1787,0.1954,6,notharmonic,1,word,m,,,,,,,
,,,,,,,,,,,deniz,001,2023-11-07_23h03.36.585,vowel_harmony,2023.2.3,Win32,59.60185958,729.1973,730.1963,,,,,,,,,,,,,,,,,,,,,,,,,,730.1964,731.2912,z,1,1.0691,,731.2912,731.2913,,0,348,348,312,1,313,şahmin,,,,,6,notharmonic,1.8,nw,z,,,,,,,
,,,,,,,,,,,deniz,001,2023-11-07_23h03.36.585,vowel_harmony,2023.2.3,Win32,59.60185958,731.2919,732.2817,,,,,,,,,,,,,,,,,,,,,,,,,,732.2817,732.8464,m,1,0.549,,732.8465,732.8466,,0,349,349,49,1,50,şeker,4708,213.9128,4170,0.4559,5,harmonic,1.6,word,m,,,,,,,
,,,,,,,,,,,deniz,001,2023-11-07_23h03.36.585,vowel_harmony,2023.2.3,Win32,59.60185958,732.8469,733.8409,,,,,,,,,,,,,,,,,,,,,,,,,,733.8409,734.4457,m,1,0.583,,734.4457,734.4458,,0,350,350,140,1,141,sahil,481,21.8547,443,0.0484,5,notharmonic,1.45,word,m,,,,,,,
,,,,,,,,,,,deniz,001,2023-11-07_23h03.36.585,vowel_harmony,2023.2.3,Win32,59.60185958,734.446,735.4453,,,,,,,,,,,,,,,,,,,,,,,,,,735.4453,736.1791,z,1,0.7168,,736.1791,736.1791,,0,351,351,183,1,184,orkın,,,,,5,harmonic,1.9,nw,z,,,,,,,
,,,,,,,,,,,deniz,001,2023-11-07_23h03.36.585,vowel_harmony,2023.2.3,Win32,59.60185958,736.1794,737.1791,,,,,,,,,,,,,,,,,,,,,,,,,,737.1791,737.8569,z,1,0.6545,,737.8569,737.8571,,0,352,352,236,1,237,toklam,,,,,6,harmonic,1.85,nw,z,,,,,,,
,,,,,,,,,,,deniz,001,2023-11-07_23h03.36.585,vowel_harmony,2023.2.3,Win32,59.60185958,737.8577,738.8566,,,,,,,,,,,,,,,,,,,,,,,,,,738.8567,739.412,m,1,0.5337,,739.412,739.4121,,0,353,353,143,1,144,kitap,8359,379.7998,6786,0.7418,5,notharmonic,1.9,word,m,,,,,,,
,,,,,,,,,,,deniz,001,2023-11-07_23h03.36.585,vowel_harmony,2023.2.3,Win32,59.60185958,739.4124,740.4059,,,,,,,,,,,,,,,,,,,,,,,,,,740.4059,741.1057,z,1,0.6674,,741.1057,741.1058,,0,354,354,323,1,324,devak,,,,,5,notharmonic,1.75,nw,z,,,,,,,
,,,,,,,,,,,deniz,001,2023-11-07_23h03.36.585,vowel_harmony,2023.2.3,Win32,59.60185958,741.1064,742.1117,,,,,,,,,,,,,,,,,,,,,,,,,,742.1117,742.8609,z,1,0.7323,,742.8609,742.861,,0,355,355,211,1,212,yarum,,,,,5,harmonic,1.75,nw,z,,,,,,,
,,,,,,,,,,,deniz,001,2023-11-07_23h03.36.585,vowel_harmony,2023.2.3,Win32,59.60185958,742.8612,743.8603,,,,,,,,,,,,,,,,,,,,,,,,,,743.8603,744.4103,z,1,0.5333,,744.4103,744.4103,,0,356,356,310,1,311,yandeş,,,,,6,notharmonic,1.95,nw,z,,,,,,,
,,,,,,,,,,,deniz,001,2023-11-07_23h03.36.585,vowel_harmony,2023.2.3,Win32,59.60185958,744.4106,745.4098,,,,,,,,,,,,,,,,,,,,,,,,,,745.4098,746.1774,m,1,0.7509,,746.1774,746.1774,,0,357,357,50,1,51,kanun,1198,54.4324,1010,0.1104,5,harmonic,1.6,word,m,,,,,,,
,,,,,,,,,,,deniz,001,2023-11-07_23h03.36.585,vowel_harmony,2023.2.3,Win32,59.60185958,746.1777,747.1713,,,,,,,,,,,,,,,,,,,,,,,,,,747.1715,747.68,m,1,0.4848,,747.68,747.6801,,0,358,358,39,1,40,yaygın,1061,48.2076,1019,0.1114,6,harmonic,1.35,word,m,,,,,,,
,,,,,,,,,,,deniz,001,2023-11-07_23h03.36.585,vowel_harmony,2023.2.3,Win32,59.60185958,747.6805,748.6765,,,,,,,,,,,,,,,,,,,,,,,,,,748.6765,749.2212,m,1,0.5171,,749.2212,749.2213,,0,359,359,46,1,47,takım,4370,198.5555,3726,0.4073,5,harmonic,1.7,word,m,,,,,,,
,,,,,,,,,,,deniz,001,2023-11-07_23h03.36.585,vowel_harmony,2023.2.3,Win32,59.60185958,,,,,,,,,,,,,,,,,,,,,,,,,,,,,,,,,,,,,,,,,,,,,,,,,,,,,,,749.2224,751.4095,space,2.1659,