Welcome_screen.started,Welcome_screen.stopped,key_respwelcome.keys,key_respwelcome.rt,key_respwelcome.duration,intro_x.thisRepN,intro_x.thisTrialN,intro_x.thisN,intro_x.thisIndex,intro_x.ran,Introduction,participant,session,date,expName,psychopyVersion,OS,frameRate,Fixation.started,Fixation.stopped,Studypractice.started,Studypractice.stopped,key_respstudy.keys,key_respstudy.corr,key_respstudy.rt,key_respstudy.duration,rt,corr,Feedback.started,Feedback.stopped,practice_loop.thisRepN,practice_loop.thisTrialN,practice_loop.thisN,practice_loop.thisIndex,practice_loop.ran,item_nr_p,target_p,isHarmonic_p,target_cond_p,CorrAns_p,Instraction.started,Instraction.stopped,key_respınstraction.keys,key_respınstraction.rt,key_respınstraction.duration,TestTrial.started,TestTrial.stopped,key_respTest.keys,key_respTest.corr,key_respTest.rt,key_respTest.duration,Pause.started,Pause.stopped,key_resp_xx.keys,test_loop.thisRepN,test_loop.thisTrialN,test_loop.thisN,test_loop.thisIndex,test_loop.ran,item_nr,target,BlogFreq_A1,BlogFreqpm_A1,BlogCD_A1,BlogCDPc_A1,WordLength_A1,isHarmonic_A1,old20,target_cond,CorrAns,key_resp_xx.rt,key_resp_xx.duration,Goodbye_screen.started,Goodbye_screen.stopped,key_respgoodbye.keys,key_respgoodbye.rt,key_respgoodbye.duration
0.029,2.368,space,2.316,,0,0,0,0,1,"Deneye hoş geldiniz,

Devam etmek için BOŞLUK tuşuna basınız.",Kaan Alkır,001,2023-11-09_12h59.47.738,vowel_harmony,2023.2.3,MacIntel,58.82352941,,,,,,,,,,,,,,,,,,,,,,,,,,,,,,,,,,,,,,,,,,,,,,,,,,,,,,,,,,,
2.369,11.711,space,9.288,,0,1,1,1,1,"Bu çalışma Valencia Üniversitesi kapsamında yürütülmektedir. Deneydeki göreviniz, ekrana çıkacak Türkçe sözcüklerin kelime olup olmadığını belirlemenizdir. Eğer sözcük gerçek bir kelime ise ""m"" tuşuna, değil ise ""z"" tuşuna basınız.   

Devam etmek için BOŞLUK tuşuna basınız.",Kaan Alkır,001,2023-11-09_12h59.47.738,vowel_harmony,2023.2.3,MacIntel,58.82352941,,,,,,,,,,,,,,,,,,,,,,,,,,,,,,,,,,,,,,,,,,,,,,,,,,,,,,,,,,,
11.711,18.16,space,6.392,,0,2,2,2,1,"Her sözcük için en fazla iki saniyede cevap vermeniz beklenmektedir. Aksi takdirde deney bir sonraki sözcük ile devam eder. 
Bu çalışmada oldukça hızlı ve doğru cevaplama yapmanız beklenmektedir.

Devam etmek için BOŞLUK tuşuna basınız.",Kaan Alkır,001,2023-11-09_12h59.47.738,vowel_harmony,2023.2.3,MacIntel,58.82352941,,,,,,,,,,,,,,,,,,,,,,,,,,,,,,,,,,,,,,,,,,,,,,,,,,,,,,,,,,,
18.161,21.594,space,3.392,,0,3,3,3,1,"Çalışmaya başlamadan önce ufak bir pratik yer almaktadır.
Kelimedir: ""m""
Kelime değildir: ""z""

Pratik teste başlamak için BOŞLUK tuşuna basınız. ",Kaan Alkır,001,2023-11-09_12h59.47.738,vowel_harmony,2023.2.3,MacIntel,58.82352941,,,,,,,,,,,,,,,,,,,,,,,,,,,,,,,,,,,,,,,,,,,,,,,,,,,,,,,,,,,
,,,,,,,,,,,Kaan Alkır,001,2023-11-09_12h59.47.738,vowel_harmony,2023.2.3,MacIntel,58.82352941,21.613,22.595,22.595,24.012,z,1,1.386,,1.386,1,24.012,25.511,0,0,0,10,1,11,mahne,notharmonic,nw,z,,,,,,,,,,,,,,,,,,,,,,,,,,,,,,,,,,,,,
,,,,,,,,,,,Kaan Alkır,001,2023-11-09_12h59.47.738,vowel_harmony,2023.2.3,MacIntel,58.82352941,25.512,26.511,26.511,27.594,z,0,1.061,,1.061,0,27.595,29.094,0,1,1,0,1,1,ihale,notharmonic,word,m,,,,,,,,,,,,,,,,,,,,,,,,,,,,,,,,,,,,,
,,,,,,,,,,,Kaan Alkır,001,2023-11-09_12h59.47.738,vowel_harmony,2023.2.3,MacIntel,58.82352941,29.094,30.093,30.093,30.977,z,1,0.871,,0.871,1,30.977,32.476,0,2,2,13,1,14,pilar,notharmonic,nw,z,,,,,,,,,,,,,,,,,,,,,,,,,,,,,,,,,,,,,
,,,,,,,,,,,Kaan Alkır,001,2023-11-09_12h59.47.738,vowel_harmony,2023.2.3,MacIntel,58.82352941,32.477,33.477,33.477,34.294,m,0,0.796,,0.796,0,34.294,35.796,0,3,3,8,1,9,tahip,notharmonic,nw,z,,,,,,,,,,,,,,,,,,,,,,,,,,,,,,,,,,,,,
,,,,,,,,,,,Kaan Alkır,001,2023-11-09_12h59.47.738,vowel_harmony,2023.2.3,MacIntel,58.82352941,35.797,36.795,36.795,37.645,m,0,0.826,,0.826,0,37.645,39.144,0,4,4,14,1,15,pimer,harmonic,nw,z,,,,,,,,,,,,,,,,,,,,,,,,,,,,,,,,,,,,,
,,,,,,,,,,,Kaan Alkır,001,2023-11-09_12h59.47.738,vowel_harmony,2023.2.3,MacIntel,58.82352941,39.144,40.144,40.144,40.911,m,1,0.748,,0.748,1,40.911,42.41,0,5,5,1,1,2,veri,harmonic,word,m,,,,,,,,,,,,,,,,,,,,,,,,,,,,,,,,,,,,,
,,,,,,,,,,,Kaan Alkır,001,2023-11-09_12h59.47.738,vowel_harmony,2023.2.3,MacIntel,58.82352941,42.411,43.411,43.411,44.244,z,1,0.813,,0.813,1,44.244,45.744,0,6,6,12,1,13,ihlot,notharmonic,nw,z,,,,,,,,,,,,,,,,,,,,,,,,,,,,,,,,,,,,,
,,,,,,,,,,,Kaan Alkır,001,2023-11-09_12h59.47.738,vowel_harmony,2023.2.3,MacIntel,58.82352941,45.745,46.744,46.744,48.178,z,1,1.414,,1.414,1,48.178,49.677,0,7,7,11,1,12,geki,harmonic,nw,z,,,,,,,,,,,,,,,,,,,,,,,,,,,,,,,,,,,,,
,,,,,,,,,,,Kaan Alkır,001,2023-11-09_12h59.47.738,vowel_harmony,2023.2.3,MacIntel,58.82352941,49.678,50.678,50.678,51.961,z,0,1.259,,1.259,0,51.961,53.461,0,8,8,3,1,4,ihlal,notharmonic,word,m,,,,,,,,,,,,,,,,,,,,,,,,,,,,,,,,,,,,,
,,,,,,,,,,,Kaan Alkır,001,2023-11-09_12h59.47.738,vowel_harmony,2023.2.3,MacIntel,58.82352941,53.461,54.461,54.461,55.328,z,1,0.843,,0.843,1,55.328,56.827,0,9,9,9,1,10,orat,harmonic,nw,z,,,,,,,,,,,,,,,,,,,,,,,,,,,,,,,,,,,,,
,,,,,,,,,,,Kaan Alkır,001,2023-11-09_12h59.47.738,vowel_harmony,2023.2.3,MacIntel,58.82352941,56.827,57.828,57.828,58.813,z,1,0.945,,0.945,1,58.813,60.311,0,10,10,15,1,16,mımal,harmonic,nw,z,,,,,,,,,,,,,,,,,,,,,,,,,,,,,,,,,,,,,
,,,,,,,,,,,Kaan Alkır,001,2023-11-09_12h59.47.738,vowel_harmony,2023.2.3,MacIntel,58.82352941,60.312,61.31,61.31,62.044,m,1,0.711,,0.711,1,62.044,63.544,0,11,11,5,1,6,bahçe,notharmonic,word,m,,,,,,,,,,,,,,,,,,,,,,,,,,,,,,,,,,,,,
,,,,,,,,,,,Kaan Alkır,001,2023-11-09_12h59.47.738,vowel_harmony,2023.2.3,MacIntel,58.82352941,63.544,64.544,64.544,65.277,m,1,0.708,,0.708,1,65.277,66.777,0,12,12,7,1,8,oran,harmonic,word,m,,,,,,,,,,,,,,,,,,,,,,,,,,,,,,,,,,,,,
,,,,,,,,,,,Kaan Alkır,001,2023-11-09_12h59.47.738,vowel_harmony,2023.2.3,MacIntel,58.82352941,66.778,67.777,67.777,68.444,m,1,0.642,,0.642,1,68.444,69.944,0,13,13,2,1,3,memur,notharmonic,word,m,,,,,,,,,,,,,,,,,,,,,,,,,,,,,,,,,,,,,
,,,,,,,,,,,Kaan Alkır,001,2023-11-09_12h59.47.738,vowel_harmony,2023.2.3,MacIntel,58.82352941,69.945,70.944,70.944,71.594,m,1,0.635,,0.635,1,71.594,73.094,0,14,14,4,1,5,mimar,notharmonic,word,m,,,,,,,,,,,,,,,,,,,,,,,,,,,,,,,,,,,,,
,,,,,,,,,,,Kaan Alkır,001,2023-11-09_12h59.47.738,vowel_harmony,2023.2.3,MacIntel,58.82352941,73.095,74.077,74.077,74.711,m,1,0.615,,0.615,1,74.711,76.211,0,15,15,6,1,7,pilot,notharmonic,word,m,,,,,,,,,,,,,,,,,,,,,,,,,,,,,,,,,,,,,
,,,,,,,,,,,Kaan Alkır,001,2023-11-09_12h59.47.738,vowel_harmony,2023.2.3,MacIntel,58.82352941,,,,,,,,,,,,,,,,,,,,,,,76.212,85.428,space,9.169,,,,,,,,,,,,,,,,,,,,,,,,,,,,,,,,,
,,,,,,,,,,,Kaan Alkır,001,2023-11-09_12h59.47.738,vowel_harmony,2023.2.3,MacIntel,58.82352941,85.468,86.433,,,,,,,,,,,,,,,,,,,,,,,,,,86.433,87.261,m,1,0.804,,87.262,87.265,,0,0,0,144,1,145,garip,2567,116.6343,2355,0.2574,5,notharmonic,1.65,word,m,,,,,,,
,,,,,,,,,,,Kaan Alkır,001,2023-11-09_12h59.47.738,vowel_harmony,2023.2.3,MacIntel,58.82352941,87.266,88.261,,,,,,,,,,,,,,,,,,,,,,,,,,88.261,89.095,z,1,0.818,,89.095,89.096,,0,1,1,272,1,273,daken,,,,,5,notharmonic,1.8,nw,z,,,,,,,
,,,,,,,,,,,Kaan Alkır,001,2023-11-09_12h59.47.738,vowel_harmony,2023.2.3,MacIntel,58.82352941,89.096,90.094,,,,,,,,,,,,,,,,,,,,,,,,,,90.094,90.994,m,1,0.878,,90.994,90.995,,0,2,2,48,1,49,teşvik,932,42.3464,867,0.0948,6,harmonic,1.8,word,m,,,,,,,
,,,,,,,,,,,Kaan Alkır,001,2023-11-09_12h59.47.738,vowel_harmony,2023.2.3,MacIntel,58.82352941,90.995,91.994,,,,,,,,,,,,,,,,,,,,,,,,,,91.994,92.645,m,1,0.635,,92.646,92.646,,0,3,3,65,1,66,fikir,2552,115.9528,2413,0.2638,5,harmonic,1.9,word,m,,,,,,,
,,,,,,,,,,,Kaan Alkır,001,2023-11-09_12h59.47.738,vowel_harmony,2023.2.3,MacIntel,58.82352941,92.647,93.644,,,,,,,,,,,,,,,,,,,,,,,,,,93.644,94.911,z,1,1.247,,94.911,94.911,,0,4,4,182,1,183,orsın,,,,,5,harmonic,1.95,nw,z,,,,,,,
,,,,,,,,,,,Kaan Alkır,001,2023-11-09_12h59.47.738,vowel_harmony,2023.2.3,MacIntel,58.82352941,94.912,95.911,,,,,,,,,,,,,,,,,,,,,,,,,,95.911,96.644,m,1,0.709,,96.645,96.645,,0,5,5,12,1,13,konu,5400,245.3546,5110,0.5586,4,harmonic,1,word,m,,,,,,,
,,,,,,,,,,,Kaan Alkır,001,2023-11-09_12h59.47.738,vowel_harmony,2023.2.3,MacIntel,58.82352941,96.645,97.644,,,,,,,,,,,,,,,,,,,,,,,,,,97.644,98.411,z,1,0.747,,98.411,98.411,,0,6,6,200,1,201,duşın,,,,,5,harmonic,1.9,nw,z,,,,,,,
,,,,,,,,,,,Kaan Alkır,001,2023-11-09_12h59.47.738,vowel_harmony,2023.2.3,MacIntel,58.82352941,98.411,99.41,,,,,,,,,,,,,,,,,,,,,,,,,,99.41,100.061,m,1,0.629,,100.061,100.061,,0,7,7,140,1,141,sahil,481,21.8547,443,0.0484,5,notharmonic,1.45,word,m,,,,,,,
,,,,,,,,,,,Kaan Alkır,001,2023-11-09_12h59.47.738,vowel_harmony,2023.2.3,MacIntel,58.82352941,100.062,101.061,,,,,,,,,,,,,,,,,,,,,,,,,,101.061,102.311,z,1,1.226,,102.311,102.311,,0,8,8,324,1,325,pakeh,,,,,5,notharmonic,1.9,nw,z,,,,,,,
,,,,,,,,,,,Kaan Alkır,001,2023-11-09_12h59.47.738,vowel_harmony,2023.2.3,MacIntel,58.82352941,102.311,103.311,,,,,,,,,,,,,,,,,,,,,,,,,,103.311,104.644,z,1,1.313,,104.644,104.644,,0,9,9,286,1,287,cedan,,,,,5,notharmonic,1.8,nw,z,,,,,,,
,,,,,,,,,,,Kaan Alkır,001,2023-11-09_12h59.47.738,vowel_harmony,2023.2.3,MacIntel,58.82352941,104.645,105.645,,,,,,,,,,,,,,,,,,,,,,,,,,105.645,106.428,m,1,0.761,,106.428,106.429,,0,10,10,30,1,31,çevre,1662,75.5147,1409,0.154,5,harmonic,1.55,word,m,,,,,,,
,,,,,,,,,,,Kaan Alkır,001,2023-11-09_12h59.47.738,vowel_harmony,2023.2.3,MacIntel,58.82352941,106.43,107.428,,,,,,,,,,,,,,,,,,,,,,,,,,107.428,108.111,m,1,0.671,,108.111,108.111,,0,11,11,40,1,41,tepki,1695,77.0141,1578,0.1725,5,harmonic,1.55,word,m,,,,,,,
,,,,,,,,,,,Kaan Alkır,001,2023-11-09_12h59.47.738,vowel_harmony,2023.2.3,MacIntel,58.82352941,108.112,109.111,,,,,,,,,,,,,,,,,,,,,,,,,,109.111,109.744,m,1,0.614,,109.745,109.745,,0,12,12,115,1,116,saniye,1088,49.4344,984,0.1076,6,notharmonic,1.35,word,m,,,,,,,
,,,,,,,,,,,Kaan Alkır,001,2023-11-09_12h59.47.738,vowel_harmony,2023.2.3,MacIntel,58.82352941,109.746,110.745,,,,,,,,,,,,,,,,,,,,,,,,,,110.745,111.711,z,1,0.947,,111.711,111.711,,0,13,13,294,1,295,mesap,,,,,5,notharmonic,1.8,nw,z,,,,,,,
,,,,,,,,,,,Kaan Alkır,001,2023-11-09_12h59.47.738,vowel_harmony,2023.2.3,MacIntel,58.82352941,111.712,112.711,,,,,,,,,,,,,,,,,,,,,,,,,,112.711,113.411,m,1,0.677,,113.411,113.411,,0,14,14,166,1,167,maden,402,18.2653,339,0.0371,5,notharmonic,1.45,word,m,,,,,,,
,,,,,,,,,,,Kaan Alkır,001,2023-11-09_12h59.47.738,vowel_harmony,2023.2.3,MacIntel,58.82352941,113.412,114.411,,,,,,,,,,,,,,,,,,,,,,,,,,114.411,115.294,m,1,0.861,,115.294,115.294,,0,15,15,162,1,163,hariç,1267,57.5675,1233,0.1348,5,notharmonic,1.75,word,m,,,,,,,
,,,,,,,,,,,Kaan Alkır,001,2023-11-09_12h59.47.738,vowel_harmony,2023.2.3,MacIntel,58.82352941,115.294,116.295,,,,,,,,,,,,,,,,,,,,,,,,,,116.295,117.277,z,1,0.966,,117.277,117.277,,0,16,16,223,1,224,kakon,,,,,5,harmonic,1.85,nw,z,,,,,,,
,,,,,,,,,,,Kaan Alkır,001,2023-11-09_12h59.47.738,vowel_harmony,2023.2.3,MacIntel,58.82352941,117.277,118.278,,,,,,,,,,,,,,,,,,,,,,,,,,118.278,119.311,z,1,1.009,,119.311,119.311,,0,17,17,346,1,347,kidan,,,,,5,notharmonic,1.8,nw,z,,,,,,,
,,,,,,,,,,,Kaan Alkır,001,2023-11-09_12h59.47.738,vowel_harmony,2023.2.3,MacIntel,58.82352941,119.312,120.311,,,,,,,,,,,,,,,,,,,,,,,,,,120.311,120.928,m,1,0.597,,120.928,120.928,,0,18,18,52,1,53,resim,2506,113.8627,2188,0.2392,5,harmonic,1.4,word,m,,,,,,,
,,,,,,,,,,,Kaan Alkır,001,2023-11-09_12h59.47.738,vowel_harmony,2023.2.3,MacIntel,58.82352941,120.929,121.932,,,,,,,,,,,,,,,,,,,,,,,,,,121.932,122.794,z,1,0.845,,122.795,122.795,,0,19,19,320,1,321,finak,,,,,5,notharmonic,1.85,nw,z,,,,,,,
,,,,,,,,,,,Kaan Alkır,001,2023-11-09_12h59.47.738,vowel_harmony,2023.2.3,MacIntel,58.82352941,122.795,123.794,,,,,,,,,,,,,,,,,,,,,,,,,,123.795,124.862,z,1,1.043,,124.862,124.862,,0,20,20,185,1,186,örtin,,,,,5,harmonic,1.9,nw,z,,,,,,,
,,,,,,,,,,,Kaan Alkır,001,2023-11-09_12h59.47.738,vowel_harmony,2023.2.3,MacIntel,58.82352941,124.862,125.861,,,,,,,,,,,,,,,,,,,,,,,,,,125.861,126.578,m,1,0.698,,126.578,126.578,,0,21,21,154,1,155,sakin,1855,84.2838,1635,0.1787,5,notharmonic,1.05,word,m,,,,,,,
,,,,,,,,,,,Kaan Alkır,001,2023-11-09_12h59.47.738,vowel_harmony,2023.2.3,MacIntel,58.82352941,126.579,127.578,,,,,,,,,,,,,,,,,,,,,,,,,,127.578,128.445,z,1,0.845,,128.445,128.445,,0,22,22,285,1,286,iklon,,,,,5,notharmonic,1.85,nw,z,,,,,,,
,,,,,,,,,,,Kaan Alkır,001,2023-11-09_12h59.47.738,vowel_harmony,2023.2.3,MacIntel,58.82352941,128.445,129.444,,,,,,,,,,,,,,,,,,,,,,,,,,129.445,130.645,z,1,1.179,,130.645,130.645,,0,23,23,217,1,218,sanfız,,,,,6,harmonic,1.85,nw,z,,,,,,,
,,,,,,,,,,,Kaan Alkır,001,2023-11-09_12h59.47.738,vowel_harmony,2023.2.3,MacIntel,58.82352941,130.646,131.645,,,,,,,,,,,,,,,,,,,,,,,,,,131.645,132.695,z,1,1.018,,132.695,132.695,,0,24,24,310,1,311,yandeş,,,,,6,notharmonic,1.95,nw,z,,,,,,,
,,,,,,,,,,,Kaan Alkır,001,2023-11-09_12h59.47.738,vowel_harmony,2023.2.3,MacIntel,58.82352941,132.696,133.693,,,,,,,,,,,,,,,,,,,,,,,,,,133.693,134.561,z,1,0.849,,134.561,134.562,,0,25,25,183,1,184,orkın,,,,,5,harmonic,1.9,nw,z,,,,,,,
,,,,,,,,,,,Kaan Alkır,001,2023-11-09_12h59.47.738,vowel_harmony,2023.2.3,MacIntel,58.82352941,134.562,135.561,,,,,,,,,,,,,,,,,,,,,,,,,,135.561,136.211,m,1,0.627,,136.211,136.211,,0,26,26,146,1,147,mavi,2206,100.2319,1934,0.2114,4,notharmonic,1.45,word,m,,,,,,,
,,,,,,,,,,,Kaan Alkır,001,2023-11-09_12h59.47.738,vowel_harmony,2023.2.3,MacIntel,58.82352941,136.211,137.211,,,,,,,,,,,,,,,,,,,,,,,,,,137.211,137.928,m,1,0.707,,137.928,137.928,,0,27,27,97,1,98,mevcut,3007,136.6262,2842,0.3107,6,notharmonic,1.95,word,m,,,,,,,
,,,,,,,,,,,Kaan Alkır,001,2023-11-09_12h59.47.738,vowel_harmony,2023.2.3,MacIntel,58.82352941,137.929,138.928,,,,,,,,,,,,,,,,,,,,,,,,,,138.928,140.061,z,1,1.117,,140.062,140.062,,0,28,28,335,1,336,lilo,,,,,4,notharmonic,1.8,nw,z,,,,,,,
,,,,,,,,,,,Kaan Alkır,001,2023-11-09_12h59.47.738,vowel_harmony,2023.2.3,MacIntel,58.82352941,140.062,141.061,,,,,,,,,,,,,,,,,,,,,,,,,,141.061,142.111,z,1,1.028,,142.111,142.112,,0,29,29,248,1,249,şegim,,,,,5,harmonic,1.9,nw,z,,,,,,,
,,,,,,,,,,,Kaan Alkır,001,2023-11-09_12h59.47.738,vowel_harmony,2023.2.3,MacIntel,58.82352941,142.112,143.111,,,,,,,,,,,,,,,,,,,,,,,,,,143.111,143.744,m,1,0.619,,143.745,143.745,,0,30,30,29,1,30,huzur,1911,86.8283,1799,0.1967,5,harmonic,1.8,word,m,,,,,,,
,,,,,,,,,,,Kaan Alkır,001,2023-11-09_12h59.47.738,vowel_harmony,2023.2.3,MacIntel,58.82352941,143.745,144.744,,,,,,,,,,,,,,,,,,,,,,,,,,144.745,145.478,m,1,0.718,,145.478,145.478,,0,31,31,73,1,74,millet,1658,75.3329,1508,0.1649,6,harmonic,1.7,word,m,,,,,,,
,,,,,,,,,,,Kaan Alkır,001,2023-11-09_12h59.47.738,vowel_harmony,2023.2.3,MacIntel,58.82352941,145.479,146.478,,,,,,,,,,,,,,,,,,,,,,,,,,146.478,147.028,m,1,0.527,,147.029,147.029,,0,32,32,8,1,9,güven,1433,65.1098,1300,0.1421,5,harmonic,1.35,word,m,,,,,,,
,,,,,,,,,,,Kaan Alkır,001,2023-11-09_12h59.47.738,vowel_harmony,2023.2.3,MacIntel,58.82352941,147.029,148.028,,,,,,,,,,,,,,,,,,,,,,,,,,148.029,148.661,m,1,0.617,,148.662,148.662,,0,33,33,96,1,97,dahil,3189,144.8955,3060,0.3345,5,notharmonic,1.7,word,m,,,,,,,
,,,,,,,,,,,Kaan Alkır,001,2023-11-09_12h59.47.738,vowel_harmony,2023.2.3,MacIntel,58.82352941,148.663,149.661,,,,,,,,,,,,,,,,,,,,,,,,,,149.662,150.362,z,1,0.681,,150.362,150.362,,0,34,34,227,1,228,zekö,,,,,4,harmonic,1.9,nw,z,,,,,,,
,,,,,,,,,,,Kaan Alkır,001,2023-11-09_12h59.47.738,vowel_harmony,2023.2.3,MacIntel,58.82352941,150.362,151.363,,,,,,,,,,,,,,,,,,,,,,,,,,151.363,152.361,z,1,0.982,,152.361,152.362,,0,35,35,318,1,319,yorgün,,,,,6,notharmonic,1.9,nw,z,,,,,,,
,,,,,,,,,,,Kaan Alkır,001,2023-11-09_12h59.47.738,vowel_harmony,2023.2.3,MacIntel,58.82352941,152.362,153.364,,,,,,,,,,,,,,,,,,,,,,,,,,153.364,154.195,m,1,0.816,,154.195,154.195,,0,36,36,147,1,148,işaret,1888,85.7832,1787,0.1954,6,notharmonic,1,word,m,,,,,,,
,,,,,,,,,,,Kaan Alkır,001,2023-11-09_12h59.47.738,vowel_harmony,2023.2.3,MacIntel,58.82352941,154.196,155.195,,,,,,,,,,,,,,,,,,,,,,,,,,155.195,156.095,m,1,0.88,,156.095,156.095,,0,37,37,26,1,27,sebze,1094,49.707,961,0.1051,5,harmonic,1.9,word,m,,,,,,,
,,,,,,,,,,,Kaan Alkır,001,2023-11-09_12h59.47.738,vowel_harmony,2023.2.3,MacIntel,58.82352941,156.095,157.095,,,,,,,,,,,,,,,,,,,,,,,,,,157.095,158.461,z,1,1.344,,158.461,158.461,,0,38,38,319,1,320,biho,,,,,4,notharmonic,2,nw,z,,,,,,,
,,,,,,,,,,,Kaan Alkır,001,2023-11-09_12h59.47.738,vowel_harmony,2023.2.3,MacIntel,58.82352941,158.462,159.466,,,,,,,,,,,,,,,,,,,,,,,,,,159.467,160.395,z,1,0.909,,160.395,160.396,,0,39,39,266,1,267,düştön,,,,,6,harmonic,1.9,nw,z,,,,,,,
,,,,,,,,,,,Kaan Alkır,001,2023-11-09_12h59.47.738,vowel_harmony,2023.2.3,MacIntel,58.82352941,160.398,161.395,,,,,,,,,,,,,,,,,,,,,,,,,,161.395,162.328,z,1,0.909,,162.328,162.328,,0,40,40,201,1,202,ergiy,,,,,5,harmonic,1.85,nw,z,,,,,,,
,,,,,,,,,,,Kaan Alkır,001,2023-11-09_12h59.47.738,vowel_harmony,2023.2.3,MacIntel,58.82352941,162.33,163.328,,,,,,,,,,,,,,,,,,,,,,,,,,163.328,163.978,m,1,0.631,,163.978,163.978,,0,41,41,175,1,176,aile,3655,166.0687,3126,0.3417,4,notharmonic,1,word,m,,,,,,,
,,,,,,,,,,,Kaan Alkır,001,2023-11-09_12h59.47.738,vowel_harmony,2023.2.3,MacIntel,58.82352941,163.978,164.978,,,,,,,,,,,,,,,,,,,,,,,,,,164.978,166.095,z,1,1.103,,166.095,166.096,,0,42,42,236,1,237,toklam,,,,,6,harmonic,1.85,nw,z,,,,,,,
,,,,,,,,,,,Kaan Alkır,001,2023-11-09_12h59.47.738,vowel_harmony,2023.2.3,MacIntel,58.82352941,166.096,167.095,,,,,,,,,,,,,,,,,,,,,,,,,,167.095,168.361,z,1,1.245,,168.361,168.362,,0,43,43,260,1,261,yarlam,,,,,6,harmonic,1.75,nw,z,,,,,,,
,,,,,,,,,,,Kaan Alkır,001,2023-11-09_12h59.47.738,vowel_harmony,2023.2.3,MacIntel,58.82352941,168.362,169.362,,,,,,,,,,,,,,,,,,,,,,,,,,169.362,170.512,z,1,1.139,,170.512,170.512,,0,44,44,334,1,335,işgan,,,,,5,notharmonic,1.95,nw,z,,,,,,,
,,,,,,,,,,,Kaan Alkır,001,2023-11-09_12h59.47.738,vowel_harmony,2023.2.3,MacIntel,58.82352941,170.512,171.512,,,,,,,,,,,,,,,,,,,,,,,,,,171.512,172.311,m,1,0.783,,172.312,172.312,,0,45,45,111,1,112,kahve,2634,119.6785,2283,0.2496,5,notharmonic,1.85,word,m,,,,,,,
,,,,,,,,,,,Kaan Alkır,001,2023-11-09_12h59.47.738,vowel_harmony,2023.2.3,MacIntel,58.82352941,172.312,173.312,,,,,,,,,,,,,,,,,,,,,,,,,,173.312,173.878,z,1,0.549,,173.878,173.878,,0,46,46,355,1,356,adül,,,,,4,notharmonic,1.85,nw,z,,,,,,,
,,,,,,,,,,,Kaan Alkır,001,2023-11-09_12h59.47.738,vowel_harmony,2023.2.3,MacIntel,58.82352941,173.878,174.878,,,,,,,,,,,,,,,,,,,,,,,,,,174.878,175.894,z,1,0.994,,175.895,175.895,,0,47,47,194,1,195,rayna,,,,,5,harmonic,1.7,nw,z,,,,,,,
,,,,,,,,,,,Kaan Alkır,001,2023-11-09_12h59.47.738,vowel_harmony,2023.2.3,MacIntel,58.82352941,175.895,176.894,,,,,,,,,,,,,,,,,,,,,,,,,,176.894,178.195,z,1,1.271,,178.195,178.195,,0,48,48,288,1,289,molit,,,,,5,notharmonic,1.95,nw,z,,,,,,,
,,,,,,,,,,,Kaan Alkır,001,2023-11-09_12h59.47.738,vowel_harmony,2023.2.3,MacIntel,58.82352941,178.195,179.195,,,,,,,,,,,,,,,,,,,,,,,,,,179.195,179.878,m,1,0.661,,179.878,179.878,,0,49,49,89,1,90,etki,1234,56.0681,1169,0.1278,4,harmonic,1.4,word,m,,,,,,,
,,,,,,,,,,,Kaan Alkır,001,2023-11-09_12h59.47.738,vowel_harmony,2023.2.3,MacIntel,58.82352941,179.879,180.878,,,,,,,,,,,,,,,,,,,,,,,,,,180.878,181.562,m,1,0.662,,181.562,181.562,,0,50,50,42,1,43,ürün,2268,103.0489,1954,0.2136,4,harmonic,1.1,word,m,,,,,,,
,,,,,,,,,,,Kaan Alkır,001,2023-11-09_12h59.47.738,vowel_harmony,2023.2.3,MacIntel,58.82352941,181.562,182.561,,,,,,,,,,,,,,,,,,,,,,,,,,182.561,183.595,m,1,1.012,,183.595,183.595,,0,51,51,131,1,132,hakim,1677,76.1962,1559,0.1704,5,notharmonic,1,word,m,,,,,,,
,,,,,,,,,,,Kaan Alkır,001,2023-11-09_12h59.47.738,vowel_harmony,2023.2.3,MacIntel,58.82352941,183.596,184.595,,,,,,,,,,,,,,,,,,,,,,,,,,184.595,185.344,z,1,0.728,,185.344,185.345,,0,52,52,268,1,269,haldum,,,,,6,harmonic,2,nw,z,,,,,,,
,,,,,,,,,,,Kaan Alkır,001,2023-11-09_12h59.47.738,vowel_harmony,2023.2.3,MacIntel,58.82352941,185.345,186.345,,,,,,,,,,,,,,,,,,,,,,,,,,186.345,187.177,z,1,0.815,,187.177,187.177,,0,53,53,259,1,260,hayuk,,,,,5,harmonic,1.95,nw,z,,,,,,,
,,,,,,,,,,,Kaan Alkır,001,2023-11-09_12h59.47.738,vowel_harmony,2023.2.3,MacIntel,58.82352941,187.177,188.178,,,,,,,,,,,,,,,,,,,,,,,,,,188.178,189.011,m,1,0.81,,189.011,189.012,,0,54,54,85,1,86,geçmiş,4195,190.6042,4039,0.4415,6,harmonic,1.55,word,m,,,,,,,
,,,,,,,,,,,Kaan Alkır,001,2023-11-09_12h59.47.738,vowel_harmony,2023.2.3,MacIntel,58.82352941,189.012,190.011,,,,,,,,,,,,,,,,,,,,,,,,,,190.011,191.578,z,1,1.545,,191.578,191.578,,0,55,55,204,1,205,gerkez,,,,,6,harmonic,1.9,nw,z,,,,,,,
,,,,,,,,,,,Kaan Alkır,001,2023-11-09_12h59.47.738,vowel_harmony,2023.2.3,MacIntel,58.82352941,191.579,192.578,,,,,,,,,,,,,,,,,,,,,,,,,,192.578,193.311,m,1,0.711,,193.312,193.312,,0,56,56,87,1,88,mümkün,6604,300.0596,6264,0.6848,6,harmonic,1.9,word,m,,,,,,,
,,,,,,,,,,,Kaan Alkır,001,2023-11-09_12h59.47.738,vowel_harmony,2023.2.3,MacIntel,58.82352941,193.312,194.312,,,,,,,,,,,,,,,,,,,,,,,,,,194.312,195.461,z,1,1.133,,195.461,195.462,,0,57,57,343,1,344,tarne,,,,,5,notharmonic,1.85,nw,z,,,,,,,
,,,,,,,,,,,Kaan Alkır,001,2023-11-09_12h59.47.738,vowel_harmony,2023.2.3,MacIntel,58.82352941,195.462,196.461,,,,,,,,,,,,,,,,,,,,,,,,,,196.461,197.029,m,1,0.544,,197.029,197.029,,0,58,58,7,1,8,hizmet,3023,137.3531,2689,0.294,6,harmonic,1.75,word,m,,,,,,,
,,,,,,,,,,,Kaan Alkır,001,2023-11-09_12h59.47.738,vowel_harmony,2023.2.3,MacIntel,58.82352941,197.029,198.028,,,,,,,,,,,,,,,,,,,,,,,,,,198.028,198.577,m,1,0.532,,198.577,198.578,,0,59,59,64,1,65,lise,888,40.3472,816,0.0892,4,harmonic,1.5,word,m,,,,,,,
,,,,,,,,,,,Kaan Alkır,001,2023-11-09_12h59.47.738,vowel_harmony,2023.2.3,MacIntel,58.82352941,198.578,199.578,,,,,,,,,,,,,,,,,,,,,,,,,,199.578,200.095,m,1,0.499,,200.095,200.095,,0,60,60,53,1,54,gelir,7578,344.3143,7014,0.7668,5,harmonic,1.4,word,m,,,,,,,
,,,,,,,,,,,Kaan Alkır,001,2023-11-09_12h59.47.738,vowel_harmony,2023.2.3,MacIntel,58.82352941,200.096,201.095,,,,,,,,,,,,,,,,,,,,,,,,,,201.095,201.811,z,1,0.693,,201.811,201.812,,0,61,61,336,1,337,diyam,,,,,5,notharmonic,1.85,nw,z,,,,,,,
,,,,,,,,,,,Kaan Alkır,001,2023-11-09_12h59.47.738,vowel_harmony,2023.2.3,MacIntel,58.82352941,201.812,202.812,,,,,,,,,,,,,,,,,,,,,,,,,,202.812,203.411,m,1,0.586,,203.412,203.412,,0,62,62,11,1,12,umut,1988,90.3268,1818,0.1987,4,harmonic,1.55,word,m,,,,,,,
,,,,,,,,,,,Kaan Alkır,001,2023-11-09_12h59.47.738,vowel_harmony,2023.2.3,MacIntel,58.82352941,203.413,204.411,,,,,,,,,,,,,,,,,,,,,,,,,,204.411,205.646,m,0,1.21,,205.646,205.646,,0,63,63,213,1,214,kaun,,,,,4,harmonic,1.7,nw,z,,,,,,,
,,,,,,,,,,,Kaan Alkır,001,2023-11-09_12h59.47.738,vowel_harmony,2023.2.3,MacIntel,58.82352941,205.646,206.648,,,,,,,,,,,,,,,,,,,,,,,,,,206.648,207.462,m,1,0.79,,207.462,207.463,,0,64,64,122,1,123,devam,17666,802.673,16284,1.7802,5,notharmonic,1.55,word,m,,,,,,,
,,,,,,,,,,,Kaan Alkır,001,2023-11-09_12h59.47.738,vowel_harmony,2023.2.3,MacIntel,58.82352941,207.463,208.462,,,,,,,,,,,,,,,,,,,,,,,,,,208.462,209.495,z,1,1.012,,209.495,209.495,,0,65,65,226,1,227,tefem,,,,,5,harmonic,1.75,nw,z,,,,,,,
,,,,,,,,,,,Kaan Alkır,001,2023-11-09_12h59.47.738,vowel_harmony,2023.2.3,MacIntel,58.82352941,209.496,210.495,,,,,,,,,,,,,,,,,,,,,,,,,,210.495,211.412,m,1,0.893,,211.412,211.412,,0,66,66,81,1,82,üretim,1593,72.3796,1283,0.1403,6,harmonic,1.6,word,m,,,,,,,
,,,,,,,,,,,Kaan Alkır,001,2023-11-09_12h59.47.738,vowel_harmony,2023.2.3,MacIntel,58.82352941,211.412,212.412,,,,,,,,,,,,,,,,,,,,,,,,,,212.412,213.161,m,1,0.739,,213.161,213.161,,0,67,67,149,1,150,ceza,2611,118.6335,2169,0.2371,4,notharmonic,1.5,word,m,,,,,,,
,,,,,,,,,,,Kaan Alkır,001,2023-11-09_12h59.47.738,vowel_harmony,2023.2.3,MacIntel,58.82352941,213.162,214.162,,,,,,,,,,,,,,,,,,,,,,,,,,214.162,214.928,m,1,0.751,,214.928,214.929,,0,68,68,102,1,103,esas,1965,89.2818,1795,0.1962,4,notharmonic,1.75,word,m,,,,,,,
,,,,,,,,,,,Kaan Alkır,001,2023-11-09_12h59.47.738,vowel_harmony,2023.2.3,MacIntel,58.82352941,214.929,215.929,,,,,,,,,,,,,,,,,,,,,,,,,,215.929,216.662,m,1,0.711,,216.662,216.662,,0,69,69,80,1,81,merkez,1445,65.6551,1255,0.1372,6,harmonic,1.8,word,m,,,,,,,
,,,,,,,,,,,Kaan Alkır,001,2023-11-09_12h59.47.738,vowel_harmony,2023.2.3,MacIntel,58.82352941,216.662,217.661,,,,,,,,,,,,,,,,,,,,,,,,,,217.661,218.512,m,1,0.831,,218.512,218.512,,0,70,70,67,1,68,bayram,1948,88.5094,1648,0.1802,6,harmonic,1.85,word,m,,,,,,,
,,,,,,,,,,,Kaan Alkır,001,2023-11-09_12h59.47.738,vowel_harmony,2023.2.3,MacIntel,58.82352941,218.513,219.512,,,,,,,,,,,,,,,,,,,,,,,,,,219.512,220.429,m,1,0.894,,220.429,220.429,,0,71,71,38,1,39,dönem,2820,128.1296,2437,0.2664,5,harmonic,1.4,word,m,,,,,,,
,,,,,,,,,,,Kaan Alkır,001,2023-11-09_12h59.47.738,vowel_harmony,2023.2.3,MacIntel,58.82352941,220.429,221.428,,,,,,,,,,,,,,,,,,,,,,,,,,221.428,222.395,m,1,0.946,,222.395,222.395,,0,72,72,15,1,16,hayat,7922,359.9443,7314,0.7996,5,harmonic,1.9,word,m,,,,,,,
,,,,,,,,,,,Kaan Alkır,001,2023-11-09_12h59.47.738,vowel_harmony,2023.2.3,MacIntel,58.82352941,222.396,223.395,,,,,,,,,,,,,,,,,,,,,,,,,,223.395,224.196,m,1,0.78,,224.196,224.196,,0,73,73,46,1,47,takım,4370,198.5555,3726,0.4073,5,harmonic,1.7,word,m,,,,,,,
,,,,,,,,,,,Kaan Alkır,001,2023-11-09_12h59.47.738,vowel_harmony,2023.2.3,MacIntel,58.82352941,224.196,225.195,,,,,,,,,,,,,,,,,,,,,,,,,,225.195,225.712,m,1,0.495,,225.712,225.712,,0,74,74,151,1,152,ateş,2108,95.7792,1803,0.1971,4,notharmonic,1.65,word,m,,,,,,,
,,,,,,,,,,,Kaan Alkır,001,2023-11-09_12h59.47.738,vowel_harmony,2023.2.3,MacIntel,58.82352941,225.713,226.712,,,,,,,,,,,,,,,,,,,,,,,,,,226.712,227.262,m,1,0.531,,227.262,227.262,,0,75,75,145,1,146,iddia,2430,110.4096,2295,0.2509,5,notharmonic,1.85,word,m,,,,,,,
,,,,,,,,,,,Kaan Alkır,001,2023-11-09_12h59.47.738,vowel_harmony,2023.2.3,MacIntel,58.82352941,227.262,228.262,,,,,,,,,,,,,,,,,,,,,,,,,,228.262,229.179,z,1,0.896,,229.179,229.18,,0,76,76,184,1,185,yapor,,,,,5,harmonic,1.9,nw,z,,,,,,,
,,,,,,,,,,,Kaan Alkır,001,2023-11-09_12h59.47.738,vowel_harmony,2023.2.3,MacIntel,58.82352941,229.18,230.179,,,,,,,,,,,,,,,,,,,,,,,,,,230.179,231.179,m,1,0.98,,231.179,231.179,,0,77,77,126,1,127,adet,4367,198.4192,3768,0.4119,4,notharmonic,1.4,word,m,,,,,,,
,,,,,,,,,,,Kaan Alkır,001,2023-11-09_12h59.47.738,vowel_harmony,2023.2.3,MacIntel,58.82352941,231.179,232.179,,,,,,,,,,,,,,,,,,,,,,,,,,232.179,233.262,z,1,1.066,,233.262,233.262,,0,78,78,301,1,302,mezak,,,,,5,notharmonic,1.8,nw,z,,,,,,,
,,,,,,,,,,,Kaan Alkır,001,2023-11-09_12h59.47.738,vowel_harmony,2023.2.3,MacIntel,58.82352941,233.263,234.262,,,,,,,,,,,,,,,,,,,,,,,,,,234.262,235.179,z,1,0.896,,235.179,235.179,,0,79,79,254,1,255,millek,,,,,6,harmonic,1.8,nw,z,,,,,,,
,,,,,,,,,,,Kaan Alkır,001,2023-11-09_12h59.47.738,vowel_harmony,2023.2.3,MacIntel,58.82352941,235.179,236.179,,,,,,,,,,,,,,,,,,,,,,,,,,236.179,237.212,z,1,1.014,,237.212,237.212,,0,80,80,306,1,307,otet,,,,,4,notharmonic,1.95,nw,z,,,,,,,
,,,,,,,,,,,Kaan Alkır,001,2023-11-09_12h59.47.738,vowel_harmony,2023.2.3,MacIntel,58.82352941,237.213,238.212,,,,,,,,,,,,,,,,,,,,,,,,,,238.212,239.045,m,1,0.811,,239.045,239.046,,0,81,81,161,1,162,komik,1617,73.4701,1506,0.1646,5,notharmonic,1.75,word,m,,,,,,,
,,,,,,,,,,,Kaan Alkır,001,2023-11-09_12h59.47.738,vowel_harmony,2023.2.3,MacIntel,58.82352941,239.046,240.045,,,,,,,,,,,,,,,,,,,,,,,,,,240.045,240.762,z,1,0.699,,240.762,240.762,,0,82,82,214,1,215,vecü,,,,,4,harmonic,1.95,nw,z,,,,,,,
,,,,,,,,,,,Kaan Alkır,001,2023-11-09_12h59.47.738,vowel_harmony,2023.2.3,MacIntel,58.82352941,240.763,241.762,,,,,,,,,,,,,,,,,,,,,,,,,,241.762,242.662,z,1,0.881,,242.662,242.662,,0,83,83,228,1,229,haytam,,,,,6,harmonic,1.75,nw,z,,,,,,,
,,,,,,,,,,,Kaan Alkır,001,2023-11-09_12h59.47.738,vowel_harmony,2023.2.3,MacIntel,58.82352941,242.663,243.662,,,,,,,,,,,,,,,,,,,,,,,,,,243.662,244.878,z,1,1.203,,244.879,244.879,,0,84,84,312,1,313,şahmin,,,,,6,notharmonic,1.8,nw,z,,,,,,,
,,,,,,,,,,,Kaan Alkır,001,2023-11-09_12h59.47.738,vowel_harmony,2023.2.3,MacIntel,58.82352941,244.879,245.879,,,,,,,,,,,,,,,,,,,,,,,,,,245.879,246.545,m,1,0.653,,246.545,246.545,,0,85,85,105,1,106,sahip,10887,494.6621,9847,1.0765,5,notharmonic,1.25,word,m,,,,,,,
,,,,,,,,,,,Kaan Alkır,001,2023-11-09_12h59.47.738,vowel_harmony,2023.2.3,MacIntel,58.82352941,246.546,247.545,,,,,,,,,,,,,,,,,,,,,,,,,,247.545,248.378,m,1,0.816,,248.378,248.378,,0,86,86,78,1,79,ulusal,1551,70.4713,1355,0.1481,6,harmonic,1.75,word,m,,,,,,,
,,,,,,,,,,,Kaan Alkır,001,2023-11-09_12h59.47.738,vowel_harmony,2023.2.3,MacIntel,58.82352941,248.379,249.381,,,,,,,,,,,,,,,,,,,,,,,,,,249.381,250.929,m,1,1.527,,250.929,250.93,,0,87,87,44,1,45,kayıt,1234,56.0681,1058,0.1157,5,harmonic,1.35,word,m,,,,,,,
,,,,,,,,,,,Kaan Alkır,001,2023-11-09_12h59.47.738,vowel_harmony,2023.2.3,MacIntel,58.82352941,250.931,251.928,,,,,,,,,,,,,,,,,,,,,,,,,,251.928,252.879,m,1,0.936,,252.879,252.879,,0,88,88,56,1,57,sağlam,1818,82.6027,1720,0.188,6,harmonic,1.6,word,m,,,,,,,
,,,,,,,,,,,Kaan Alkır,001,2023-11-09_12h59.47.738,vowel_harmony,2023.2.3,MacIntel,58.82352941,252.88,253.879,,,,,,,,,,,,,,,,,,,,,,,,,,253.879,254.829,z,1,0.934,,254.829,254.829,,0,89,89,358,1,359,yangin,,,,,6,notharmonic,1.9,nw,z,,,,,,,
,,,,,,,,,,,Kaan Alkır,001,2023-11-09_12h59.47.738,vowel_harmony,2023.2.3,MacIntel,58.82352941,254.83,255.829,,,,,,,,,,,,,,,,,,,,,,,,,,255.829,256.379,m,1,0.534,,256.379,256.38,,0,90,90,95,1,96,takip,4996,226.9984,4651,0.5084,5,notharmonic,1.55,word,m,,,,,,,
,,,,,,,,,,,Kaan Alkır,001,2023-11-09_12h59.47.738,vowel_harmony,2023.2.3,MacIntel,58.82352941,256.38,257.379,,,,,,,,,,,,,,,,,,,,,,,,,,257.379,258.229,m,1,0.828,,258.229,258.229,,0,91,91,54,1,55,yedek,825,37.4847,732,0.08,5,harmonic,1.65,word,m,,,,,,,
,,,,,,,,,,,Kaan Alkır,001,2023-11-09_12h59.47.738,vowel_harmony,2023.2.3,MacIntel,58.82352941,258.23,259.229,,,,,,,,,,,,,,,,,,,,,,,,,,259.229,259.896,z,1,0.646,,259.896,259.896,,0,92,92,249,1,250,hurıt,,,,,5,harmonic,1.95,nw,z,,,,,,,
,,,,,,,,,,,Kaan Alkır,001,2023-11-09_12h59.47.738,vowel_harmony,2023.2.3,MacIntel,58.82352941,259.896,260.895,,,,,,,,,,,,,,,,,,,,,,,,,,260.895,261.528,m,1,0.614,,261.528,261.528,,0,93,93,104,1,105,cevap,5232,237.7213,4822,0.5271,5,notharmonic,1.85,word,m,,,,,,,
,,,,,,,,,,,Kaan Alkır,001,2023-11-09_12h59.47.738,vowel_harmony,2023.2.3,MacIntel,58.82352941,261.529,262.528,,,,,,,,,,,,,,,,,,,,,,,,,,262.528,263.096,m,1,0.548,,263.096,263.096,,0,94,94,92,1,93,sahne,1380,62.7017,1238,0.1353,5,notharmonic,1.65,word,m,,,,,,,
,,,,,,,,,,,Kaan Alkır,001,2023-11-09_12h59.47.738,vowel_harmony,2023.2.3,MacIntel,58.82352941,263.097,264.095,,,,,,,,,,,,,,,,,,,,,,,,,,264.096,264.745,z,1,0.636,,264.745,264.746,,0,95,95,287,1,288,haköm,,,,,5,notharmonic,1.9,nw,z,,,,,,,
,,,,,,,,,,,Kaan Alkır,001,2023-11-09_12h59.47.738,vowel_harmony,2023.2.3,MacIntel,58.82352941,264.746,265.747,,,,,,,,,,,,,,,,,,,,,,,,,,265.747,266.396,m,1,0.629,,266.396,266.396,,0,96,96,163,1,164,limon,1658,75.3329,1481,0.1619,5,notharmonic,1.75,word,m,,,,,,,
,,,,,,,,,,,Kaan Alkır,001,2023-11-09_12h59.47.738,vowel_harmony,2023.2.3,MacIntel,58.82352941,266.396,267.395,,,,,,,,,,,,,,,,,,,,,,,,,,267.395,268.679,z,1,1.262,,268.679,268.679,,0,97,97,307,1,308,merbat,,,,,6,notharmonic,1.95,nw,z,,,,,,,
,,,,,,,,,,,Kaan Alkır,001,2023-11-09_12h59.47.738,vowel_harmony,2023.2.3,MacIntel,58.82352941,268.68,269.679,,,,,,,,,,,,,,,,,,,,,,,,,,269.679,270.453,z,1,0.746,,270.454,270.454,,0,98,98,338,1,339,pardön,,,,,6,notharmonic,1.95,nw,z,,,,,,,
,,,,,,,,,,,Kaan Alkır,001,2023-11-09_12h59.47.738,vowel_harmony,2023.2.3,MacIntel,58.82352941,270.455,271.446,,,,,,,,,,,,,,,,,,,,,,,,,,271.446,272.612,m,1,1.153,,272.612,272.613,,0,99,99,109,1,110,milyon,3936,178.8362,2958,0.3234,6,notharmonic,1.75,word,m,,,,,,,
,,,,,,,,,,,Kaan Alkır,001,2023-11-09_12h59.47.738,vowel_harmony,2023.2.3,MacIntel,58.82352941,272.613,273.612,,,,,,,,,,,,,,,,,,,,,,,,,,273.612,274.261,m,1,0.628,,274.261,274.261,,0,100,100,49,1,50,şeker,4708,213.9128,4170,0.4559,5,harmonic,1.6,word,m,,,,,,,
,,,,,,,,,,,Kaan Alkır,001,2023-11-09_12h59.47.738,vowel_harmony,2023.2.3,MacIntel,58.82352941,274.262,275.262,,,,,,,,,,,,,,,,,,,,,,,,,,275.262,276.146,z,1,0.861,,276.146,276.146,,0,101,101,216,1,217,çeyret,,,,,6,harmonic,1.9,nw,z,,,,,,,
,,,,,,,,,,,Kaan Alkır,001,2023-11-09_12h59.47.738,vowel_harmony,2023.2.3,MacIntel,58.82352941,276.146,277.146,,,,,,,,,,,,,,,,,,,,,,,,,,277.146,277.829,m,1,0.661,,277.829,277.829,,0,102,102,125,1,126,ikna,1276,57.9764,1173,0.1282,4,notharmonic,1.85,word,m,,,,,,,
,,,,,,,,,,,Kaan Alkır,001,2023-11-09_12h59.47.738,vowel_harmony,2023.2.3,MacIntel,58.82352941,277.829,278.829,,,,,,,,,,,,,,,,,,,,,,,,,,278.829,279.545,z,1,0.701,,279.545,279.545,,0,103,103,242,1,243,kahon,,,,,5,harmonic,1.85,nw,z,,,,,,,
,,,,,,,,,,,Kaan Alkır,001,2023-11-09_12h59.47.738,vowel_harmony,2023.2.3,MacIntel,58.82352941,279.546,280.545,,,,,,,,,,,,,,,,,,,,,,,,,,280.546,281.329,z,1,0.765,,281.329,281.329,,0,104,104,193,1,194,yokın,,,,,5,harmonic,1.85,nw,z,,,,,,,
,,,,,,,,,,,Kaan Alkır,001,2023-11-09_12h59.47.738,vowel_harmony,2023.2.3,MacIntel,58.82352941,281.33,282.329,,,,,,,,,,,,,,,,,,,,,,,,,,282.329,283.246,m,1,0.901,,283.246,283.246,,0,105,105,70,1,71,yarın,3440,156.3,3222,0.3522,5,harmonic,1.85,word,m,,,,,,,
,,,,,,,,,,,Kaan Alkır,001,2023-11-09_12h59.47.738,vowel_harmony,2023.2.3,MacIntel,58.82352941,283.246,284.245,,,,,,,,,,,,,,,,,,,,,,,,,,284.246,285.479,z,1,1.222,,285.479,285.479,,0,106,106,349,1,350,harten,,,,,6,notharmonic,1.85,nw,z,,,,,,,
,,,,,,,,,,,Kaan Alkır,001,2023-11-09_12h59.47.738,vowel_harmony,2023.2.3,MacIntel,58.82352941,285.479,286.479,,,,,,,,,,,,,,,,,,,,,,,,,,286.479,287.212,z,1,0.714,,287.213,287.213,,0,107,107,269,1,270,vekü,,,,,4,harmonic,2,nw,z,,,,,,,
,,,,,,,,,,,Kaan Alkır,001,2023-11-09_12h59.47.738,vowel_harmony,2023.2.3,MacIntel,58.82352941,287.213,288.212,,,,,,,,,,,,,,,,,,,,,,,,,,288.212,289.362,z,1,1.133,,289.362,289.363,,0,108,108,332,1,333,tahane,,,,,6,notharmonic,1.85,nw,z,,,,,,,
,,,,,,,,,,,Kaan Alkır,001,2023-11-09_12h59.47.738,vowel_harmony,2023.2.3,MacIntel,58.82352941,289.363,290.362,,,,,,,,,,,,,,,,,,,,,,,,,,290.362,290.979,m,1,0.598,,290.979,290.979,,0,109,109,133,1,134,taze,2268,103.0489,2062,0.2254,4,notharmonic,1.65,word,m,,,,,,,
,,,,,,,,,,,Kaan Alkır,001,2023-11-09_12h59.47.738,vowel_harmony,2023.2.3,MacIntel,58.82352941,290.979,291.978,,,,,,,,,,,,,,,,,,,,,,,,,,291.978,292.696,m,1,0.7,,292.696,292.696,,0,110,110,27,1,28,bölge,1283,58.2944,1123,0.1228,5,harmonic,1.65,word,m,,,,,,,
,,,,,,,,,,,Kaan Alkır,001,2023-11-09_12h59.47.738,vowel_harmony,2023.2.3,MacIntel,58.82352941,292.697,293.695,,,,,,,,,,,,,,,,,,,,,,,,,,293.695,294.512,z,1,0.795,,294.512,294.513,,0,111,111,341,1,342,işgan,,,,,5,notharmonic,1.95,nw,z,,,,,,,
,,,,,,,,,,,Kaan Alkır,001,2023-11-09_12h59.47.738,vowel_harmony,2023.2.3,MacIntel,58.82352941,294.513,295.513,,,,,,,,,,,,,,,,,,,,,,,,,,295.513,296.312,m,1,0.783,,296.312,296.313,,0,112,112,123,1,124,haber,4559,207.1429,4151,0.4538,5,notharmonic,1.85,word,m,,,,,,,
,,,,,,,,,,,Kaan Alkır,001,2023-11-09_12h59.47.738,vowel_harmony,2023.2.3,MacIntel,58.82352941,296.313,297.312,,,,,,,,,,,,,,,,,,,,,,,,,,297.312,298.245,m,1,0.911,,298.245,298.245,,0,113,113,117,1,118,nasip,1069,48.5711,1042,0.1139,5,notharmonic,1.8,word,m,,,,,,,
,,,,,,,,,,,Kaan Alkır,001,2023-11-09_12h59.47.738,vowel_harmony,2023.2.3,MacIntel,58.82352941,298.246,299.246,,,,,,,,,,,,,,,,,,,,,,,,,,299.246,300.012,m,1,0.746,,300.012,300.012,,0,114,114,160,1,161,hakem,603,27.3979,473,0.0517,5,notharmonic,1.3,word,m,,,,,,,
,,,,,,,,,,,Kaan Alkır,001,2023-11-09_12h59.47.738,vowel_harmony,2023.2.3,MacIntel,58.82352941,300.012,301.012,,,,,,,,,,,,,,,,,,,,,,,,,,301.012,301.678,m,1,0.644,,301.678,301.679,,0,115,115,130,1,131,hamile,1075,48.8437,877,0.0959,6,notharmonic,1.5,word,m,,,,,,,
,,,,,,,,,,,Kaan Alkır,001,2023-11-09_12h59.47.738,vowel_harmony,2023.2.3,MacIntel,58.82352941,301.679,302.679,,,,,,,,,,,,,,,,,,,,,,,,,,302.679,303.845,z,1,1.153,,303.845,303.846,,0,116,116,347,1,348,tekram,,,,,6,notharmonic,1.95,nw,z,,,,,,,
,,,,,,,,,,,Kaan Alkır,001,2023-11-09_12h59.47.738,vowel_harmony,2023.2.3,MacIntel,58.82352941,303.846,304.846,,,,,,,,,,,,,,,,,,,,,,,,,,304.846,305.529,m,1,0.662,,305.529,305.529,,0,117,117,17,1,18,yakın,7990,363.0339,7595,0.8303,5,harmonic,1.8,word,m,,,,,,,
,,,,,,,,,,,Kaan Alkır,001,2023-11-09_12h59.47.738,vowel_harmony,2023.2.3,MacIntel,58.82352941,305.53,306.529,,,,,,,,,,,,,,,,,,,,,,,,,,306.529,307.779,z,1,1.236,,307.779,307.779,,0,118,118,250,1,251,kakuk,,,,,5,harmonic,1.9,nw,z,,,,,,,
,,,,,,,,,,,Kaan Alkır,001,2023-11-09_12h59.47.738,vowel_harmony,2023.2.3,MacIntel,58.82352941,307.78,308.779,,,,,,,,,,,,,,,,,,,,,,,,,,308.779,309.396,m,0,0.598,,309.396,309.396,,0,119,119,351,1,352,seğlık,,,,,6,notharmonic,1.9,nw,z,,,,,,,
,,,,,,,,,,,Kaan Alkır,001,2023-11-09_12h59.47.738,vowel_harmony,2023.2.3,MacIntel,58.82352941,309.397,310.396,,,,,,,,,,,,,,,,,,,,,,,,,,310.396,311.046,m,1,0.629,,311.046,325.196,space,0,120,120,84,1,85,ülke,3121,141.8059,2801,0.3062,4,harmonic,1.65,word,m,14.118,,,,,,
,,,,,,,,,,,Kaan Alkır,001,2023-11-09_12h59.47.738,vowel_harmony,2023.2.3,MacIntel,58.82352941,325.197,326.196,,,,,,,,,,,,,,,,,,,,,,,,,,326.196,327.045,z,1,0.831,,327.045,327.046,,0,121,121,333,1,334,heyran,,,,,6,notharmonic,1.85,nw,z,,,,,,,
,,,,,,,,,,,Kaan Alkır,001,2023-11-09_12h59.47.738,vowel_harmony,2023.2.3,MacIntel,58.82352941,327.047,328.046,,,,,,,,,,,,,,,,,,,,,,,,,,328.046,328.763,m,1,0.697,,328.763,328.763,,0,122,122,128,1,129,tatil,2152,97.7783,1865,0.2039,5,notharmonic,1.7,word,m,,,,,,,
,,,,,,,,,,,Kaan Alkır,001,2023-11-09_12h59.47.738,vowel_harmony,2023.2.3,MacIntel,58.82352941,328.764,329.762,,,,,,,,,,,,,,,,,,,,,,,,,,329.762,330.579,z,1,0.795,,330.58,330.58,,0,123,123,202,1,203,güvin,,,,,5,harmonic,1.95,nw,z,,,,,,,
,,,,,,,,,,,Kaan Alkır,001,2023-11-09_12h59.47.738,vowel_harmony,2023.2.3,MacIntel,58.82352941,330.58,331.579,,,,,,,,,,,,,,,,,,,,,,,,,,331.579,332.462,m,1,0.862,,332.462,332.462,,0,124,124,10,1,11,bardak,1728,78.5135,1569,0.1715,6,harmonic,1.6,word,m,,,,,,,
,,,,,,,,,,,Kaan Alkır,001,2023-11-09_12h59.47.738,vowel_harmony,2023.2.3,MacIntel,58.82352941,332.463,333.463,,,,,,,,,,,,,,,,,,,,,,,,,,333.463,334.312,z,1,0.828,,334.312,334.312,,0,125,125,350,1,351,resun,,,,,5,notharmonic,1.85,nw,z,,,,,,,
,,,,,,,,,,,Kaan Alkır,001,2023-11-09_12h59.47.738,vowel_harmony,2023.2.3,MacIntel,58.82352941,334.313,335.313,,,,,,,,,,,,,,,,,,,,,,,,,,335.313,336.112,z,1,0.778,,336.112,336.113,,0,126,126,326,1,327,ailo,,,,,4,notharmonic,1.75,nw,z,,,,,,,
,,,,,,,,,,,Kaan Alkır,001,2023-11-09_12h59.47.738,vowel_harmony,2023.2.3,MacIntel,58.82352941,336.113,337.112,,,,,,,,,,,,,,,,,,,,,,,,,,337.112,337.663,m,1,0.54,,337.663,337.663,,0,127,127,103,1,104,tane,5623,255.4868,5075,0.5548,4,notharmonic,1.3,word,m,,,,,,,
,,,,,,,,,,,Kaan Alkır,001,2023-11-09_12h59.47.738,vowel_harmony,2023.2.3,MacIntel,58.82352941,337.663,338.663,,,,,,,,,,,,,,,,,,,,,,,,,,338.663,339.163,m,1,0.484,,339.163,339.163,,0,128,128,5,1,6,bebek,3301,149.9843,2794,0.3054,5,harmonic,1.6,word,m,,,,,,,
,,,,,,,,,,,Kaan Alkır,001,2023-11-09_12h59.47.738,vowel_harmony,2023.2.3,MacIntel,58.82352941,339.164,340.163,,,,,,,,,,,,,,,,,,,,,,,,,,340.163,340.895,z,1,0.71,,340.896,340.896,,0,129,129,283,1,284,fahe,,,,,4,notharmonic,1.95,nw,z,,,,,,,
,,,,,,,,,,,Kaan Alkır,001,2023-11-09_12h59.47.738,vowel_harmony,2023.2.3,MacIntel,58.82352941,340.896,341.896,,,,,,,,,,,,,,,,,,,,,,,,,,341.896,342.98,z,1,1.063,,342.98,342.98,,0,130,130,211,1,212,yarum,,,,,5,harmonic,1.75,nw,z,,,,,,,
,,,,,,,,,,,Kaan Alkır,001,2023-11-09_12h59.47.738,vowel_harmony,2023.2.3,MacIntel,58.82352941,342.98,343.979,,,,,,,,,,,,,,,,,,,,,,,,,,343.979,345.013,z,1,1.012,,345.013,345.013,,0,131,131,291,1,292,mepan,,,,,5,notharmonic,1.75,nw,z,,,,,,,
,,,,,,,,,,,Kaan Alkır,001,2023-11-09_12h59.47.738,vowel_harmony,2023.2.3,MacIntel,58.82352941,345.014,346.012,,,,,,,,,,,,,,,,,,,,,,,,,,346.012,346.713,m,1,0.684,,346.713,346.713,,0,132,132,114,1,115,nisan,2321,105.457,2044,0.2235,5,notharmonic,1.6,word,m,,,,,,,
,,,,,,,,,,,Kaan Alkır,001,2023-11-09_12h59.47.738,vowel_harmony,2023.2.3,MacIntel,58.82352941,346.713,347.713,,,,,,,,,,,,,,,,,,,,,,,,,,347.713,348.429,m,1,0.696,,348.429,348.43,,0,133,133,82,1,83,aday,1028,46.7082,873,0.0954,4,harmonic,1.45,word,m,,,,,,,
,,,,,,,,,,,Kaan Alkır,001,2023-11-09_12h59.47.738,vowel_harmony,2023.2.3,MacIntel,58.82352941,348.43,349.429,,,,,,,,,,,,,,,,,,,,,,,,,,349.429,350.412,z,1,0.97,,350.412,350.412,,0,134,134,256,1,257,yaruza,,,,,6,harmonic,1.9,nw,z,,,,,,,
,,,,,,,,,,,Kaan Alkır,001,2023-11-09_12h59.47.738,vowel_harmony,2023.2.3,MacIntel,58.82352941,350.413,351.412,,,,,,,,,,,,,,,,,,,,,,,,,,351.413,352.146,m,1,0.72,,352.146,352.146,,0,135,135,51,1,52,ilginç,2803,127.3572,2690,0.2941,6,harmonic,1.8,word,m,,,,,,,
,,,,,,,,,,,Kaan Alkır,001,2023-11-09_12h59.47.738,vowel_harmony,2023.2.3,MacIntel,58.82352941,352.147,353.146,,,,,,,,,,,,,,,,,,,,,,,,,,353.146,353.829,m,1,0.663,,353.83,353.83,,0,136,136,90,1,91,tarif,2834,128.7657,2611,0.2854,5,notharmonic,1.5,word,m,,,,,,,
,,,,,,,,,,,Kaan Alkır,001,2023-11-09_12h59.47.738,vowel_harmony,2023.2.3,MacIntel,58.82352941,353.83,354.829,,,,,,,,,,,,,,,,,,,,,,,,,,354.829,355.779,z,1,0.932,,355.779,355.78,,0,137,137,244,1,245,kaof,,,,,4,harmonic,1.9,nw,z,,,,,,,
,,,,,,,,,,,Kaan Alkır,001,2023-11-09_12h59.47.738,vowel_harmony,2023.2.3,MacIntel,58.82352941,355.78,356.779,,,,,,,,,,,,,,,,,,,,,,,,,,356.779,358.146,z,1,1.357,,358.146,358.146,,0,138,138,230,1,231,bikir,,,,,5,harmonic,1.75,nw,z,,,,,,,
,,,,,,,,,,,Kaan Alkır,001,2023-11-09_12h59.47.738,vowel_harmony,2023.2.3,MacIntel,58.82352941,358.146,359.146,,,,,,,,,,,,,,,,,,,,,,,,,,359.146,359.812,m,1,0.646,,359.813,359.813,,0,139,139,94,1,95,final,876,39.802,778,0.0851,5,notharmonic,1,word,m,,,,,,,
,,,,,,,,,,,Kaan Alkır,001,2023-11-09_12h59.47.738,vowel_harmony,2023.2.3,MacIntel,58.82352941,359.813,360.813,,,,,,,,,,,,,,,,,,,,,,,,,,360.813,361.646,m,1,0.812,,361.646,361.646,,0,140,140,79,1,80,durum,6783,308.1926,6431,0.703,5,harmonic,1.7,word,m,,,,,,,
,,,,,,,,,,,Kaan Alkır,001,2023-11-09_12h59.47.738,vowel_harmony,2023.2.3,MacIntel,58.82352941,361.647,362.646,,,,,,,,,,,,,,,,,,,,,,,,,,362.646,363.631,z,1,0.961,,363.632,363.632,,0,141,141,241,1,242,porlam,,,,,6,harmonic,2,nw,z,,,,,,,
,,,,,,,,,,,Kaan Alkır,001,2023-11-09_12h59.47.738,vowel_harmony,2023.2.3,MacIntel,58.82352941,363.632,364.629,,,,,,,,,,,,,,,,,,,,,,,,,,364.629,365.296,m,1,0.645,,365.296,365.297,,0,142,142,150,1,151,sabit,1046,47.5261,915,0.1,5,notharmonic,1.75,word,m,,,,,,,
,,,,,,,,,,,Kaan Alkır,001,2023-11-09_12h59.47.738,vowel_harmony,2023.2.3,MacIntel,58.82352941,365.297,366.296,,,,,,,,,,,,,,,,,,,,,,,,,,366.296,367.281,z,1,0.963,,367.281,367.282,,0,143,143,277,1,278,balsin,,,,,6,notharmonic,1.85,nw,z,,,,,,,
,,,,,,,,,,,Kaan Alkır,001,2023-11-09_12h59.47.738,vowel_harmony,2023.2.3,MacIntel,58.82352941,367.283,368.279,,,,,,,,,,,,,,,,,,,,,,,,,,368.279,368.83,z,1,0.529,,368.83,368.83,,0,144,144,282,1,283,taöz,,,,,4,notharmonic,1.9,nw,z,,,,,,,
,,,,,,,,,,,Kaan Alkır,001,2023-11-09_12h59.47.738,vowel_harmony,2023.2.3,MacIntel,58.82352941,368.83,369.829,,,,,,,,,,,,,,,,,,,,,,,,,,369.83,370.629,m,1,0.777,,370.629,370.629,,0,145,145,112,1,113,sezon,2315,105.1844,1917,0.2096,5,notharmonic,1.8,word,m,,,,,,,
,,,,,,,,,,,Kaan Alkır,001,2023-11-09_12h59.47.738,vowel_harmony,2023.2.3,MacIntel,58.82352941,370.63,371.63,,,,,,,,,,,,,,,,,,,,,,,,,,371.63,372.329,m,1,0.677,,372.329,372.33,,0,146,146,108,1,109,tarih,2806,127.4935,2483,0.2714,5,notharmonic,1.55,word,m,,,,,,,
,,,,,,,,,,,Kaan Alkır,001,2023-11-09_12h59.47.738,vowel_harmony,2023.2.3,MacIntel,58.82352941,372.33,373.329,,,,,,,,,,,,,,,,,,,,,,,,,,373.329,374.212,z,1,0.866,,374.212,374.212,,0,147,147,280,1,281,adalek,,,,,6,notharmonic,1.85,nw,z,,,,,,,
,,,,,,,,,,,Kaan Alkır,001,2023-11-09_12h59.47.738,vowel_harmony,2023.2.3,MacIntel,58.82352941,374.213,375.212,,,,,,,,,,,,,,,,,,,,,,,,,,375.212,376.046,m,1,0.815,,376.046,376.047,,0,148,148,101,1,102,imza,1358,61.7021,1253,0.137,4,notharmonic,1.65,word,m,,,,,,,
,,,,,,,,,,,Kaan Alkır,001,2023-11-09_12h59.47.738,vowel_harmony,2023.2.3,MacIntel,58.82352941,376.047,377.046,,,,,,,,,,,,,,,,,,,,,,,,,,377.046,378.446,m,1,1.379,,378.446,378.447,,0,149,149,119,1,120,kulüp,649,29.488,467,0.0511,5,notharmonic,1.4,word,m,,,,,,,
,,,,,,,,,,,Kaan Alkır,001,2023-11-09_12h59.47.738,vowel_harmony,2023.2.3,MacIntel,58.82352941,378.447,379.446,,,,,,,,,,,,,,,,,,,,,,,,,,379.446,380.213,z,1,0.748,,380.213,380.213,,0,150,150,218,1,219,tezöl,,,,,5,harmonic,2,nw,z,,,,,,,
,,,,,,,,,,,Kaan Alkır,001,2023-11-09_12h59.47.738,vowel_harmony,2023.2.3,MacIntel,58.82352941,380.214,381.218,,,,,,,,,,,,,,,,,,,,,,,,,,381.218,382.029,m,1,0.789,,382.029,382.03,,0,151,151,169,1,170,hikaye,1555,70.653,1405,0.1536,6,notharmonic,1.8,word,m,,,,,,,
,,,,,,,,,,,Kaan Alkır,001,2023-11-09_12h59.47.738,vowel_harmony,2023.2.3,MacIntel,58.82352941,382.03,383.03,,,,,,,,,,,,,,,,,,,,,,,,,,383.03,383.78,m,1,0.73,,383.78,383.78,,0,152,152,16,1,17,yavaş,5087,231.1331,2886,0.3155,5,harmonic,1.6,word,m,,,,,,,
,,,,,,,,,,,Kaan Alkır,001,2023-11-09_12h59.47.738,vowel_harmony,2023.2.3,MacIntel,58.82352941,383.781,384.78,,,,,,,,,,,,,,,,,,,,,,,,,,384.78,385.596,m,1,0.797,,385.596,385.597,,0,153,153,99,1,100,ilave,3173,144.1685,2619,0.2863,5,notharmonic,1.85,word,m,,,,,,,
,,,,,,,,,,,Kaan Alkır,001,2023-11-09_12h59.47.738,vowel_harmony,2023.2.3,MacIntel,58.82352941,385.598,386.597,,,,,,,,,,,,,,,,,,,,,,,,,,386.597,387.496,z,1,0.883,,387.496,387.497,,0,154,154,271,1,272,mimal,,,,,5,notharmonic,1.8,nw,z,,,,,,,
,,,,,,,,,,,Kaan Alkır,001,2023-11-09_12h59.47.738,vowel_harmony,2023.2.3,MacIntel,58.82352941,387.497,388.497,,,,,,,,,,,,,,,,,,,,,,,,,,388.497,389.229,m,1,0.712,,389.229,389.229,,0,155,155,3,1,4,minik,2916,132.4915,2594,0.2836,5,harmonic,1.6,word,m,,,,,,,
,,,,,,,,,,,Kaan Alkır,001,2023-11-09_12h59.47.738,vowel_harmony,2023.2.3,MacIntel,58.82352941,389.23,390.229,,,,,,,,,,,,,,,,,,,,,,,,,,390.229,391.03,m,1,0.78,,391.03,391.03,,0,156,156,157,1,158,aktif,1062,48.2531,986,0.1078,5,notharmonic,1.9,word,m,,,,,,,
,,,,,,,,,,,Kaan Alkır,001,2023-11-09_12h59.47.738,vowel_harmony,2023.2.3,MacIntel,58.82352941,391.031,392.03,,,,,,,,,,,,,,,,,,,,,,,,,,392.03,392.88,m,1,0.829,,392.88,392.88,,0,157,157,137,1,138,parti,2613,118.7244,2059,0.2251,5,notharmonic,1.8,word,m,,,,,,,
,,,,,,,,,,,Kaan Alkır,001,2023-11-09_12h59.47.738,vowel_harmony,2023.2.3,MacIntel,58.82352941,392.88,393.88,,,,,,,,,,,,,,,,,,,,,,,,,,393.88,394.679,z,1,0.784,,394.679,394.679,,0,158,158,257,1,258,zerü,,,,,4,harmonic,1.8,nw,z,,,,,,,
,,,,,,,,,,,Kaan Alkır,001,2023-11-09_12h59.47.738,vowel_harmony,2023.2.3,MacIntel,58.82352941,394.68,395.68,,,,,,,,,,,,,,,,,,,,,,,,,,395.68,396.63,m,1,0.93,,396.63,396.63,,0,159,159,136,1,137,beyaz,5517,250.6706,4788,0.5234,5,notharmonic,1.85,word,m,,,,,,,
,,,,,,,,,,,Kaan Alkır,001,2023-11-09_12h59.47.738,vowel_harmony,2023.2.3,MacIntel,58.82352941,396.63,397.63,,,,,,,,,,,,,,,,,,,,,,,,,,397.63,399.013,m,1,1.37,,399.013,399.013,,0,160,160,31,1,32,fazla,18293,831.1614,16694,1.825,5,harmonic,1,word,m,,,,,,,
,,,,,,,,,,,Kaan Alkır,001,2023-11-09_12h59.47.738,vowel_harmony,2023.2.3,MacIntel,58.82352941,399.013,400.012,,,,,,,,,,,,,,,,,,,,,,,,,,400.012,400.796,m,1,0.769,,400.796,400.797,,0,161,161,176,1,177,harika,4682,212.7315,4422,0.4834,6,notharmonic,1.9,word,m,,,,,,,
,,,,,,,,,,,Kaan Alkır,001,2023-11-09_12h59.47.738,vowel_harmony,2023.2.3,MacIntel,58.82352941,400.797,401.796,,,,,,,,,,,,,,,,,,,,,,,,,,401.796,402.313,m,1,0.498,,402.313,402.313,,0,162,162,21,1,22,duygu,1877,85.2834,1760,0.1924,5,harmonic,1.8,word,m,,,,,,,
,,,,,,,,,,,Kaan Alkır,001,2023-11-09_12h59.47.738,vowel_harmony,2023.2.3,MacIntel,58.82352941,402.314,403.313,,,,,,,,,,,,,,,,,,,,,,,,,,403.313,404.013,m,1,0.685,,404.013,404.014,,0,163,163,58,1,59,ayak,2143,97.3694,1931,0.2111,4,harmonic,1,word,m,,,,,,,
,,,,,,,,,,,Kaan Alkır,001,2023-11-09_12h59.47.738,vowel_harmony,2023.2.3,MacIntel,58.82352941,404.014,405.013,,,,,,,,,,,,,,,,,,,,,,,,,,405.013,405.763,z,1,0.733,,405.763,405.764,,0,164,164,317,1,318,mevul,,,,,5,notharmonic,1.95,nw,z,,,,,,,
,,,,,,,,,,,Kaan Alkır,001,2023-11-09_12h59.47.738,vowel_harmony,2023.2.3,MacIntel,58.82352941,405.764,406.762,,,,,,,,,,,,,,,,,,,,,,,,,,406.762,407.463,z,1,0.684,,407.463,407.463,,0,165,165,298,1,299,yelsın,,,,,6,notharmonic,1.95,nw,z,,,,,,,
,,,,,,,,,,,Kaan Alkır,001,2023-11-09_12h59.47.738,vowel_harmony,2023.2.3,MacIntel,58.82352941,407.464,408.463,,,,,,,,,,,,,,,,,,,,,,,,,,408.463,409.063,m,1,0.579,,409.063,409.064,,0,166,166,13,1,14,nokta,2085,94.7341,1939,0.212,5,harmonic,1.5,word,m,,,,,,,
,,,,,,,,,,,Kaan Alkır,001,2023-11-09_12h59.47.738,vowel_harmony,2023.2.3,MacIntel,58.82352941,409.064,410.063,,,,,,,,,,,,,,,,,,,,,,,,,,410.063,410.946,z,1,0.868,,410.946,410.947,,0,167,167,219,1,220,barlum,,,,,6,harmonic,1.9,nw,z,,,,,,,
,,,,,,,,,,,Kaan Alkır,001,2023-11-09_12h59.47.738,vowel_harmony,2023.2.3,MacIntel,58.82352941,410.947,411.946,,,,,,,,,,,,,,,,,,,,,,,,,,411.947,412.63,m,1,0.667,,412.63,412.63,,0,168,168,4,1,5,metre,1156,52.5241,1015,0.111,5,harmonic,1.7,word,m,,,,,,,
,,,,,,,,,,,Kaan Alkır,001,2023-11-09_12h59.47.738,vowel_harmony,2023.2.3,MacIntel,58.82352941,412.631,413.63,,,,,,,,,,,,,,,,,,,,,,,,,,413.63,414.329,m,1,0.679,,414.329,414.33,,0,169,169,88,1,89,yalnız,5891,267.6637,5440,0.5947,6,harmonic,1.6,word,m,,,,,,,
,,,,,,,,,,,Kaan Alkır,001,2023-11-09_12h59.47.738,vowel_harmony,2023.2.3,MacIntel,58.82352941,414.33,415.329,,,,,,,,,,,,,,,,,,,,,,,,,,415.329,415.963,m,1,0.613,,415.963,415.964,,0,170,170,20,1,21,nefes,2871,130.4469,2553,0.2791,5,harmonic,1.8,word,m,,,,,,,
,,,,,,,,,,,Kaan Alkır,001,2023-11-09_12h59.47.738,vowel_harmony,2023.2.3,MacIntel,58.82352941,415.964,416.963,,,,,,,,,,,,,,,,,,,,,,,,,,416.963,417.596,z,1,0.615,,417.596,417.596,,0,171,171,222,1,223,gelü,,,,,4,harmonic,1.75,nw,z,,,,,,,
,,,,,,,,,,,Kaan Alkır,001,2023-11-09_12h59.47.738,vowel_harmony,2023.2.3,MacIntel,58.82352941,417.597,418.597,,,,,,,,,,,,,,,,,,,,,,,,,,418.597,419.763,z,1,1.152,,419.763,419.763,,0,172,172,342,1,343,kulön,,,,,5,notharmonic,1.9,nw,z,,,,,,,
,,,,,,,,,,,Kaan Alkır,001,2023-11-09_12h59.47.738,vowel_harmony,2023.2.3,MacIntel,58.82352941,419.764,420.763,,,,,,,,,,,,,,,,,,,,,,,,,,420.763,421.546,z,1,0.767,,421.546,421.547,,0,173,173,192,1,193,vecö,,,,,4,harmonic,1.95,nw,z,,,,,,,
,,,,,,,,,,,Kaan Alkır,001,2023-11-09_12h59.47.738,vowel_harmony,2023.2.3,MacIntel,58.82352941,421.547,422.546,,,,,,,,,,,,,,,,,,,,,,,,,,422.547,423.78,z,1,1.211,,423.78,423.78,,0,174,174,337,1,338,bakem,,,,,5,notharmonic,1.7,nw,z,,,,,,,
,,,,,,,,,,,Kaan Alkır,001,2023-11-09_12h59.47.738,vowel_harmony,2023.2.3,MacIntel,58.82352941,423.781,424.78,,,,,,,,,,,,,,,,,,,,,,,,,,424.78,425.696,m,1,0.897,,425.697,425.697,,0,175,175,179,1,180,dakika,5891,267.6637,5207,0.5692,6,notharmonic,1.75,word,m,,,,,,,
,,,,,,,,,,,Kaan Alkır,001,2023-11-09_12h59.47.738,vowel_harmony,2023.2.3,MacIntel,58.82352941,425.697,426.696,,,,,,,,,,,,,,,,,,,,,,,,,,426.696,427.596,z,1,0.879,,427.596,427.597,,0,176,176,225,1,226,düvem,,,,,5,harmonic,1.7,nw,z,,,,,,,
,,,,,,,,,,,Kaan Alkır,001,2023-11-09_12h59.47.738,vowel_harmony,2023.2.3,MacIntel,58.82352941,427.597,428.597,,,,,,,,,,,,,,,,,,,,,,,,,,428.597,429.447,z,1,0.831,,429.447,429.447,,0,177,177,191,1,192,doab,,,,,4,harmonic,2,nw,z,,,,,,,
,,,,,,,,,,,Kaan Alkır,001,2023-11-09_12h59.47.738,vowel_harmony,2023.2.3,MacIntel,58.82352941,429.448,430.447,,,,,,,,,,,,,,,,,,,,,,,,,,430.447,431.663,z,1,1.196,,431.663,431.663,,0,178,178,295,1,296,haylin,,,,,6,notharmonic,1.8,nw,z,,,,,,,
,,,,,,,,,,,Kaan Alkır,001,2023-11-09_12h59.47.738,vowel_harmony,2023.2.3,MacIntel,58.82352941,431.664,432.663,,,,,,,,,,,,,,,,,,,,,,,,,,432.663,433.696,z,1,1.017,,433.696,433.697,,0,179,179,345,1,346,bardeş,,,,,6,notharmonic,1.95,nw,z,,,,,,,
,,,,,,,,,,,Kaan Alkır,001,2023-11-09_12h59.47.738,vowel_harmony,2023.2.3,MacIntel,58.82352941,433.697,434.697,,,,,,,,,,,,,,,,,,,,,,,,,,434.697,435.313,m,1,0.6,,435.313,435.314,,0,180,180,116,1,117,daire,621,28.2158,503,0.055,5,notharmonic,1,word,m,,,,,,,
,,,,,,,,,,,Kaan Alkır,001,2023-11-09_12h59.47.738,vowel_harmony,2023.2.3,MacIntel,58.82352941,435.314,436.313,,,,,,,,,,,,,,,,,,,,,,,,,,436.313,436.929,m,1,0.604,,436.93,436.93,,0,181,181,47,1,48,kaza,740,33.6227,679,0.0742,4,harmonic,1.85,word,m,,,,,,,
,,,,,,,,,,,Kaan Alkır,001,2023-11-09_12h59.47.738,vowel_harmony,2023.2.3,MacIntel,58.82352941,436.93,437.93,,,,,,,,,,,,,,,,,,,,,,,,,,437.93,438.596,z,1,0.653,,438.596,438.597,,0,182,182,348,1,349,aife,,,,,4,notharmonic,1.75,nw,z,,,,,,,
,,,,,,,,,,,Kaan Alkır,001,2023-11-09_12h59.47.738,vowel_harmony,2023.2.3,MacIntel,58.82352941,438.597,439.597,,,,,,,,,,,,,,,,,,,,,,,,,,439.597,440.813,z,1,1.198,,440.813,440.814,,0,183,183,281,1,282,afel,,,,,4,notharmonic,1.8,nw,z,,,,,,,
,,,,,,,,,,,Kaan Alkır,001,2023-11-09_12h59.47.738,vowel_harmony,2023.2.3,MacIntel,58.82352941,440.814,441.813,,,,,,,,,,,,,,,,,,,,,,,,,,441.813,442.613,z,1,0.784,,442.613,442.613,,0,184,184,296,1,297,işban,,,,,5,notharmonic,1.95,nw,z,,,,,,,
,,,,,,,,,,,Kaan Alkır,001,2023-11-09_12h59.47.738,vowel_harmony,2023.2.3,MacIntel,58.82352941,442.614,443.613,,,,,,,,,,,,,,,,,,,,,,,,,,443.613,444.697,m,1,1.062,,444.697,444.697,,0,185,185,142,1,143,siyasi,2909,132.1734,2445,0.2673,6,notharmonic,1.8,word,m,,,,,,,
,,,,,,,,,,,Kaan Alkır,001,2023-11-09_12h59.47.738,vowel_harmony,2023.2.3,MacIntel,58.82352941,444.697,445.697,,,,,,,,,,,,,,,,,,,,,,,,,,445.697,446.58,z,1,0.869,,446.58,446.58,,0,186,186,247,1,248,hafgın,,,,,6,harmonic,2,nw,z,,,,,,,
,,,,,,,,,,,Kaan Alkır,001,2023-11-09_12h59.47.738,vowel_harmony,2023.2.3,MacIntel,58.82352941,446.581,447.58,,,,,,,,,,,,,,,,,,,,,,,,,,447.58,448.163,m,1,0.565,,448.163,448.164,,0,187,187,86,1,87,gerçek,8983,408.1519,8058,0.8809,6,harmonic,1.7,word,m,,,,,,,
,,,,,,,,,,,Kaan Alkır,001,2023-11-09_12h59.47.738,vowel_harmony,2023.2.3,MacIntel,58.82352941,448.164,449.163,,,,,,,,,,,,,,,,,,,,,,,,,,449.163,449.763,m,1,0.579,,449.763,449.764,,0,188,188,91,1,92,ifade,6177,280.6584,5726,0.626,5,notharmonic,1.7,word,m,,,,,,,
,,,,,,,,,,,Kaan Alkır,001,2023-11-09_12h59.47.738,vowel_harmony,2023.2.3,MacIntel,58.82352941,449.764,450.763,,,,,,,,,,,,,,,,,,,,,,,,,,450.763,451.313,m,1,0.532,,451.313,451.314,,0,189,189,35,1,36,hava,4975,226.0443,4398,0.4808,4,harmonic,1,word,m,,,,,,,
,,,,,,,,,,,Kaan Alkır,001,2023-11-09_12h59.47.738,vowel_harmony,2023.2.3,MacIntel,58.82352941,451.314,452.313,,,,,,,,,,,,,,,,,,,,,,,,,,452.313,452.897,m,1,0.571,,452.897,452.897,,0,190,190,33,1,34,moda,1381,62.7472,1231,0.1346,4,harmonic,1.55,word,m,,,,,,,
,,,,,,,,,,,Kaan Alkır,001,2023-11-09_12h59.47.738,vowel_harmony,2023.2.3,MacIntel,58.82352941,452.898,453.897,,,,,,,,,,,,,,,,,,,,,,,,,,453.897,454.529,m,1,0.619,,454.529,454.53,,0,191,191,68,1,69,ücret,734,33.35,634,0.0693,5,harmonic,1.85,word,m,,,,,,,
,,,,,,,,,,,Kaan Alkır,001,2023-11-09_12h59.47.738,vowel_harmony,2023.2.3,MacIntel,58.82352941,454.53,455.53,,,,,,,,,,,,,,,,,,,,,,,,,,455.53,456.18,z,1,0.63,,456.18,456.18,,0,192,192,188,1,189,tonık,,,,,5,harmonic,1.85,nw,z,,,,,,,
,,,,,,,,,,,Kaan Alkır,001,2023-11-09_12h59.47.738,vowel_harmony,2023.2.3,MacIntel,58.82352941,456.18,457.18,,,,,,,,,,,,,,,,,,,,,,,,,,457.18,458.047,z,1,0.851,,458.047,458.047,,0,193,193,305,1,306,tamü,,,,,4,notharmonic,1.75,nw,z,,,,,,,
,,,,,,,,,,,Kaan Alkır,001,2023-11-09_12h59.47.738,vowel_harmony,2023.2.3,MacIntel,58.82352941,458.047,459.052,,,,,,,,,,,,,,,,,,,,,,,,,,459.052,460.197,z,1,1.126,,460.197,460.197,,0,194,194,278,1,279,sekon,,,,,5,notharmonic,1.85,nw,z,,,,,,,
,,,,,,,,,,,Kaan Alkır,001,2023-11-09_12h59.47.738,vowel_harmony,2023.2.3,MacIntel,58.82352941,460.198,461.197,,,,,,,,,,,,,,,,,,,,,,,,,,461.197,461.763,m,1,0.546,,461.764,461.764,,0,195,195,83,1,84,küçük,14048,638.2854,12467,1.3629,5,harmonic,1.75,word,m,,,,,,,
,,,,,,,,,,,Kaan Alkır,001,2023-11-09_12h59.47.738,vowel_harmony,2023.2.3,MacIntel,58.82352941,461.764,462.763,,,,,,,,,,,,,,,,,,,,,,,,,,462.763,463.33,z,1,0.547,,463.33,463.33,,0,196,196,180,1,181,ayaro,,,,,5,harmonic,1.8,nw,z,,,,,,,
,,,,,,,,,,,Kaan Alkır,001,2023-11-09_12h59.47.738,vowel_harmony,2023.2.3,MacIntel,58.82352941,463.331,464.33,,,,,,,,,,,,,,,,,,,,,,,,,,464.33,464.881,m,1,0.538,,464.881,464.881,,0,197,197,32,1,33,temel,4231,192.2399,3851,0.421,5,harmonic,1.55,word,m,,,,,,,
,,,,,,,,,,,Kaan Alkır,001,2023-11-09_12h59.47.738,vowel_harmony,2023.2.3,MacIntel,58.82352941,464.881,465.88,,,,,,,,,,,,,,,,,,,,,,,,,,465.88,466.763,z,1,0.861,,466.764,466.764,,0,198,198,206,1,207,bevek,,,,,5,harmonic,1.75,nw,z,,,,,,,
,,,,,,,,,,,Kaan Alkır,001,2023-11-09_12h59.47.738,vowel_harmony,2023.2.3,MacIntel,58.82352941,466.764,467.764,,,,,,,,,,,,,,,,,,,,,,,,,,467.764,468.529,z,1,0.744,,468.529,468.529,,0,199,199,251,1,252,oştay,,,,,5,harmonic,1.95,nw,z,,,,,,,
,,,,,,,,,,,Kaan Alkır,001,2023-11-09_12h59.47.738,vowel_harmony,2023.2.3,MacIntel,58.82352941,468.53,469.53,,,,,,,,,,,,,,,,,,,,,,,,,,469.53,470.363,z,1,0.817,,470.363,470.363,,0,200,200,208,1,209,yayram,,,,,6,harmonic,1.85,nw,z,,,,,,,
,,,,,,,,,,,Kaan Alkır,001,2023-11-09_12h59.47.738,vowel_harmony,2023.2.3,MacIntel,58.82352941,470.364,471.363,,,,,,,,,,,,,,,,,,,,,,,,,,471.363,472.13,m,1,0.745,,472.13,472.13,,0,201,201,66,1,67,sanık,768,34.8949,699,0.0764,5,harmonic,1.85,word,m,,,,,,,
,,,,,,,,,,,Kaan Alkır,001,2023-11-09_12h59.47.738,vowel_harmony,2023.2.3,MacIntel,58.82352941,472.13,473.13,,,,,,,,,,,,,,,,,,,,,,,,,,473.13,474.38,z,1,1.231,,474.38,474.38,,0,202,202,187,1,188,remrin,,,,,6,harmonic,1.9,nw,z,,,,,,,
,,,,,,,,,,,Kaan Alkır,001,2023-11-09_12h59.47.738,vowel_harmony,2023.2.3,MacIntel,58.82352941,474.381,475.38,,,,,,,,,,,,,,,,,,,,,,,,,,475.38,476.363,m,1,0.968,,476.363,476.364,,0,203,203,118,1,119,meşhur,1092,49.6161,1057,0.1156,6,notharmonic,1.9,word,m,,,,,,,
,,,,,,,,,,,Kaan Alkır,001,2023-11-09_12h59.47.738,vowel_harmony,2023.2.3,MacIntel,58.82352941,476.364,477.364,,,,,,,,,,,,,,,,,,,,,,,,,,477.364,478.197,m,1,0.812,,478.197,478.197,,0,204,204,138,1,139,kardeş,1270,57.7038,1174,0.1283,6,notharmonic,1.9,word,m,,,,,,,
,,,,,,,,,,,Kaan Alkır,001,2023-11-09_12h59.47.738,vowel_harmony,2023.2.3,MacIntel,58.82352941,478.197,479.196,,,,,,,,,,,,,,,,,,,,,,,,,,479.196,479.897,m,1,0.684,,479.897,479.897,,0,205,205,45,1,46,bilgi,5981,271.7529,5353,0.5852,5,harmonic,1.5,word,m,,,,,,,
,,,,,,,,,,,Kaan Alkır,001,2023-11-09_12h59.47.738,vowel_harmony,2023.2.3,MacIntel,58.82352941,479.898,480.897,,,,,,,,,,,,,,,,,,,,,,,,,,480.897,481.847,z,1,0.929,,481.847,481.847,,0,206,206,239,1,240,şekik,,,,,5,harmonic,1.7,nw,z,,,,,,,
,,,,,,,,,,,Kaan Alkır,001,2023-11-09_12h59.47.738,vowel_harmony,2023.2.3,MacIntel,58.82352941,481.848,482.847,,,,,,,,,,,,,,,,,,,,,,,,,,482.847,483.413,m,1,0.555,,483.414,483.414,,0,207,207,14,1,15,yaşam,4348,197.5559,3918,0.4283,5,harmonic,1.4,word,m,,,,,,,
,,,,,,,,,,,Kaan Alkır,001,2023-11-09_12h59.47.738,vowel_harmony,2023.2.3,MacIntel,58.82352941,483.414,484.414,,,,,,,,,,,,,,,,,,,,,,,,,,484.414,485.213,m,1,0.782,,485.214,485.214,,0,208,208,22,1,23,anlam,1730,78.6043,1617,0.1768,5,harmonic,1.25,word,m,,,,,,,
,,,,,,,,,,,Kaan Alkır,001,2023-11-09_12h59.47.738,vowel_harmony,2023.2.3,MacIntel,58.82352941,485.214,486.214,,,,,,,,,,,,,,,,,,,,,,,,,,486.214,487.279,m,1,1.046,,487.28,487.28,,0,209,209,124,1,125,ilan,1579,71.7435,1499,0.1639,4,notharmonic,1,word,m,,,,,,,
,,,,,,,,,,,Kaan Alkır,001,2023-11-09_12h59.47.738,vowel_harmony,2023.2.3,MacIntel,58.82352941,487.28,488.28,,,,,,,,,,,,,,,,,,,,,,,,,,488.28,489.03,z,1,0.733,,489.03,489.03,,0,210,210,186,1,187,habık,,,,,5,harmonic,1.9,nw,z,,,,,,,
,,,,,,,,,,,Kaan Alkır,001,2023-11-09_12h59.47.738,vowel_harmony,2023.2.3,MacIntel,58.82352941,489.031,490.03,,,,,,,,,,,,,,,,,,,,,,,,,,490.03,490.647,m,1,0.597,,490.647,490.647,,0,211,211,55,1,56,akıl,2208,100.3228,2004,0.2191,4,harmonic,1,word,m,,,,,,,
,,,,,,,,,,,Kaan Alkır,001,2023-11-09_12h59.47.738,vowel_harmony,2023.2.3,MacIntel,58.82352941,490.647,491.647,,,,,,,,,,,,,,,,,,,,,,,,,,491.647,492.363,m,1,0.703,,492.364,492.364,,0,212,212,177,1,178,tekrar,10788,490.1639,9352,1.0224,6,notharmonic,1.85,word,m,,,,,,,
,,,,,,,,,,,Kaan Alkır,001,2023-11-09_12h59.47.738,vowel_harmony,2023.2.3,MacIntel,58.82352941,492.364,493.364,,,,,,,,,,,,,,,,,,,,,,,,,,493.364,494.097,m,1,0.719,,494.097,494.097,,0,213,213,168,1,169,kilo,3389,153.9827,2646,0.2893,4,notharmonic,1.65,word,m,,,,,,,
,,,,,,,,,,,Kaan Alkır,001,2023-11-09_12h59.47.738,vowel_harmony,2023.2.3,MacIntel,58.82352941,494.098,495.097,,,,,,,,,,,,,,,,,,,,,,,,,,495.097,495.63,m,1,0.514,,495.63,495.631,,0,214,214,171,1,172,reklam,1565,71.1074,1244,0.136,6,notharmonic,1.9,word,m,,,,,,,
,,,,,,,,,,,Kaan Alkır,001,2023-11-09_12h59.47.738,vowel_harmony,2023.2.3,MacIntel,58.82352941,495.631,496.631,,,,,,,,,,,,,,,,,,,,,,,,,,496.631,497.497,z,1,0.845,,497.497,497.497,,0,215,215,189,1,190,düvre,,,,,5,harmonic,1.85,nw,z,,,,,,,
,,,,,,,,,,,Kaan Alkır,001,2023-11-09_12h59.47.738,vowel_harmony,2023.2.3,MacIntel,58.82352941,497.498,498.497,,,,,,,,,,,,,,,,,,,,,,,,,,498.497,499.13,m,1,0.612,,499.13,499.131,,0,216,216,170,1,171,basit,3385,153.801,3177,0.3473,5,notharmonic,1.65,word,m,,,,,,,
,,,,,,,,,,,Kaan Alkır,001,2023-11-09_12h59.47.738,vowel_harmony,2023.2.3,MacIntel,58.82352941,499.131,500.131,,,,,,,,,,,,,,,,,,,,,,,,,,500.131,500.747,z,1,0.595,,500.747,500.747,,0,217,217,279,1,280,tadde,,,,,5,notharmonic,1.8,nw,z,,,,,,,
,,,,,,,,,,,Kaan Alkır,001,2023-11-09_12h59.47.738,vowel_harmony,2023.2.3,MacIntel,58.82352941,500.748,501.747,,,,,,,,,,,,,,,,,,,,,,,,,,501.747,502.297,m,1,0.532,,502.297,502.298,,0,218,218,19,1,20,ödül,1063,48.2985,926,0.1012,4,harmonic,1.7,word,m,,,,,,,
,,,,,,,,,,,Kaan Alkır,001,2023-11-09_12h59.47.738,vowel_harmony,2023.2.3,MacIntel,58.82352941,502.298,503.297,,,,,,,,,,,,,,,,,,,,,,,,,,503.297,503.814,z,1,0.496,,503.814,503.814,,0,219,219,262,1,263,sauk,,,,,4,harmonic,1.85,nw,z,,,,,,,
,,,,,,,,,,,Kaan Alkır,001,2023-11-09_12h59.47.738,vowel_harmony,2023.2.3,MacIntel,58.82352941,503.815,504.814,,,,,,,,,,,,,,,,,,,,,,,,,,504.814,505.664,z,1,0.83,,505.664,505.664,,0,220,220,243,1,244,korguf,,,,,6,harmonic,2,nw,z,,,,,,,
,,,,,,,,,,,Kaan Alkır,001,2023-11-09_12h59.47.738,vowel_harmony,2023.2.3,MacIntel,58.82352941,505.664,506.663,,,,,,,,,,,,,,,,,,,,,,,,,,506.663,507.729,z,1,1.043,,507.729,507.73,,0,221,221,297,1,298,sapet,,,,,5,notharmonic,1.85,nw,z,,,,,,,
,,,,,,,,,,,Kaan Alkır,001,2023-11-09_12h59.47.738,vowel_harmony,2023.2.3,MacIntel,58.82352941,507.73,508.73,,,,,,,,,,,,,,,,,,,,,,,,,,508.73,509.63,z,1,0.884,,509.63,509.631,,0,222,222,264,1,265,vepü,,,,,4,harmonic,2,nw,z,,,,,,,
,,,,,,,,,,,Kaan Alkır,001,2023-11-09_12h59.47.738,vowel_harmony,2023.2.3,MacIntel,58.82352941,509.631,510.63,,,,,,,,,,,,,,,,,,,,,,,,,,510.63,511.63,z,1,0.987,,511.63,511.631,,0,223,223,207,1,208,örtre,,,,,5,harmonic,1.85,nw,z,,,,,,,
,,,,,,,,,,,Kaan Alkır,001,2023-11-09_12h59.47.738,vowel_harmony,2023.2.3,MacIntel,58.82352941,511.631,512.63,,,,,,,,,,,,,,,,,,,,,,,,,,512.63,513.264,m,1,0.617,,513.264,513.264,,0,224,224,41,1,42,zengin,2193,99.6412,2015,0.2203,6,harmonic,1.65,word,m,,,,,,,
,,,,,,,,,,,Kaan Alkır,001,2023-11-09_12h59.47.738,vowel_harmony,2023.2.3,MacIntel,58.82352941,513.264,514.264,,,,,,,,,,,,,,,,,,,,,,,,,,514.264,514.814,m,1,0.53,,514.814,514.814,,0,225,225,110,1,111,rüya,1062,48.2531,937,0.1024,4,notharmonic,1.75,word,m,,,,,,,
,,,,,,,,,,,Kaan Alkır,001,2023-11-09_12h59.47.738,vowel_harmony,2023.2.3,MacIntel,58.82352941,514.815,515.814,,,,,,,,,,,,,,,,,,,,,,,,,,515.814,517.064,z,1,1.23,,517.064,517.064,,0,226,226,221,1,222,yaypın,,,,,6,harmonic,1.75,nw,z,,,,,,,
,,,,,,,,,,,Kaan Alkır,001,2023-11-09_12h59.47.738,vowel_harmony,2023.2.3,MacIntel,58.82352941,517.064,518.064,,,,,,,,,,,,,,,,,,,,,,,,,,518.064,518.83,z,1,0.747,,518.831,518.831,,0,227,227,240,1,241,hoga,,,,,4,harmonic,1.75,nw,z,,,,,,,
,,,,,,,,,,,Kaan Alkır,001,2023-11-09_12h59.47.738,vowel_harmony,2023.2.3,MacIntel,58.82352941,518.831,519.83,,,,,,,,,,,,,,,,,,,,,,,,,,519.83,520.547,m,1,0.696,,520.547,520.547,,0,228,228,39,1,40,yaygın,1061,48.2076,1019,0.1114,6,harmonic,1.35,word,m,,,,,,,
,,,,,,,,,,,Kaan Alkır,001,2023-11-09_12h59.47.738,vowel_harmony,2023.2.3,MacIntel,58.82352941,520.548,521.547,,,,,,,,,,,,,,,,,,,,,,,,,,521.547,522.53,z,1,0.966,,522.53,522.53,,0,229,229,276,1,277,iptap,,,,,5,notharmonic,1.95,nw,z,,,,,,,
,,,,,,,,,,,Kaan Alkır,001,2023-11-09_12h59.47.738,vowel_harmony,2023.2.3,MacIntel,58.82352941,522.531,523.53,,,,,,,,,,,,,,,,,,,,,,,,,,523.53,524.247,m,1,0.695,,524.247,524.247,,0,230,230,72,1,73,çorba,1674,76.0599,1513,0.1654,5,harmonic,1.75,word,m,,,,,,,
,,,,,,,,,,,Kaan Alkır,001,2023-11-09_12h59.47.738,vowel_harmony,2023.2.3,MacIntel,58.82352941,524.248,525.247,,,,,,,,,,,,,,,,,,,,,,,,,,525.247,526.214,z,1,0.951,,526.214,526.214,,0,231,231,252,1,253,anlgı,,,,,5,harmonic,1.9,nw,z,,,,,,,
,,,,,,,,,,,Kaan Alkır,001,2023-11-09_12h59.47.738,vowel_harmony,2023.2.3,MacIntel,58.82352941,526.214,527.214,,,,,,,,,,,,,,,,,,,,,,,,,,527.214,527.831,m,1,0.598,,527.831,527.831,,0,232,232,76,1,77,ilişki,1675,76.1054,1524,0.1666,6,harmonic,1.8,word,m,,,,,,,
,,,,,,,,,,,Kaan Alkır,001,2023-11-09_12h59.47.738,vowel_harmony,2023.2.3,MacIntel,58.82352941,527.831,528.83,,,,,,,,,,,,,,,,,,,,,,,,,,528.83,529.664,z,1,0.812,,529.664,529.664,,0,233,233,359,1,360,kardez,,,,,6,notharmonic,1.95,nw,z,,,,,,,
,,,,,,,,,,,Kaan Alkır,001,2023-11-09_12h59.47.738,vowel_harmony,2023.2.3,MacIntel,58.82352941,529.664,530.663,,,,,,,,,,,,,,,,,,,,,,,,,,530.663,531.313,m,1,0.634,,531.313,531.313,,0,234,234,156,1,157,medya,1784,81.0579,1495,0.1634,5,notharmonic,1.35,word,m,,,,,,,
,,,,,,,,,,,Kaan Alkır,001,2023-11-09_12h59.47.738,vowel_harmony,2023.2.3,MacIntel,58.82352941,531.313,532.314,,,,,,,,,,,,,,,,,,,,,,,,,,532.314,533.23,m,1,0.896,,533.23,533.23,,0,235,235,127,1,128,şahane,1153,52.3877,1108,0.1211,6,notharmonic,1.8,word,m,,,,,,,
,,,,,,,,,,,Kaan Alkır,001,2023-11-09_12h59.47.738,vowel_harmony,2023.2.3,MacIntel,58.82352941,533.231,534.23,,,,,,,,,,,,,,,,,,,,,,,,,,534.23,535.497,z,1,1.249,,535.497,535.497,,0,236,236,231,1,232,norgun,,,,,6,harmonic,1.75,nw,z,,,,,,,
,,,,,,,,,,,Kaan Alkır,001,2023-11-09_12h59.47.738,vowel_harmony,2023.2.3,MacIntel,58.82352941,535.498,536.497,,,,,,,,,,,,,,,,,,,,,,,,,,536.497,537.114,m,1,0.596,,537.114,537.114,,0,237,237,178,1,179,dikkat,6230,283.0665,5888,0.6437,6,notharmonic,2.05,word,m,,,,,,,
,,,,,,,,,,,Kaan Alkır,001,2023-11-09_12h59.47.738,vowel_harmony,2023.2.3,MacIntel,58.82352941,537.114,538.114,,,,,,,,,,,,,,,,,,,,,,,,,,538.114,538.73,z,1,0.596,,538.73,538.73,,0,238,238,215,1,216,aydo,,,,,4,harmonic,1.9,nw,z,,,,,,,
,,,,,,,,,,,Kaan Alkır,001,2023-11-09_12h59.47.738,vowel_harmony,2023.2.3,MacIntel,58.82352941,538.731,539.731,,,,,,,,,,,,,,,,,,,,,,,,,,539.731,540.814,z,1,1.062,,540.814,540.814,,0,239,239,196,1,197,bilön,,,,,5,harmonic,1.9,nw,z,,,,,,,
,,,,,,,,,,,Kaan Alkır,001,2023-11-09_12h59.47.738,vowel_harmony,2023.2.3,MacIntel,58.82352941,540.814,541.814,,,,,,,,,,,,,,,,,,,,,,,,,,541.814,542.397,z,1,0.565,,542.397,557.381,space,0,240,240,274,1,275,pisan,,,,,5,notharmonic,1.75,nw,z,14.963,,,,,,
,,,,,,,,,,,Kaan Alkır,001,2023-11-09_12h59.47.738,vowel_harmony,2023.2.3,MacIntel,58.82352941,557.382,558.38,,,,,,,,,,,,,,,,,,,,,,,,,,558.38,559.097,m,1,0.698,,559.097,559.098,,0,241,241,173,1,174,sade,1193,54.2052,1114,0.1218,4,notharmonic,1.55,word,m,,,,,,,
,,,,,,,,,,,Kaan Alkır,001,2023-11-09_12h59.47.738,vowel_harmony,2023.2.3,MacIntel,58.82352941,559.098,560.097,,,,,,,,,,,,,,,,,,,,,,,,,,560.098,561.047,z,1,0.929,,561.048,561.048,,0,242,242,265,1,266,parula,,,,,6,harmonic,1.75,nw,z,,,,,,,
,,,,,,,,,,,Kaan Alkır,001,2023-11-09_12h59.47.738,vowel_harmony,2023.2.3,MacIntel,58.82352941,561.048,562.046,,,,,,,,,,,,,,,,,,,,,,,,,,562.047,562.781,z,1,0.713,,562.781,562.781,,0,243,243,258,1,259,karıha,,,,,6,harmonic,1.75,nw,z,,,,,,,
,,,,,,,,,,,Kaan Alkır,001,2023-11-09_12h59.47.738,vowel_harmony,2023.2.3,MacIntel,58.82352941,562.781,563.781,,,,,,,,,,,,,,,,,,,,,,,,,,563.781,564.597,z,1,0.795,,564.597,564.597,,0,244,244,354,1,355,taden,,,,,5,notharmonic,1.7,nw,z,,,,,,,
,,,,,,,,,,,Kaan Alkır,001,2023-11-09_12h59.47.738,vowel_harmony,2023.2.3,MacIntel,58.82352941,564.598,565.597,,,,,,,,,,,,,,,,,,,,,,,,,,565.597,566.297,m,1,0.678,,566.297,566.297,,0,245,245,152,1,153,tedavi,1865,84.7382,1597,0.1746,6,notharmonic,1.8,word,m,,,,,,,
,,,,,,,,,,,Kaan Alkır,001,2023-11-09_12h59.47.738,vowel_harmony,2023.2.3,MacIntel,58.82352941,566.298,567.297,,,,,,,,,,,,,,,,,,,,,,,,,,567.298,568.097,z,1,0.778,,568.098,568.098,,0,246,246,308,1,309,hafer,,,,,5,notharmonic,1.85,nw,z,,,,,,,
,,,,,,,,,,,Kaan Alkır,001,2023-11-09_12h59.47.738,vowel_harmony,2023.2.3,MacIntel,58.82352941,568.098,569.098,,,,,,,,,,,,,,,,,,,,,,,,,,569.098,569.964,m,1,0.845,,569.964,569.964,,0,247,247,28,1,29,parlak,1142,51.888,1088,0.1189,6,harmonic,1.7,word,m,,,,,,,
,,,,,,,,,,,Kaan Alkır,001,2023-11-09_12h59.47.738,vowel_harmony,2023.2.3,MacIntel,58.82352941,569.965,570.964,,,,,,,,,,,,,,,,,,,,,,,,,,570.964,571.631,m,1,0.645,,571.631,571.631,,0,248,248,129,1,130,tahmin,2353,106.911,2273,0.2485,6,notharmonic,1.6,word,m,,,,,,,
,,,,,,,,,,,Kaan Alkır,001,2023-11-09_12h59.47.738,vowel_harmony,2023.2.3,MacIntel,58.82352941,571.632,572.631,,,,,,,,,,,,,,,,,,,,,,,,,,572.631,573.564,m,1,0.911,,573.564,573.564,,0,249,249,165,1,166,gazete,1402,63.7013,1270,0.1388,6,notharmonic,1.8,word,m,,,,,,,
,,,,,,,,,,,Kaan Alkır,001,2023-11-09_12h59.47.738,vowel_harmony,2023.2.3,MacIntel,58.82352941,573.565,574.563,,,,,,,,,,,,,,,,,,,,,,,,,,574.563,575.114,m,1,0.529,,575.114,575.114,,0,250,250,164,1,165,sinema,1575,71.5618,1304,0.1426,6,notharmonic,1.8,word,m,,,,,,,
,,,,,,,,,,,Kaan Alkır,001,2023-11-09_12h59.47.738,vowel_harmony,2023.2.3,MacIntel,58.82352941,575.115,576.113,,,,,,,,,,,,,,,,,,,,,,,,,,576.113,576.881,z,1,0.746,,576.881,576.881,,0,251,251,235,1,236,oşup,,,,,4,harmonic,1.75,nw,z,,,,,,,
,,,,,,,,,,,Kaan Alkır,001,2023-11-09_12h59.47.738,vowel_harmony,2023.2.3,MacIntel,58.82352941,576.881,577.881,,,,,,,,,,,,,,,,,,,,,,,,,,577.881,578.731,z,1,0.83,,578.731,578.731,,0,252,252,352,1,353,yılden,,,,,6,notharmonic,1.8,nw,z,,,,,,,
,,,,,,,,,,,Kaan Alkır,001,2023-11-09_12h59.47.738,vowel_harmony,2023.2.3,MacIntel,58.82352941,578.731,579.731,,,,,,,,,,,,,,,,,,,,,,,,,,579.731,580.431,z,1,0.684,,580.431,580.431,,0,253,253,292,1,293,kinam,,,,,5,notharmonic,1.85,nw,z,,,,,,,
,,,,,,,,,,,Kaan Alkır,001,2023-11-09_12h59.47.738,vowel_harmony,2023.2.3,MacIntel,58.82352941,580.432,581.431,,,,,,,,,,,,,,,,,,,,,,,,,,581.431,582.148,m,1,0.697,,582.148,582.148,,0,254,254,62,1,63,cümle,1911,86.8283,1765,0.193,5,harmonic,1.85,word,m,,,,,,,
,,,,,,,,,,,Kaan Alkır,001,2023-11-09_12h59.47.738,vowel_harmony,2023.2.3,MacIntel,58.82352941,582.148,583.148,,,,,,,,,,,,,,,,,,,,,,,,,,583.148,583.964,z,1,0.794,,583.964,583.964,,0,255,255,322,1,323,normin,,,,,6,notharmonic,1.95,nw,z,,,,,,,
,,,,,,,,,,,Kaan Alkır,001,2023-11-09_12h59.47.738,vowel_harmony,2023.2.3,MacIntel,58.82352941,583.965,584.964,,,,,,,,,,,,,,,,,,,,,,,,,,584.964,585.631,z,1,0.646,,585.631,585.631,,0,256,256,284,1,285,deval,,,,,5,notharmonic,1.75,nw,z,,,,,,,
,,,,,,,,,,,Kaan Alkır,001,2023-11-09_12h59.47.738,vowel_harmony,2023.2.3,MacIntel,58.82352941,585.632,586.631,,,,,,,,,,,,,,,,,,,,,,,,,,586.631,587.514,z,1,0.867,,587.515,587.515,,0,257,257,232,1,233,kanur,,,,,5,harmonic,1.7,nw,z,,,,,,,
,,,,,,,,,,,Kaan Alkır,001,2023-11-09_12h59.47.738,vowel_harmony,2023.2.3,MacIntel,58.82352941,587.515,588.514,,,,,,,,,,,,,,,,,,,,,,,,,,588.514,589.614,z,1,1.084,,589.615,589.615,,0,258,258,253,1,254,meslet,,,,,6,harmonic,1.85,nw,z,,,,,,,
,,,,,,,,,,,Kaan Alkır,001,2023-11-09_12h59.47.738,vowel_harmony,2023.2.3,MacIntel,58.82352941,589.615,590.614,,,,,,,,,,,,,,,,,,,,,,,,,,590.614,591.448,m,1,0.811,,591.448,591.448,,0,259,259,106,1,107,esnaf,315,14.3124,284,0.031,5,notharmonic,1.55,word,m,,,,,,,
,,,,,,,,,,,Kaan Alkır,001,2023-11-09_12h59.47.738,vowel_harmony,2023.2.3,MacIntel,58.82352941,591.448,592.447,,,,,,,,,,,,,,,,,,,,,,,,,,592.448,593.164,z,1,0.704,,593.164,593.164,,0,260,260,321,1,322,makih,,,,,5,notharmonic,1.8,nw,z,,,,,,,
,,,,,,,,,,,Kaan Alkır,001,2023-11-09_12h59.47.738,vowel_harmony,2023.2.3,MacIntel,58.82352941,593.165,594.164,,,,,,,,,,,,,,,,,,,,,,,,,,594.164,594.931,z,1,0.752,,594.931,594.932,,0,261,261,229,1,230,tonam,,,,,5,harmonic,1.8,nw,z,,,,,,,
,,,,,,,,,,,Kaan Alkır,001,2023-11-09_12h59.47.738,vowel_harmony,2023.2.3,MacIntel,58.82352941,594.932,595.931,,,,,,,,,,,,,,,,,,,,,,,,,,595.931,596.632,m,1,0.68,,596.632,596.632,,0,262,262,69,1,70,forma,719,32.6685,597,0.0653,5,harmonic,1.8,word,m,,,,,,,
,,,,,,,,,,,Kaan Alkır,001,2023-11-09_12h59.47.738,vowel_harmony,2023.2.3,MacIntel,58.82352941,596.633,597.631,,,,,,,,,,,,,,,,,,,,,,,,,,597.631,598.281,m,1,0.629,,598.281,598.282,,0,263,263,158,1,159,klasik,1871,85.0108,1734,0.1896,6,notharmonic,2,word,m,,,,,,,
,,,,,,,,,,,Kaan Alkır,001,2023-11-09_12h59.47.738,vowel_harmony,2023.2.3,MacIntel,58.82352941,598.282,599.281,,,,,,,,,,,,,,,,,,,,,,,,,,599.281,600.148,z,1,0.853,,600.148,600.148,,0,264,264,325,1,326,garit,,,,,5,notharmonic,1.85,nw,z,,,,,,,
,,,,,,,,,,,Kaan Alkır,001,2023-11-09_12h59.47.738,vowel_harmony,2023.2.3,MacIntel,58.82352941,600.148,601.148,,,,,,,,,,,,,,,,,,,,,,,,,,601.148,602.081,z,1,0.914,,602.081,602.081,,0,265,265,315,1,316,takep,,,,,5,notharmonic,1.85,nw,z,,,,,,,
,,,,,,,,,,,Kaan Alkır,001,2023-11-09_12h59.47.738,vowel_harmony,2023.2.3,MacIntel,58.82352941,602.082,603.081,,,,,,,,,,,,,,,,,,,,,,,,,,603.081,604.081,z,1,0.985,,604.081,604.081,,0,266,266,233,1,234,devpi,,,,,5,harmonic,1.8,nw,z,,,,,,,
,,,,,,,,,,,Kaan Alkır,001,2023-11-09_12h59.47.738,vowel_harmony,2023.2.3,MacIntel,58.82352941,604.082,605.081,,,,,,,,,,,,,,,,,,,,,,,,,,605.081,606.481,m,1,1.38,,606.482,606.482,,0,267,267,60,1,61,doğu,2105,95.6429,1823,0.1993,4,harmonic,1.05,word,m,,,,,,,
,,,,,,,,,,,Kaan Alkır,001,2023-11-09_12h59.47.738,vowel_harmony,2023.2.3,MacIntel,58.82352941,606.482,607.481,,,,,,,,,,,,,,,,,,,,,,,,,,607.481,608.464,z,1,0.962,,608.464,608.464,,0,268,268,293,1,294,esnan,,,,,5,notharmonic,1.85,nw,z,,,,,,,
,,,,,,,,,,,Kaan Alkır,001,2023-11-09_12h59.47.738,vowel_harmony,2023.2.3,MacIntel,58.82352941,608.464,609.464,,,,,,,,,,,,,,,,,,,,,,,,,,609.464,610.331,m,1,0.845,,610.331,610.331,,0,269,269,139,1,140,lira,1253,56.9314,947,0.1035,4,notharmonic,1.4,word,m,,,,,,,
,,,,,,,,,,,Kaan Alkır,001,2023-11-09_12h59.47.738,vowel_harmony,2023.2.3,MacIntel,58.82352941,610.332,611.331,,,,,,,,,,,,,,,,,,,,,,,,,,611.331,612.315,m,1,0.963,,612.315,612.316,,0,270,270,2,1,3,radyo,763,34.6677,636,0.0695,5,harmonic,1.85,word,m,,,,,,,
,,,,,,,,,,,Kaan Alkır,001,2023-11-09_12h59.47.738,vowel_harmony,2023.2.3,MacIntel,58.82352941,612.317,613.314,,,,,,,,,,,,,,,,,,,,,,,,,,613.314,613.931,m,1,0.6,,613.931,613.932,,0,271,271,153,1,154,inşaat,432,19.6284,376,0.0411,6,notharmonic,1.6,word,m,,,,,,,
,,,,,,,,,,,Kaan Alkır,001,2023-11-09_12h59.47.738,vowel_harmony,2023.2.3,MacIntel,58.82352941,613.933,614.931,,,,,,,,,,,,,,,,,,,,,,,,,,614.931,615.614,z,1,0.662,,615.615,615.615,,0,272,272,197,1,198,ranar,,,,,5,harmonic,1.75,nw,z,,,,,,,
,,,,,,,,,,,Kaan Alkır,001,2023-11-09_12h59.47.738,vowel_harmony,2023.2.3,MacIntel,58.82352941,615.615,616.613,,,,,,,,,,,,,,,,,,,,,,,,,,616.613,617.898,z,1,1.262,,617.898,617.898,,0,273,273,237,1,238,taşal,,,,,5,harmonic,1.8,nw,z,,,,,,,
,,,,,,,,,,,Kaan Alkır,001,2023-11-09_12h59.47.738,vowel_harmony,2023.2.3,MacIntel,58.82352941,617.899,618.898,,,,,,,,,,,,,,,,,,,,,,,,,,618.898,620.031,z,1,1.121,,620.032,620.032,,0,274,274,245,1,246,bıyan,,,,,5,harmonic,1.7,nw,z,,,,,,,
,,,,,,,,,,,Kaan Alkır,001,2023-11-09_12h59.47.738,vowel_harmony,2023.2.3,MacIntel,58.82352941,620.032,621.031,,,,,,,,,,,,,,,,,,,,,,,,,,621.031,621.748,m,1,0.695,,621.748,621.748,,0,275,275,25,1,26,rapor,703,31.9415,617,0.0675,5,harmonic,1.8,word,m,,,,,,,
,,,,,,,,,,,Kaan Alkır,001,2023-11-09_12h59.47.738,vowel_harmony,2023.2.3,MacIntel,58.82352941,621.748,622.748,,,,,,,,,,,,,,,,,,,,,,,,,,622.748,623.664,z,1,0.901,,623.664,623.665,,0,276,276,190,1,191,reklen,,,,,6,harmonic,1.8,nw,z,,,,,,,
,,,,,,,,,,,Kaan Alkır,001,2023-11-09_12h59.47.738,vowel_harmony,2023.2.3,MacIntel,58.82352941,623.665,624.665,,,,,,,,,,,,,,,,,,,,,,,,,,624.665,625.414,z,1,0.729,,625.415,625.415,,0,277,277,270,1,271,miyaj,,,,,5,notharmonic,1.9,nw,z,,,,,,,
,,,,,,,,,,,Kaan Alkır,001,2023-11-09_12h59.47.738,vowel_harmony,2023.2.3,MacIntel,58.82352941,625.415,626.414,,,,,,,,,,,,,,,,,,,,,,,,,,626.415,627.414,z,1,0.978,,627.414,627.415,,0,278,278,267,1,268,nokuma,,,,,6,harmonic,1.75,nw,z,,,,,,,
,,,,,,,,,,,Kaan Alkır,001,2023-11-09_12h59.47.738,vowel_harmony,2023.2.3,MacIntel,58.82352941,627.415,628.415,,,,,,,,,,,,,,,,,,,,,,,,,,628.415,629.114,m,1,0.684,,629.114,629.114,,0,279,279,120,1,121,ihmal,1002,45.5269,977,0.1068,5,notharmonic,1.65,word,m,,,,,,,
,,,,,,,,,,,Kaan Alkır,001,2023-11-09_12h59.47.738,vowel_harmony,2023.2.3,MacIntel,58.82352941,629.115,630.114,,,,,,,,,,,,,,,,,,,,,,,,,,630.114,630.748,m,1,0.614,,630.748,630.748,,0,280,280,57,1,58,bölüm,1910,86.7828,1605,0.1755,5,harmonic,1.45,word,m,,,,,,,
,,,,,,,,,,,Kaan Alkır,001,2023-11-09_12h59.47.738,vowel_harmony,2023.2.3,MacIntel,58.82352941,630.749,631.748,,,,,,,,,,,,,,,,,,,,,,,,,,631.748,632.931,m,1,1.162,,632.931,632.931,,0,281,281,37,1,38,hayvan,2363,107.3653,1894,0.2071,6,harmonic,1.5,word,m,,,,,,,
,,,,,,,,,,,Kaan Alkır,001,2023-11-09_12h59.47.738,vowel_harmony,2023.2.3,MacIntel,58.82352941,632.932,633.931,,,,,,,,,,,,,,,,,,,,,,,,,,633.931,634.531,m,1,0.58,,634.531,634.532,,0,282,282,6,1,7,hayal,4498,204.3713,4079,0.4459,5,harmonic,1.45,word,m,,,,,,,
,,,,,,,,,,,Kaan Alkır,001,2023-11-09_12h59.47.738,vowel_harmony,2023.2.3,MacIntel,58.82352941,634.532,635.531,,,,,,,,,,,,,,,,,,,,,,,,,,635.531,636.731,z,1,1.179,,636.731,636.731,,0,283,283,289,1,290,karmen,,,,,6,notharmonic,1.75,nw,z,,,,,,,
,,,,,,,,,,,Kaan Alkır,001,2023-11-09_12h59.47.738,vowel_harmony,2023.2.3,MacIntel,58.82352941,636.732,637.731,,,,,,,,,,,,,,,,,,,,,,,,,,637.731,638.332,m,1,0.579,,638.332,638.332,,0,284,284,148,1,149,selam,1868,84.8745,1764,0.1928,5,notharmonic,1.35,word,m,,,,,,,
,,,,,,,,,,,Kaan Alkır,001,2023-11-09_12h59.47.738,vowel_harmony,2023.2.3,MacIntel,58.82352941,638.332,639.331,,,,,,,,,,,,,,,,,,,,,,,,,,639.332,639.981,z,1,0.627,,639.981,639.981,,0,285,285,212,1,213,ortat,,,,,5,harmonic,1.7,nw,z,,,,,,,
,,,,,,,,,,,Kaan Alkır,001,2023-11-09_12h59.47.738,vowel_harmony,2023.2.3,MacIntel,58.82352941,639.982,640.981,,,,,,,,,,,,,,,,,,,,,,,,,,640.981,641.781,z,1,0.783,,641.781,641.781,,0,286,286,299,1,300,fihal,,,,,5,notharmonic,1.95,nw,z,,,,,,,
,,,,,,,,,,,Kaan Alkır,001,2023-11-09_12h59.47.738,vowel_harmony,2023.2.3,MacIntel,58.82352941,641.782,642.781,,,,,,,,,,,,,,,,,,,,,,,,,,642.781,643.414,m,1,0.617,,643.415,643.415,,0,287,287,132,1,133,modern,2326,105.6842,2031,0.222,6,notharmonic,1.85,word,m,,,,,,,
,,,,,,,,,,,Kaan Alkır,001,2023-11-09_12h59.47.738,vowel_harmony,2023.2.3,MacIntel,58.82352941,643.415,644.416,,,,,,,,,,,,,,,,,,,,,,,,,,644.416,644.998,z,1,0.566,,644.998,644.998,,0,288,288,234,1,235,düzöt,,,,,5,harmonic,2.05,nw,z,,,,,,,
,,,,,,,,,,,Kaan Alkır,001,2023-11-09_12h59.47.738,vowel_harmony,2023.2.3,MacIntel,58.82352941,644.999,645.998,,,,,,,,,,,,,,,,,,,,,,,,,,645.998,646.598,m,1,0.578,,646.598,646.598,,0,289,289,93,1,94,siyah,2944,133.7637,2527,0.2763,5,notharmonic,1.6,word,m,,,,,,,
,,,,,,,,,,,Kaan Alkır,001,2023-11-09_12h59.47.738,vowel_harmony,2023.2.3,MacIntel,58.82352941,646.599,647.598,,,,,,,,,,,,,,,,,,,,,,,,,,647.598,648.281,m,1,0.663,,648.281,648.282,,0,290,290,143,1,144,kitap,8359,379.7998,6786,0.7418,5,notharmonic,1.9,word,m,,,,,,,
,,,,,,,,,,,Kaan Alkır,001,2023-11-09_12h59.47.738,vowel_harmony,2023.2.3,MacIntel,58.82352941,648.282,649.281,,,,,,,,,,,,,,,,,,,,,,,,,,649.281,650.214,m,1,0.911,,650.214,650.215,,0,291,291,100,1,101,düşman,1065,48.3894,962,0.1052,6,notharmonic,1.85,word,m,,,,,,,
,,,,,,,,,,,Kaan Alkır,001,2023-11-09_12h59.47.738,vowel_harmony,2023.2.3,MacIntel,58.82352941,650.215,651.215,,,,,,,,,,,,,,,,,,,,,,,,,,651.215,651.998,z,1,0.763,,651.998,651.998,,0,292,292,263,1,264,duzur,,,,,5,harmonic,1.8,nw,z,,,,,,,
,,,,,,,,,,,Kaan Alkır,001,2023-11-09_12h59.47.738,vowel_harmony,2023.2.3,MacIntel,58.82352941,651.999,652.998,,,,,,,,,,,,,,,,,,,,,,,,,,652.998,653.798,z,1,0.782,,653.798,653.798,,0,293,293,273,1,274,nimal,,,,,5,notharmonic,1.9,nw,z,,,,,,,
,,,,,,,,,,,Kaan Alkır,001,2023-11-09_12h59.47.738,vowel_harmony,2023.2.3,MacIntel,58.82352941,653.799,654.798,,,,,,,,,,,,,,,,,,,,,,,,,,654.798,655.597,z,1,0.779,,655.597,655.597,,0,294,294,220,1,221,denbi,,,,,5,harmonic,1.75,nw,z,,,,,,,
,,,,,,,,,,,Kaan Alkır,001,2023-11-09_12h59.47.738,vowel_harmony,2023.2.3,MacIntel,58.82352941,655.598,656.598,,,,,,,,,,,,,,,,,,,,,,,,,,656.598,657.198,m,1,0.577,,657.198,657.198,,0,295,295,113,1,114,model,1200,54.5232,1082,0.1183,5,notharmonic,1.75,word,m,,,,,,,
,,,,,,,,,,,Kaan Alkır,001,2023-11-09_12h59.47.738,vowel_harmony,2023.2.3,MacIntel,58.82352941,657.199,658.198,,,,,,,,,,,,,,,,,,,,,,,,,,658.198,658.932,z,1,0.714,,658.932,658.932,,0,296,296,311,1,312,dedya,,,,,5,notharmonic,1.9,nw,z,,,,,,,
,,,,,,,,,,,Kaan Alkır,001,2023-11-09_12h59.47.738,vowel_harmony,2023.2.3,MacIntel,58.82352941,658.933,659.931,,,,,,,,,,,,,,,,,,,,,,,,,,659.931,660.965,z,1,1.012,,660.965,660.965,,0,297,297,340,1,341,minya,,,,,5,notharmonic,1.95,nw,z,,,,,,,
,,,,,,,,,,,Kaan Alkır,001,2023-11-09_12h59.47.738,vowel_harmony,2023.2.3,MacIntel,58.82352941,660.966,661.964,,,,,,,,,,,,,,,,,,,,,,,,,,661.964,663.032,z,1,1.045,,663.032,663.032,,0,298,298,356,1,357,mergun,,,,,6,notharmonic,1.95,nw,z,,,,,,,
,,,,,,,,,,,Kaan Alkır,001,2023-11-09_12h59.47.738,vowel_harmony,2023.2.3,MacIntel,58.82352941,663.033,664.031,,,,,,,,,,,,,,,,,,,,,,,,,,664.031,664.848,m,1,0.797,,664.848,664.848,,0,299,299,98,1,99,paket,1532,69.608,1392,0.1522,5,notharmonic,1.55,word,m,,,,,,,
,,,,,,,,,,,Kaan Alkır,001,2023-11-09_12h59.47.738,vowel_harmony,2023.2.3,MacIntel,58.82352941,664.848,665.848,,,,,,,,,,,,,,,,,,,,,,,,,,665.848,666.731,m,1,0.861,,666.731,666.731,,0,300,300,63,1,64,sultan,1756,79.7857,1368,0.1496,6,harmonic,1.55,word,m,,,,,,,
,,,,,,,,,,,Kaan Alkır,001,2023-11-09_12h59.47.738,vowel_harmony,2023.2.3,MacIntel,58.82352941,666.732,667.731,,,,,,,,,,,,,,,,,,,,,,,,,,667.732,668.614,z,1,0.869,,668.614,668.614,,0,301,301,357,1,358,işarek,,,,,6,notharmonic,1.95,nw,z,,,,,,,
,,,,,,,,,,,Kaan Alkır,001,2023-11-09_12h59.47.738,vowel_harmony,2023.2.3,MacIntel,58.82352941,668.615,669.615,,,,,,,,,,,,,,,,,,,,,,,,,,669.615,670.348,z,1,0.711,,670.348,670.348,,0,302,302,300,1,301,nilgi,,,,,5,notharmonic,1.85,nw,z,,,,,,,
,,,,,,,,,,,Kaan Alkır,001,2023-11-09_12h59.47.738,vowel_harmony,2023.2.3,MacIntel,58.82352941,670.349,671.348,,,,,,,,,,,,,,,,,,,,,,,,,,671.348,672.248,z,1,0.882,,672.248,672.248,,0,303,303,198,1,199,yarbız,,,,,6,harmonic,1.95,nw,z,,,,,,,
,,,,,,,,,,,Kaan Alkır,001,2023-11-09_12h59.47.738,vowel_harmony,2023.2.3,MacIntel,58.82352941,672.248,673.248,,,,,,,,,,,,,,,,,,,,,,,,,,673.248,674.081,z,1,0.81,,674.081,674.081,,0,304,304,199,1,200,movu,,,,,4,harmonic,1.9,nw,z,,,,,,,
,,,,,,,,,,,Kaan Alkır,001,2023-11-09_12h59.47.738,vowel_harmony,2023.2.3,MacIntel,58.82352941,674.082,675.081,,,,,,,,,,,,,,,,,,,,,,,,,,675.081,676.114,z,1,1.011,,676.114,676.114,,0,305,305,210,1,211,şevci,,,,,5,harmonic,1.75,nw,z,,,,,,,
,,,,,,,,,,,Kaan Alkır,001,2023-11-09_12h59.47.738,vowel_harmony,2023.2.3,MacIntel,58.82352941,676.115,677.115,,,,,,,,,,,,,,,,,,,,,,,,,,677.115,677.815,m,1,0.672,,677.815,677.815,,0,306,306,167,1,168,adalet,1611,73.1975,1388,0.1517,6,notharmonic,1.65,word,m,,,,,,,
,,,,,,,,,,,Kaan Alkır,001,2023-11-09_12h59.47.738,vowel_harmony,2023.2.3,MacIntel,58.82352941,677.816,678.815,,,,,,,,,,,,,,,,,,,,,,,,,,678.815,679.697,z,1,0.865,,679.697,679.698,,0,307,307,309,1,310,yorgen,,,,,6,notharmonic,1.9,nw,z,,,,,,,
,,,,,,,,,,,Kaan Alkır,001,2023-11-09_12h59.47.738,vowel_harmony,2023.2.3,MacIntel,58.82352941,679.698,680.698,,,,,,,,,,,,,,,,,,,,,,,,,,680.698,681.381,m,1,0.668,,681.382,681.382,,0,308,308,9,1,10,karar,8108,368.3954,7436,0.8129,5,harmonic,1.6,word,m,,,,,,,
,,,,,,,,,,,Kaan Alkır,001,2023-11-09_12h59.47.738,vowel_harmony,2023.2.3,MacIntel,58.82352941,681.382,682.382,,,,,,,,,,,,,,,,,,,,,,,,,,682.382,683.065,z,1,0.66,,683.065,683.065,,0,309,309,304,1,305,annö,,,,,4,notharmonic,1.95,nw,z,,,,,,,
,,,,,,,,,,,Kaan Alkır,001,2023-11-09_12h59.47.738,vowel_harmony,2023.2.3,MacIntel,58.82352941,683.066,684.065,,,,,,,,,,,,,,,,,,,,,,,,,,684.065,684.731,m,1,0.645,,684.731,684.731,,0,310,310,141,1,142,madde,3793,172.3389,3389,0.3705,5,notharmonic,1.7,word,m,,,,,,,
,,,,,,,,,,,Kaan Alkır,001,2023-11-09_12h59.47.738,vowel_harmony,2023.2.3,MacIntel,58.82352941,684.731,685.732,,,,,,,,,,,,,,,,,,,,,,,,,,685.732,686.631,z,1,0.886,,686.631,686.632,,0,311,311,329,1,330,taif,,,,,4,notharmonic,1.8,nw,z,,,,,,,
,,,,,,,,,,,Kaan Alkır,001,2023-11-09_12h59.47.738,vowel_harmony,2023.2.3,MacIntel,58.82352941,686.632,687.632,,,,,,,,,,,,,,,,,,,,,,,,,,687.632,688.415,z,1,0.76,,688.415,688.415,,0,312,312,238,1,239,kocı,,,,,4,harmonic,1.95,nw,z,,,,,,,
,,,,,,,,,,,Kaan Alkır,001,2023-11-09_12h59.47.738,vowel_harmony,2023.2.3,MacIntel,58.82352941,688.416,689.415,,,,,,,,,,,,,,,,,,,,,,,,,,689.415,690.215,m,1,0.774,,690.215,690.216,,0,313,313,134,1,135,iptal,793,36.0308,725,0.0793,5,notharmonic,1.35,word,m,,,,,,,
,,,,,,,,,,,Kaan Alkır,001,2023-11-09_12h59.47.738,vowel_harmony,2023.2.3,MacIntel,58.82352941,690.216,691.215,,,,,,,,,,,,,,,,,,,,,,,,,,691.215,692.432,z,1,1.196,,692.432,692.432,,0,314,314,344,1,345,barika,,,,,6,notharmonic,1.75,nw,z,,,,,,,
,,,,,,,,,,,Kaan Alkır,001,2023-11-09_12h59.47.738,vowel_harmony,2023.2.3,MacIntel,58.82352941,692.433,693.431,,,,,,,,,,,,,,,,,,,,,,,,,,693.431,694.282,z,1,0.83,,694.282,694.282,,0,315,315,353,1,354,ikno,,,,,4,notharmonic,1.95,nw,z,,,,,,,
,,,,,,,,,,,Kaan Alkır,001,2023-11-09_12h59.47.738,vowel_harmony,2023.2.3,MacIntel,58.82352941,694.283,695.282,,,,,,,,,,,,,,,,,,,,,,,,,,695.282,695.932,m,1,0.627,,695.932,695.932,,0,316,316,1,1,2,erkek,6188,281.1582,5195,0.5679,5,harmonic,1.65,word,m,,,,,,,
,,,,,,,,,,,Kaan Alkır,001,2023-11-09_12h59.47.738,vowel_harmony,2023.2.3,MacIntel,58.82352941,695.933,696.932,,,,,,,,,,,,,,,,,,,,,,,,,,696.932,697.948,z,1,0.993,,697.948,697.948,,0,317,317,209,1,210,sapor,,,,,5,harmonic,1.8,nw,z,,,,,,,
,,,,,,,,,,,Kaan Alkır,001,2023-11-09_12h59.47.738,vowel_harmony,2023.2.3,MacIntel,58.82352941,697.949,698.947,,,,,,,,,,,,,,,,,,,,,,,,,,698.948,699.715,z,1,0.748,,699.715,699.715,,0,318,318,255,1,256,yokın,,,,,5,harmonic,1.85,nw,z,,,,,,,
,,,,,,,,,,,Kaan Alkır,001,2023-11-09_12h59.47.738,vowel_harmony,2023.2.3,MacIntel,58.82352941,699.716,700.715,,,,,,,,,,,,,,,,,,,,,,,,,,700.715,701.415,m,1,0.676,,701.415,701.415,,0,319,319,75,1,76,roman,1499,68.1086,1281,0.14,5,harmonic,1.6,word,m,,,,,,,
,,,,,,,,,,,Kaan Alkır,001,2023-11-09_12h59.47.738,vowel_harmony,2023.2.3,MacIntel,58.82352941,701.415,702.415,,,,,,,,,,,,,,,,,,,,,,,,,,702.415,703.232,z,1,0.795,,703.232,703.232,,0,320,320,327,1,328,parkeş,,,,,6,notharmonic,1.9,nw,z,,,,,,,
,,,,,,,,,,,Kaan Alkır,001,2023-11-09_12h59.47.738,vowel_harmony,2023.2.3,MacIntel,58.82352941,703.232,704.232,,,,,,,,,,,,,,,,,,,,,,,,,,704.232,704.881,m,1,0.628,,704.882,704.882,,0,321,321,18,1,19,normal,4154,188.7413,3788,0.4141,6,harmonic,1.75,word,m,,,,,,,
,,,,,,,,,,,Kaan Alkır,001,2023-11-09_12h59.47.738,vowel_harmony,2023.2.3,MacIntel,58.82352941,704.882,705.882,,,,,,,,,,,,,,,,,,,,,,,,,,705.882,706.448,m,1,0.545,,706.449,706.449,,0,322,322,77,1,78,ufak,3252,147.758,2980,0.3258,4,harmonic,1.5,word,m,,,,,,,
,,,,,,,,,,,Kaan Alkır,001,2023-11-09_12h59.47.738,vowel_harmony,2023.2.3,MacIntel,58.82352941,706.449,707.448,,,,,,,,,,,,,,,,,,,,,,,,,,707.448,708.615,z,1,1.148,,708.615,708.615,,0,323,323,181,1,182,rapkı,,,,,5,harmonic,1.85,nw,z,,,,,,,
,,,,,,,,,,,Kaan Alkır,001,2023-11-09_12h59.47.738,vowel_harmony,2023.2.3,MacIntel,58.82352941,708.616,709.614,,,,,,,,,,,,,,,,,,,,,,,,,,709.614,710.398,z,1,0.771,,710.398,710.398,,0,324,324,290,1,291,aipa,,,,,4,notharmonic,1.95,nw,z,,,,,,,
,,,,,,,,,,,Kaan Alkır,001,2023-11-09_12h59.47.738,vowel_harmony,2023.2.3,MacIntel,58.82352941,710.399,711.398,,,,,,,,,,,,,,,,,,,,,,,,,,711.398,712.932,z,1,1.516,,712.932,712.932,,0,325,325,316,1,317,misaf,,,,,5,notharmonic,1.85,nw,z,,,,,,,
,,,,,,,,,,,Kaan Alkır,001,2023-11-09_12h59.47.738,vowel_harmony,2023.2.3,MacIntel,58.82352941,712.933,713.932,,,,,,,,,,,,,,,,,,,,,,,,,,713.932,715.032,z,1,1.085,,715.032,715.032,,0,326,326,261,1,262,kardok,,,,,6,harmonic,1.95,nw,z,,,,,,,
,,,,,,,,,,,Kaan Alkır,001,2023-11-09_12h59.47.738,vowel_harmony,2023.2.3,MacIntel,58.82352941,715.033,716.032,,,,,,,,,,,,,,,,,,,,,,,,,,716.032,716.781,m,1,0.732,,716.782,716.782,,0,327,327,172,1,173,milyar,1496,67.9723,1078,0.1178,6,notharmonic,1.85,word,m,,,,,,,
,,,,,,,,,,,Kaan Alkır,001,2023-11-09_12h59.47.738,vowel_harmony,2023.2.3,MacIntel,58.82352941,716.782,717.782,,,,,,,,,,,,,,,,,,,,,,,,,,717.782,718.415,m,1,0.609,,718.415,718.415,,0,328,328,61,1,62,yıldız,1775,80.649,1532,0.1675,6,harmonic,1.6,word,m,,,,,,,
,,,,,,,,,,,Kaan Alkır,001,2023-11-09_12h59.47.738,vowel_harmony,2023.2.3,MacIntel,58.82352941,718.416,719.414,,,,,,,,,,,,,,,,,,,,,,,,,,719.414,719.998,m,1,0.561,,719.998,719.998,,0,329,329,43,1,44,geniş,3380,153.5738,3185,0.3482,5,harmonic,1.35,word,m,,,,,,,
,,,,,,,,,,,Kaan Alkır,001,2023-11-09_12h59.47.738,vowel_harmony,2023.2.3,MacIntel,58.82352941,719.999,720.998,,,,,,,,,,,,,,,,,,,,,,,,,,720.998,722.515,z,1,1.495,,722.515,722.515,,0,330,330,205,1,206,kahay,,,,,5,harmonic,1.9,nw,z,,,,,,,
,,,,,,,,,,,Kaan Alkır,001,2023-11-09_12h59.47.738,vowel_harmony,2023.2.3,MacIntel,58.82352941,722.516,723.515,,,,,,,,,,,,,,,,,,,,,,,,,,723.515,724.598,z,1,1.061,,724.598,724.598,,0,331,331,339,1,340,asmel,,,,,5,notharmonic,1.95,nw,z,,,,,,,
,,,,,,,,,,,Kaan Alkır,001,2023-11-09_12h59.47.738,vowel_harmony,2023.2.3,MacIntel,58.82352941,724.599,725.599,,,,,,,,,,,,,,,,,,,,,,,,,,725.599,726.532,z,1,0.92,,726.532,726.532,,0,332,332,275,1,276,tahçe,,,,,5,notharmonic,1.95,nw,z,,,,,,,
,,,,,,,,,,,Kaan Alkır,001,2023-11-09_12h59.47.738,vowel_harmony,2023.2.3,MacIntel,58.82352941,726.532,727.531,,,,,,,,,,,,,,,,,,,,,,,,,,727.531,728.548,z,1,0.997,,728.549,728.549,,0,333,333,330,1,331,vahçe,,,,,5,notharmonic,1.9,nw,z,,,,,,,
,,,,,,,,,,,Kaan Alkır,001,2023-11-09_12h59.47.738,vowel_harmony,2023.2.3,MacIntel,58.82352941,728.549,729.548,,,,,,,,,,,,,,,,,,,,,,,,,,729.548,730.149,m,1,0.586,,730.149,730.149,,0,334,334,174,1,175,bugün,13879,630.6067,12842,1.4039,5,notharmonic,1.85,word,m,,,,,,,
,,,,,,,,,,,Kaan Alkır,001,2023-11-09_12h59.47.738,vowel_harmony,2023.2.3,MacIntel,58.82352941,730.149,731.148,,,,,,,,,,,,,,,,,,,,,,,,,,731.148,731.849,z,1,0.679,,731.849,731.849,,0,335,335,314,1,315,seral,,,,,5,notharmonic,1.7,nw,z,,,,,,,
,,,,,,,,,,,Kaan Alkır,001,2023-11-09_12h59.47.738,vowel_harmony,2023.2.3,MacIntel,58.82352941,731.849,732.849,,,,,,,,,,,,,,,,,,,,,,,,,,732.849,733.965,z,1,1.092,,733.965,733.965,,0,336,336,224,1,225,ertre,,,,,5,harmonic,1.95,nw,z,,,,,,,
,,,,,,,,,,,Kaan Alkır,001,2023-11-09_12h59.47.738,vowel_harmony,2023.2.3,MacIntel,58.82352941,733.966,734.965,,,,,,,,,,,,,,,,,,,,,,,,,,734.965,735.565,m,1,0.579,,735.565,735.565,,0,337,337,135,1,136,hafif,3355,152.4379,3101,0.339,5,notharmonic,1.75,word,m,,,,,,,
,,,,,,,,,,,Kaan Alkır,001,2023-11-09_12h59.47.738,vowel_harmony,2023.2.3,MacIntel,58.82352941,735.566,736.565,,,,,,,,,,,,,,,,,,,,,,,,,,736.565,737.332,z,1,0.746,,737.332,737.332,,0,338,338,302,1,303,işgar,,,,,5,notharmonic,1.9,nw,z,,,,,,,
,,,,,,,,,,,Kaan Alkır,001,2023-11-09_12h59.47.738,vowel_harmony,2023.2.3,MacIntel,58.82352941,737.333,738.332,,,,,,,,,,,,,,,,,,,,,,,,,,738.332,738.932,z,1,0.577,,738.932,738.932,,0,339,339,331,1,332,ehun,,,,,4,notharmonic,1.95,nw,z,,,,,,,
,,,,,,,,,,,Kaan Alkır,001,2023-11-09_12h59.47.738,vowel_harmony,2023.2.3,MacIntel,58.82352941,738.933,739.932,,,,,,,,,,,,,,,,,,,,,,,,,,739.932,740.482,m,1,0.537,,740.482,740.482,,0,340,340,107,1,108,merak,5806,263.8016,5524,0.6039,5,notharmonic,1.65,word,m,,,,,,,
,,,,,,,,,,,Kaan Alkır,001,2023-11-09_12h59.47.738,vowel_harmony,2023.2.3,MacIntel,58.82352941,740.483,741.482,,,,,,,,,,,,,,,,,,,,,,,,,,741.482,742.132,m,1,0.629,,742.132,742.132,,0,341,341,36,1,37,meslek,1082,49.1618,976,0.1067,6,harmonic,1.9,word,m,,,,,,,
,,,,,,,,,,,Kaan Alkır,001,2023-11-09_12h59.47.738,vowel_harmony,2023.2.3,MacIntel,58.82352941,742.132,743.132,,,,,,,,,,,,,,,,,,,,,,,,,,743.132,743.682,m,1,0.534,,743.682,743.682,,0,342,342,34,1,35,hoca,1893,86.0104,1526,0.1668,4,harmonic,1.45,word,m,,,,,,,
,,,,,,,,,,,Kaan Alkır,001,2023-11-09_12h59.47.738,vowel_harmony,2023.2.3,MacIntel,58.82352941,743.683,744.682,,,,,,,,,,,,,,,,,,,,,,,,,,744.682,745.215,m,1,0.513,,745.215,745.215,,0,343,343,159,1,160,vakit,3476,157.9357,3298,0.3605,5,notharmonic,1.65,word,m,,,,,,,
,,,,,,,,,,,Kaan Alkır,001,2023-11-09_12h59.47.738,vowel_harmony,2023.2.3,MacIntel,58.82352941,745.216,746.215,,,,,,,,,,,,,,,,,,,,,,,,,,746.215,746.814,z,1,0.578,,746.814,746.815,,0,344,344,328,1,329,kirul,,,,,5,notharmonic,1.95,nw,z,,,,,,,
,,,,,,,,,,,Kaan Alkır,001,2023-11-09_12h59.47.738,vowel_harmony,2023.2.3,MacIntel,58.82352941,746.815,747.815,,,,,,,,,,,,,,,,,,,,,,,,,,747.815,748.448,z,1,0.619,,748.449,748.449,,0,345,345,303,1,304,fisor,,,,,5,notharmonic,1.9,nw,z,,,,,,,
,,,,,,,,,,,Kaan Alkır,001,2023-11-09_12h59.47.738,vowel_harmony,2023.2.3,MacIntel,58.82352941,748.449,749.449,,,,,,,,,,,,,,,,,,,,,,,,,,749.449,750.048,m,1,0.582,,750.049,750.049,,0,346,346,0,1,1,sanat,3121,141.8059,2485,0.2717,5,harmonic,1.4,word,m,,,,,,,
,,,,,,,,,,,Kaan Alkır,001,2023-11-09_12h59.47.738,vowel_harmony,2023.2.3,MacIntel,58.82352941,750.049,751.048,,,,,,,,,,,,,,,,,,,,,,,,,,751.049,751.682,z,1,0.615,,751.682,751.682,,0,347,347,203,1,204,döves,,,,,5,harmonic,1.8,nw,z,,,,,,,
,,,,,,,,,,,Kaan Alkır,001,2023-11-09_12h59.47.738,vowel_harmony,2023.2.3,MacIntel,58.82352941,751.683,752.682,,,,,,,,,,,,,,,,,,,,,,,,,,752.682,753.749,m,1,1.052,,753.749,753.749,,0,348,348,121,1,122,mesaj,1604,72.8794,1386,0.1515,5,notharmonic,1.8,word,m,,,,,,,
,,,,,,,,,,,Kaan Alkır,001,2023-11-09_12h59.47.738,vowel_harmony,2023.2.3,MacIntel,58.82352941,753.75,754.748,,,,,,,,,,,,,,,,,,,,,,,,,,754.748,755.532,m,1,0.761,,755.532,755.532,,0,349,349,59,1,60,köpek,1044,47.4352,901,0.0985,5,harmonic,1.75,word,m,,,,,,,
,,,,,,,,,,,Kaan Alkır,001,2023-11-09_12h59.47.738,vowel_harmony,2023.2.3,MacIntel,58.82352941,755.533,756.531,,,,,,,,,,,,,,,,,,,,,,,,,,756.531,757.365,z,1,0.82,,757.365,757.365,,0,350,350,323,1,324,devak,,,,,5,notharmonic,1.75,nw,z,,,,,,,
,,,,,,,,,,,Kaan Alkır,001,2023-11-09_12h59.47.738,vowel_harmony,2023.2.3,MacIntel,58.82352941,757.366,758.365,,,,,,,,,,,,,,,,,,,,,,,,,,758.365,759.099,z,1,0.711,,759.099,759.099,,0,351,351,313,1,314,ikas,,,,,4,notharmonic,1.85,nw,z,,,,,,,
,,,,,,,,,,,Kaan Alkır,001,2023-11-09_12h59.47.738,vowel_harmony,2023.2.3,MacIntel,58.82352941,759.099,760.099,,,,,,,,,,,,,,,,,,,,,,,,,,760.099,760.782,m,1,0.662,,760.782,760.782,,0,352,352,71,1,72,örnek,3463,157.345,3266,0.357,5,harmonic,1.85,word,m,,,,,,,
,,,,,,,,,,,Kaan Alkır,001,2023-11-09_12h59.47.738,vowel_harmony,2023.2.3,MacIntel,58.82352941,760.782,761.782,,,,,,,,,,,,,,,,,,,,,,,,,,761.782,762.432,m,1,0.629,,762.432,762.432,,0,353,353,74,1,75,başarı,1398,63.5196,1300,0.1421,6,harmonic,1.2,word,m,,,,,,,
,,,,,,,,,,,Kaan Alkır,001,2023-11-09_12h59.47.738,vowel_harmony,2023.2.3,MacIntel,58.82352941,762.433,763.432,,,,,,,,,,,,,,,,,,,,,,,,,,763.432,764.032,m,1,0.579,,764.032,764.032,,0,354,354,24,1,25,yorgun,1153,52.3877,1108,0.1211,6,harmonic,1.55,word,m,,,,,,,
,,,,,,,,,,,Kaan Alkır,001,2023-11-09_12h59.47.738,vowel_harmony,2023.2.3,MacIntel,58.82352941,764.032,765.032,,,,,,,,,,,,,,,,,,,,,,,,,,765.032,765.699,m,1,0.646,,765.699,765.699,,0,355,355,50,1,51,kanun,1198,54.4324,1010,0.1104,5,harmonic,1.6,word,m,,,,,,,
,,,,,,,,,,,Kaan Alkır,001,2023-11-09_12h59.47.738,vowel_harmony,2023.2.3,MacIntel,58.82352941,765.699,766.699,,,,,,,,,,,,,,,,,,,,,,,,,,766.699,767.265,m,1,0.545,,767.265,767.265,,0,356,356,155,1,156,ilaç,1366,62.0656,1215,0.1328,4,notharmonic,1.75,word,m,,,,,,,
,,,,,,,,,,,Kaan Alkır,001,2023-11-09_12h59.47.738,vowel_harmony,2023.2.3,MacIntel,58.82352941,767.266,768.266,,,,,,,,,,,,,,,,,,,,,,,,,,768.266,769.132,m,1,0.846,,769.132,769.132,,0,357,357,23,1,24,kurum,986,44.7999,882,0.0964,5,harmonic,1.75,word,m,,,,,,,
,,,,,,,,,,,Kaan Alkır,001,2023-11-09_12h59.47.738,vowel_harmony,2023.2.3,MacIntel,58.82352941,769.133,770.132,,,,,,,,,,,,,,,,,,,,,,,,,,770.132,770.798,z,1,0.652,,770.798,770.798,,0,358,358,246,1,247,orkın,,,,,5,harmonic,1.9,nw,z,,,,,,,
,,,,,,,,,,,Kaan Alkır,001,2023-11-09_12h59.47.738,vowel_harmony,2023.2.3,MacIntel,58.82352941,770.799,771.799,,,,,,,,,,,,,,,,,,,,,,,,,,771.799,772.465,z,1,0.646,,772.465,772.466,,0,359,359,195,1,196,netüm,,,,,5,harmonic,1.95,nw,z,,,,,,,
,,,,,,,,,,,Kaan Alkır,001,2023-11-09_12h59.47.738,vowel_harmony,2023.2.3,MacIntel,58.82352941,,,,,,,,,,,,,,,,,,,,,,,,,,,,,,,,,,,,,,,,,,,,,,,,,,,,,,,772.467,774.584,space,2.084,