Welcome_screen.started,Welcome_screen.stopped,key_respwelcome.keys,key_respwelcome.rt,key_respwelcome.duration,intro_x.thisRepN,intro_x.thisTrialN,intro_x.thisN,intro_x.thisIndex,intro_x.ran,Introduction,participant,session,date,expName,psychopyVersion,OS,frameRate,Fixation.started,Fixation.stopped,Studypractice.started,Studypractice.stopped,key_respstudy.keys,key_respstudy.corr,key_respstudy.rt,key_respstudy.duration,rt,corr,Feedback.started,Feedback.stopped,practice_loop.thisRepN,practice_loop.thisTrialN,practice_loop.thisN,practice_loop.thisIndex,practice_loop.ran,item_nr_p,target_p,isHarmonic_p,target_cond_p,CorrAns_p,Instraction.started,Instraction.stopped,key_respınstraction.keys,key_respınstraction.rt,key_respınstraction.duration,TestTrial.started,TestTrial.stopped,key_respTest.keys,key_respTest.corr,key_respTest.rt,key_respTest.duration,Pause.started,Pause.stopped,key_resp_xx.keys,test_loop.thisRepN,test_loop.thisTrialN,test_loop.thisN,test_loop.thisIndex,test_loop.ran,item_nr,target,BlogFreq_A1,BlogFreqpm_A1,BlogCD_A1,BlogCDPc_A1,WordLength_A1,isHarmonic_A1,old20,target_cond,CorrAns,key_resp_xx.rt,key_resp_xx.duration,Goodbye_screen.started,Goodbye_screen.stopped,key_respgoodbye.keys,key_respgoodbye.rt,key_respgoodbye.duration
0.0163,4.7439,space,4.7045,,0,0,0,0,1,"Deneye hoş geldiniz,

Devam etmek için BOŞLUK tuşuna basınız.",M,001,2023-11-08_22h11.37.327,vowel_harmony,2023.2.3,Win32,60.07449237,,,,,,,,,,,,,,,,,,,,,,,,,,,,,,,,,,,,,,,,,,,,,,,,,,,,,,,,,,,
4.7448,12.8981,space,8.1331,,0,1,1,1,1,"Bu çalışma Valencia Üniversitesi kapsamında yürütülmektedir. Deneydeki göreviniz, ekrana çıkacak Türkçe sözcüklerin kelime olup olmadığını belirlemenizdir. Eğer sözcük gerçek bir kelime ise ""m"" tuşuna, değil ise ""z"" tuşuna basınız.   

Devam etmek için BOŞLUK tuşuna basınız.",M,001,2023-11-08_22h11.37.327,vowel_harmony,2023.2.3,Win32,60.07449237,,,,,,,,,,,,,,,,,,,,,,,,,,,,,,,,,,,,,,,,,,,,,,,,,,,,,,,,,,,
12.8984,14.0101,space,1.0869,,0,2,2,2,1,"Her sözcük için en fazla iki saniyede cevap vermeniz beklenmektedir. Aksi takdirde deney bir sonraki sözcük ile devam eder. 
Bu çalışmada oldukça hızlı ve doğru cevaplama yapmanız beklenmektedir.

Devam etmek için BOŞLUK tuşuna basınız.",M,001,2023-11-08_22h11.37.327,vowel_harmony,2023.2.3,Win32,60.07449237,,,,,,,,,,,,,,,,,,,,,,,,,,,,,,,,,,,,,,,,,,,,,,,,,,,,,,,,,,,
14.0107,21.4099,space,7.3742,,0,3,3,3,1,"Çalışmaya başlamadan önce ufak bir pratik yer almaktadır.
Kelimedir: ""m""
Kelime değildir: ""z""

Pratik teste başlamak için BOŞLUK tuşuna basınız. ",M,001,2023-11-08_22h11.37.327,vowel_harmony,2023.2.3,Win32,60.07449237,,,,,,,,,,,,,,,,,,,,,,,,,,,,,,,,,,,,,,,,,,,,,,,,,,,,,,,,,,,
,,,,,,,,,,,M,001,2023-11-08_22h11.37.327,vowel_harmony,2023.2.3,Win32,60.07449237,21.4175,22.4101,22.4102,26.0972,m,1,3.6589,,3.6589,1,26.0974,27.5932,0,0,0,6,1,7,pilot,notharmonic,word,m,,,,,,,,,,,,,,,,,,,,,,,,,,,,,,,,,,,,,
,,,,,,,,,,,M,001,2023-11-08_22h11.37.327,vowel_harmony,2023.2.3,Win32,60.07449237,27.5941,28.593,28.5931,30.2096,m,1,1.5837,,1.5837,1,30.2097,31.7097,0,1,1,2,1,3,memur,notharmonic,word,m,,,,,,,,,,,,,,,,,,,,,,,,,,,,,,,,,,,,,
,,,,,,,,,,,M,001,2023-11-08_22h11.37.327,vowel_harmony,2023.2.3,Win32,60.07449237,31.7103,32.7098,32.7099,34.8429,z,1,2.1088,,2.1088,1,34.843,36.3428,0,2,2,13,1,14,pilar,notharmonic,nw,z,,,,,,,,,,,,,,,,,,,,,,,,,,,,,,,,,,,,,
,,,,,,,,,,,M,001,2023-11-08_22h11.37.327,vowel_harmony,2023.2.3,Win32,60.07449237,36.3433,37.3428,37.3428,38.3929,z,1,1.0203,,1.0203,1,38.3929,39.8966,0,3,3,9,1,10,orat,harmonic,nw,z,,,,,,,,,,,,,,,,,,,,,,,,,,,,,,,,,,,,,
,,,,,,,,,,,M,001,2023-11-08_22h11.37.327,vowel_harmony,2023.2.3,Win32,60.07449237,39.8969,40.8927,40.8928,41.7594,z,1,0.8433,,0.8433,1,41.7594,43.2594,0,4,4,12,1,13,ihlot,notharmonic,nw,z,,,,,,,,,,,,,,,,,,,,,,,,,,,,,,,,,,,,,
,,,,,,,,,,,M,001,2023-11-08_22h11.37.327,vowel_harmony,2023.2.3,Win32,60.07449237,43.2597,44.2594,44.2594,44.9761,m,1,0.6916,,0.6916,1,44.9761,46.476,0,5,5,4,1,5,mimar,notharmonic,word,m,,,,,,,,,,,,,,,,,,,,,,,,,,,,,,,,,,,,,
,,,,,,,,,,,M,001,2023-11-08_22h11.37.327,vowel_harmony,2023.2.3,Win32,60.07449237,46.4764,47.4758,47.4759,48.2093,z,1,0.7116,,0.7116,1,48.2094,49.7092,0,6,6,11,1,12,geki,harmonic,nw,z,,,,,,,,,,,,,,,,,,,,,,,,,,,,,,,,,,,,,
,,,,,,,,,,,M,001,2023-11-08_22h11.37.327,vowel_harmony,2023.2.3,Win32,60.07449237,49.7096,50.7094,50.7095,51.5759,z,1,0.8327,,0.8327,1,51.576,53.0759,0,7,7,8,1,9,tahip,notharmonic,nw,z,,,,,,,,,,,,,,,,,,,,,,,,,,,,,,,,,,,,,
,,,,,,,,,,,M,001,2023-11-08_22h11.37.327,vowel_harmony,2023.2.3,Win32,60.07449237,53.0764,54.0773,54.0773,54.9592,m,1,0.856,,0.856,1,54.9593,56.4639,0,8,8,3,1,4,ihlal,notharmonic,word,m,,,,,,,,,,,,,,,,,,,,,,,,,,,,,,,,,,,,,
,,,,,,,,,,,M,001,2023-11-08_22h11.37.327,vowel_harmony,2023.2.3,Win32,60.07449237,56.4642,57.4593,57.4593,58.459,m,1,0.9767,,0.9767,1,58.459,59.9589,0,9,9,0,1,1,ihale,notharmonic,word,m,,,,,,,,,,,,,,,,,,,,,,,,,,,,,,,,,,,,,
,,,,,,,,,,,M,001,2023-11-08_22h11.37.327,vowel_harmony,2023.2.3,Win32,60.07449237,59.9594,60.9592,60.9592,62.1922,z,1,1.2109,,1.2109,1,62.1923,63.6922,0,10,10,15,1,16,mımal,harmonic,nw,z,,,,,,,,,,,,,,,,,,,,,,,,,,,,,,,,,,,,,
,,,,,,,,,,,M,001,2023-11-08_22h11.37.327,vowel_harmony,2023.2.3,Win32,60.07449237,63.6929,64.6921,64.6921,65.5755,z,1,0.855,,0.855,1,65.5755,67.0756,0,11,11,10,1,11,mahne,notharmonic,nw,z,,,,,,,,,,,,,,,,,,,,,,,,,,,,,,,,,,,,,
,,,,,,,,,,,M,001,2023-11-08_22h11.37.327,vowel_harmony,2023.2.3,Win32,60.07449237,67.0764,68.0757,68.0757,68.8259,m,1,0.7264,,0.7264,1,68.8259,70.3255,0,12,12,1,1,2,veri,harmonic,word,m,,,,,,,,,,,,,,,,,,,,,,,,,,,,,,,,,,,,,
,,,,,,,,,,,M,001,2023-11-08_22h11.37.327,vowel_harmony,2023.2.3,Win32,60.07449237,70.3263,71.3252,71.3253,71.9275,m,1,0.582,,0.582,1,71.9276,73.4253,0,13,13,5,1,6,bahçe,notharmonic,word,m,,,,,,,,,,,,,,,,,,,,,,,,,,,,,,,,,,,,,
,,,,,,,,,,,M,001,2023-11-08_22h11.37.327,vowel_harmony,2023.2.3,Win32,60.07449237,73.4257,74.4251,74.4252,75.1586,m,1,0.7055,,0.7055,1,75.1586,76.6586,0,14,14,7,1,8,oran,harmonic,word,m,,,,,,,,,,,,,,,,,,,,,,,,,,,,,,,,,,,,,
,,,,,,,,,,,M,001,2023-11-08_22h11.37.327,vowel_harmony,2023.2.3,Win32,60.07449237,76.6588,77.6628,77.6628,78.2785,z,1,0.5997,,0.5997,1,78.2785,79.7753,0,15,15,14,1,15,pimer,harmonic,nw,z,,,,,,,,,,,,,,,,,,,,,,,,,,,,,,,,,,,,,
,,,,,,,,,,,M,001,2023-11-08_22h11.37.327,vowel_harmony,2023.2.3,Win32,60.07449237,,,,,,,,,,,,,,,,,,,,,,,79.7762,88.7589,space,8.9536,,,,,,,,,,,,,,,,,,,,,,,,,,,,,,,,,
,,,,,,,,,,,M,001,2023-11-08_22h11.37.327,vowel_harmony,2023.2.3,Win32,60.07449237,88.8005,89.775,,,,,,,,,,,,,,,,,,,,,,,,,,89.7752,90.4417,z,1,0.6474,,90.4417,90.4428,,0,0,0,298,1,299,yelsın,,,,,6,notharmonic,1.95,nw,z,,,,,,,
,,,,,,,,,,,M,001,2023-11-08_22h11.37.327,vowel_harmony,2023.2.3,Win32,60.07449237,90.4431,91.4417,,,,,,,,,,,,,,,,,,,,,,,,,,91.4417,92.242,m,1,0.7809,,92.242,92.242,,0,1,1,76,1,77,ilişki,1675,76.1054,1524,0.1666,6,harmonic,1.8,word,m,,,,,,,
,,,,,,,,,,,M,001,2023-11-08_22h11.37.327,vowel_harmony,2023.2.3,Win32,60.07449237,92.2423,93.2422,,,,,,,,,,,,,,,,,,,,,,,,,,93.2424,94.1248,z,1,0.8638,,94.1248,94.1249,,0,2,2,333,1,334,heyran,,,,,6,notharmonic,1.85,nw,z,,,,,,,
,,,,,,,,,,,M,001,2023-11-08_22h11.37.327,vowel_harmony,2023.2.3,Win32,60.07449237,94.1251,95.125,,,,,,,,,,,,,,,,,,,,,,,,,,95.125,95.7749,z,1,0.637,,95.7749,95.775,,0,3,3,282,1,283,taöz,,,,,4,notharmonic,1.9,nw,z,,,,,,,
,,,,,,,,,,,M,001,2023-11-08_22h11.37.327,vowel_harmony,2023.2.3,Win32,60.07449237,95.7752,96.7754,,,,,,,,,,,,,,,,,,,,,,,,,,96.7754,97.4248,m,1,0.6349,,97.4249,97.4249,,0,4,4,30,1,31,çevre,1662,75.5147,1409,0.154,5,harmonic,1.55,word,m,,,,,,,
,,,,,,,,,,,M,001,2023-11-08_22h11.37.327,vowel_harmony,2023.2.3,Win32,60.07449237,97.4252,98.425,,,,,,,,,,,,,,,,,,,,,,,,,,98.4251,98.9415,m,1,0.497,,98.9416,98.9416,,0,5,5,147,1,148,işaret,1888,85.7832,1787,0.1954,6,notharmonic,1,word,m,,,,,,,
,,,,,,,,,,,M,001,2023-11-08_22h11.37.327,vowel_harmony,2023.2.3,Win32,60.07449237,98.9419,99.9416,,,,,,,,,,,,,,,,,,,,,,,,,,99.9417,100.4915,m,1,0.5354,,100.4916,100.4917,,0,6,6,53,1,54,gelir,7578,344.3143,7014,0.7668,5,harmonic,1.4,word,m,,,,,,,
,,,,,,,,,,,M,001,2023-11-08_22h11.37.327,vowel_harmony,2023.2.3,Win32,60.07449237,100.4921,101.4916,,,,,,,,,,,,,,,,,,,,,,,,,,101.4916,102.1749,z,1,0.6693,,102.175,102.1751,,0,7,7,205,1,206,kahay,,,,,5,harmonic,1.9,nw,z,,,,,,,
,,,,,,,,,,,M,001,2023-11-08_22h11.37.327,vowel_harmony,2023.2.3,Win32,60.07449237,102.1754,103.1749,,,,,,,,,,,,,,,,,,,,,,,,,,103.1749,103.9915,m,1,0.8027,,103.9915,103.9916,,0,8,8,9,1,10,karar,8108,368.3954,7436,0.8129,5,harmonic,1.6,word,m,,,,,,,
,,,,,,,,,,,M,001,2023-11-08_22h11.37.327,vowel_harmony,2023.2.3,Win32,60.07449237,103.9918,104.9916,,,,,,,,,,,,,,,,,,,,,,,,,,104.9916,105.6915,z,1,0.6842,,105.6915,105.6916,,0,9,9,236,1,237,toklam,,,,,6,harmonic,1.85,nw,z,,,,,,,
,,,,,,,,,,,M,001,2023-11-08_22h11.37.327,vowel_harmony,2023.2.3,Win32,60.07449237,105.6919,106.6916,,,,,,,,,,,,,,,,,,,,,,,,,,106.6916,107.6247,z,1,0.9194,,107.6247,107.6249,,0,10,10,223,1,224,kakon,,,,,5,harmonic,1.85,nw,z,,,,,,,
,,,,,,,,,,,M,001,2023-11-08_22h11.37.327,vowel_harmony,2023.2.3,Win32,60.07449237,107.6251,108.6248,,,,,,,,,,,,,,,,,,,,,,,,,,108.6249,109.3247,z,1,0.6831,,109.3247,109.3248,,0,11,11,296,1,297,işban,,,,,5,notharmonic,1.95,nw,z,,,,,,,
,,,,,,,,,,,M,001,2023-11-08_22h11.37.327,vowel_harmony,2023.2.3,Win32,60.07449237,109.325,110.3246,,,,,,,,,,,,,,,,,,,,,,,,,,110.3246,111.0081,z,1,0.6769,,111.0082,111.0083,,0,12,12,294,1,295,mesap,,,,,5,notharmonic,1.8,nw,z,,,,,,,
,,,,,,,,,,,M,001,2023-11-08_22h11.37.327,vowel_harmony,2023.2.3,Win32,60.07449237,111.0086,112.0081,,,,,,,,,,,,,,,,,,,,,,,,,,112.0081,112.658,m,1,0.634,,112.658,112.658,,0,13,13,40,1,41,tepki,1695,77.0141,1578,0.1725,5,harmonic,1.55,word,m,,,,,,,
,,,,,,,,,,,M,001,2023-11-08_22h11.37.327,vowel_harmony,2023.2.3,Win32,60.07449237,112.6582,113.658,,,,,,,,,,,,,,,,,,,,,,,,,,113.658,114.2912,z,1,0.6156,,114.2913,114.2913,,0,14,14,212,1,213,ortat,,,,,5,harmonic,1.7,nw,z,,,,,,,
,,,,,,,,,,,M,001,2023-11-08_22h11.37.327,vowel_harmony,2023.2.3,Win32,60.07449237,114.2916,115.2912,,,,,,,,,,,,,,,,,,,,,,,,,,115.2912,115.8768,z,1,0.5794,,115.8769,115.877,,0,15,15,254,1,255,millek,,,,,6,harmonic,1.8,nw,z,,,,,,,
,,,,,,,,,,,M,001,2023-11-08_22h11.37.327,vowel_harmony,2023.2.3,Win32,60.07449237,115.878,116.875,,,,,,,,,,,,,,,,,,,,,,,,,,116.875,117.5752,m,1,0.6798,,117.5753,117.5755,,0,16,16,21,1,22,duygu,1877,85.2834,1760,0.1924,5,harmonic,1.8,word,m,,,,,,,
,,,,,,,,,,,M,001,2023-11-08_22h11.37.327,vowel_harmony,2023.2.3,Win32,60.07449237,117.5763,118.575,,,,,,,,,,,,,,,,,,,,,,,,,,118.5751,119.2584,z,1,0.6632,,119.2585,119.2586,,0,17,17,315,1,316,takep,,,,,5,notharmonic,1.85,nw,z,,,,,,,
,,,,,,,,,,,M,001,2023-11-08_22h11.37.327,vowel_harmony,2023.2.3,Win32,60.07449237,119.2596,120.2584,,,,,,,,,,,,,,,,,,,,,,,,,,120.2585,120.8086,m,1,0.5396,,120.8087,120.8089,,0,18,18,62,1,63,cümle,1911,86.8283,1765,0.193,5,harmonic,1.85,word,m,,,,,,,
,,,,,,,,,,,M,001,2023-11-08_22h11.37.327,vowel_harmony,2023.2.3,Win32,60.07449237,120.8098,121.8084,,,,,,,,,,,,,,,,,,,,,,,,,,121.8085,122.5416,m,1,0.7193,,122.5417,122.5417,,0,19,19,110,1,111,rüya,1062,48.2531,937,0.1024,4,notharmonic,1.75,word,m,,,,,,,
,,,,,,,,,,,M,001,2023-11-08_22h11.37.327,vowel_harmony,2023.2.3,Win32,60.07449237,122.5421,123.5416,,,,,,,,,,,,,,,,,,,,,,,,,,123.5417,124.0917,m,1,0.5298,,124.0918,124.092,,0,20,20,94,1,95,final,876,39.802,778,0.0851,5,notharmonic,1,word,m,,,,,,,
,,,,,,,,,,,M,001,2023-11-08_22h11.37.327,vowel_harmony,2023.2.3,Win32,60.07449237,124.0929,125.0917,,,,,,,,,,,,,,,,,,,,,,,,,,125.0917,125.6746,z,1,0.5633,,125.6747,125.6749,,0,21,21,258,1,259,karıha,,,,,6,harmonic,1.75,nw,z,,,,,,,
,,,,,,,,,,,M,001,2023-11-08_22h11.37.327,vowel_harmony,2023.2.3,Win32,60.07449237,125.6752,126.6747,,,,,,,,,,,,,,,,,,,,,,,,,,126.6748,127.2582,m,1,0.5633,,127.2582,127.2584,,0,22,22,100,1,101,düşman,1065,48.3894,962,0.1052,6,notharmonic,1.85,word,m,,,,,,,
,,,,,,,,,,,M,001,2023-11-08_22h11.37.327,vowel_harmony,2023.2.3,Win32,60.07449237,127.2588,128.2582,,,,,,,,,,,,,,,,,,,,,,,,,,128.2583,128.8081,m,1,0.5371,,128.8082,128.8082,,0,23,23,52,1,53,resim,2506,113.8627,2188,0.2392,5,harmonic,1.4,word,m,,,,,,,
,,,,,,,,,,,M,001,2023-11-08_22h11.37.327,vowel_harmony,2023.2.3,Win32,60.07449237,128.8091,129.8079,,,,,,,,,,,,,,,,,,,,,,,,,,129.8079,130.5083,z,1,0.685,,130.5083,130.5085,,0,24,24,293,1,294,esnan,,,,,5,notharmonic,1.85,nw,z,,,,,,,
,,,,,,,,,,,M,001,2023-11-08_22h11.37.327,vowel_harmony,2023.2.3,Win32,60.07449237,130.5096,131.5084,,,,,,,,,,,,,,,,,,,,,,,,,,131.5085,132.2583,z,1,0.7399,,132.2584,132.2587,,0,25,25,330,1,331,vahçe,,,,,5,notharmonic,1.9,nw,z,,,,,,,
,,,,,,,,,,,M,001,2023-11-08_22h11.37.327,vowel_harmony,2023.2.3,Win32,60.07449237,132.2594,133.2581,,,,,,,,,,,,,,,,,,,,,,,,,,133.2585,133.8081,m,1,0.53,,133.8081,133.8083,,0,26,26,73,1,74,millet,1658,75.3329,1508,0.1649,6,harmonic,1.7,word,m,,,,,,,
,,,,,,,,,,,M,001,2023-11-08_22h11.37.327,vowel_harmony,2023.2.3,Win32,60.07449237,133.8093,134.8082,,,,,,,,,,,,,,,,,,,,,,,,,,134.8082,135.358,m,1,0.5299,,135.358,135.3582,,0,27,27,34,1,35,hoca,1893,86.0104,1526,0.1668,4,harmonic,1.45,word,m,,,,,,,
,,,,,,,,,,,M,001,2023-11-08_22h11.37.327,vowel_harmony,2023.2.3,Win32,60.07449237,135.3592,136.358,,,,,,,,,,,,,,,,,,,,,,,,,,136.358,136.9248,z,1,0.5474,,136.9249,136.925,,0,28,28,326,1,327,ailo,,,,,4,notharmonic,1.75,nw,z,,,,,,,
,,,,,,,,,,,M,001,2023-11-08_22h11.37.327,vowel_harmony,2023.2.3,Win32,60.07449237,136.926,137.9247,,,,,,,,,,,,,,,,,,,,,,,,,,137.9248,138.56,m,1,0.6265,,138.5601,138.5601,,0,29,29,115,1,116,saniye,1088,49.4344,984,0.1076,6,notharmonic,1.35,word,m,,,,,,,
,,,,,,,,,,,M,001,2023-11-08_22h11.37.327,vowel_harmony,2023.2.3,Win32,60.07449237,138.5606,139.5579,,,,,,,,,,,,,,,,,,,,,,,,,,139.5579,140.2914,z,1,0.714,,140.2915,140.2917,,0,30,30,204,1,205,gerkez,,,,,6,harmonic,1.9,nw,z,,,,,,,
,,,,,,,,,,,M,001,2023-11-08_22h11.37.327,vowel_harmony,2023.2.3,Win32,60.07449237,140.2927,141.2912,,,,,,,,,,,,,,,,,,,,,,,,,,141.2913,141.9926,z,1,0.6917,,141.9928,141.9929,,0,31,31,349,1,350,harten,,,,,6,notharmonic,1.85,nw,z,,,,,,,
,,,,,,,,,,,M,001,2023-11-08_22h11.37.327,vowel_harmony,2023.2.3,Win32,60.07449237,141.9937,142.9912,,,,,,,,,,,,,,,,,,,,,,,,,,142.9914,143.5579,z,1,0.5523,,143.558,143.5581,,0,32,32,203,1,204,döves,,,,,5,harmonic,1.8,nw,z,,,,,,,
,,,,,,,,,,,M,001,2023-11-08_22h11.37.327,vowel_harmony,2023.2.3,Win32,60.07449237,143.5589,144.5579,,,,,,,,,,,,,,,,,,,,,,,,,,144.5579,145.1412,m,1,0.5631,,145.1412,145.1413,,0,33,33,173,1,174,sade,1193,54.2052,1114,0.1218,4,notharmonic,1.55,word,m,,,,,,,
,,,,,,,,,,,M,001,2023-11-08_22h11.37.327,vowel_harmony,2023.2.3,Win32,60.07449237,145.1418,146.1411,,,,,,,,,,,,,,,,,,,,,,,,,,146.1411,146.7076,z,1,0.5454,,146.7076,146.7078,,0,34,34,217,1,218,sanfız,,,,,6,harmonic,1.85,nw,z,,,,,,,
,,,,,,,,,,,M,001,2023-11-08_22h11.37.327,vowel_harmony,2023.2.3,Win32,60.07449237,146.7083,147.7078,,,,,,,,,,,,,,,,,,,,,,,,,,147.7078,148.4411,m,1,0.7219,,148.4412,148.4414,,0,35,35,153,1,154,inşaat,432,19.6284,376,0.0411,6,notharmonic,1.6,word,m,,,,,,,
,,,,,,,,,,,M,001,2023-11-08_22h11.37.327,vowel_harmony,2023.2.3,Win32,60.07449237,148.4419,149.4411,,,,,,,,,,,,,,,,,,,,,,,,,,149.4411,150.0241,m,1,0.5734,,150.0242,150.0242,,0,36,36,133,1,134,taze,2268,103.0489,2062,0.2254,4,notharmonic,1.65,word,m,,,,,,,
,,,,,,,,,,,M,001,2023-11-08_22h11.37.327,vowel_harmony,2023.2.3,Win32,60.07449237,150.0247,151.0244,,,,,,,,,,,,,,,,,,,,,,,,,,151.0244,151.7409,m,1,0.7068,,151.741,151.741,,0,37,37,48,1,49,teşvik,932,42.3464,867,0.0948,6,harmonic,1.8,word,m,,,,,,,
,,,,,,,,,,,M,001,2023-11-08_22h11.37.327,vowel_harmony,2023.2.3,Win32,60.07449237,151.742,152.7412,,,,,,,,,,,,,,,,,,,,,,,,,,152.7413,153.2912,z,1,0.5332,,153.2913,153.2914,,0,38,38,180,1,181,ayaro,,,,,5,harmonic,1.8,nw,z,,,,,,,
,,,,,,,,,,,M,001,2023-11-08_22h11.37.327,vowel_harmony,2023.2.3,Win32,60.07449237,153.2923,154.291,,,,,,,,,,,,,,,,,,,,,,,,,,154.291,154.8578,m,1,0.5521,,154.8578,154.858,,0,39,39,116,1,117,daire,621,28.2158,503,0.055,5,notharmonic,1,word,m,,,,,,,
,,,,,,,,,,,M,001,2023-11-08_22h11.37.327,vowel_harmony,2023.2.3,Win32,60.07449237,154.8584,155.8575,,,,,,,,,,,,,,,,,,,,,,,,,,155.8576,156.3242,m,1,0.4461,,156.3243,156.3244,,0,40,40,80,1,81,merkez,1445,65.6551,1255,0.1372,6,harmonic,1.8,word,m,,,,,,,
,,,,,,,,,,,M,001,2023-11-08_22h11.37.327,vowel_harmony,2023.2.3,Win32,60.07449237,156.3254,157.3245,,,,,,,,,,,,,,,,,,,,,,,,,,157.3245,157.841,m,1,0.5053,,157.8411,157.8413,,0,41,41,118,1,119,meşhur,1092,49.6161,1057,0.1156,6,notharmonic,1.9,word,m,,,,,,,
,,,,,,,,,,,M,001,2023-11-08_22h11.37.327,vowel_harmony,2023.2.3,Win32,60.07449237,157.8422,158.8411,,,,,,,,,,,,,,,,,,,,,,,,,,158.8412,159.3744,m,1,0.5212,,159.3744,159.3746,,0,42,42,144,1,145,garip,2567,116.6343,2355,0.2574,5,notharmonic,1.65,word,m,,,,,,,
,,,,,,,,,,,M,001,2023-11-08_22h11.37.327,vowel_harmony,2023.2.3,Win32,60.07449237,159.3755,160.3743,,,,,,,,,,,,,,,,,,,,,,,,,,160.3744,160.8744,m,1,0.4888,,160.8744,160.8746,,0,43,43,38,1,39,dönem,2820,128.1296,2437,0.2664,5,harmonic,1.4,word,m,,,,,,,
,,,,,,,,,,,M,001,2023-11-08_22h11.37.327,vowel_harmony,2023.2.3,Win32,60.07449237,160.8754,161.8741,,,,,,,,,,,,,,,,,,,,,,,,,,161.8742,162.5075,z,1,0.6134,,162.5077,162.5078,,0,44,44,208,1,209,yayram,,,,,6,harmonic,1.85,nw,z,,,,,,,
,,,,,,,,,,,M,001,2023-11-08_22h11.37.327,vowel_harmony,2023.2.3,Win32,60.07449237,162.5087,163.5076,,,,,,,,,,,,,,,,,,,,,,,,,,163.5078,164.1076,m,1,0.5783,,164.1077,164.1079,,0,45,45,129,1,130,tahmin,2353,106.911,2273,0.2485,6,notharmonic,1.6,word,m,,,,,,,
,,,,,,,,,,,M,001,2023-11-08_22h11.37.327,vowel_harmony,2023.2.3,Win32,60.07449237,164.1088,165.1076,,,,,,,,,,,,,,,,,,,,,,,,,,165.1076,165.8418,z,1,0.7241,,165.8419,165.8419,,0,46,46,357,1,358,işarek,,,,,6,notharmonic,1.95,nw,z,,,,,,,
,,,,,,,,,,,M,001,2023-11-08_22h11.37.327,vowel_harmony,2023.2.3,Win32,60.07449237,165.8429,166.8407,,,,,,,,,,,,,,,,,,,,,,,,,,166.8407,167.4242,m,1,0.5626,,167.4243,167.4245,,0,47,47,106,1,107,esnaf,315,14.3124,284,0.031,5,notharmonic,1.55,word,m,,,,,,,
,,,,,,,,,,,M,001,2023-11-08_22h11.37.327,vowel_harmony,2023.2.3,Win32,60.07449237,167.4255,168.4242,,,,,,,,,,,,,,,,,,,,,,,,,,168.4243,169.0239,z,1,0.5885,,169.024,169.0244,,0,48,48,206,1,207,bevek,,,,,5,harmonic,1.75,nw,z,,,,,,,
,,,,,,,,,,,M,001,2023-11-08_22h11.37.327,vowel_harmony,2023.2.3,Win32,60.07449237,169.0252,170.0241,,,,,,,,,,,,,,,,,,,,,,,,,,170.0241,170.6242,z,1,0.5782,,170.6242,170.6244,,0,49,49,305,1,306,tamü,,,,,4,notharmonic,1.75,nw,z,,,,,,,
,,,,,,,,,,,M,001,2023-11-08_22h11.37.327,vowel_harmony,2023.2.3,Win32,60.07449237,170.6254,171.6241,,,,,,,,,,,,,,,,,,,,,,,,,,171.6241,172.1906,m,1,0.552,,172.1908,172.1909,,0,50,50,74,1,75,başarı,1398,63.5196,1300,0.1421,6,harmonic,1.2,word,m,,,,,,,
,,,,,,,,,,,M,001,2023-11-08_22h11.37.327,vowel_harmony,2023.2.3,Win32,60.07449237,172.1919,173.1907,,,,,,,,,,,,,,,,,,,,,,,,,,173.1908,173.8072,z,1,0.5954,,173.8073,173.8073,,0,51,51,312,1,313,şahmin,,,,,6,notharmonic,1.8,nw,z,,,,,,,
,,,,,,,,,,,M,001,2023-11-08_22h11.37.327,vowel_harmony,2023.2.3,Win32,60.07449237,173.8078,174.8074,,,,,,,,,,,,,,,,,,,,,,,,,,174.8074,175.3574,m,1,0.5302,,175.3575,175.3577,,0,52,52,64,1,65,lise,888,40.3472,816,0.0892,4,harmonic,1.5,word,m,,,,,,,
,,,,,,,,,,,M,001,2023-11-08_22h11.37.327,vowel_harmony,2023.2.3,Win32,60.07449237,175.3587,176.3572,,,,,,,,,,,,,,,,,,,,,,,,,,176.3573,176.8574,m,1,0.48,,176.8575,176.8576,,0,53,53,35,1,36,hava,4975,226.0443,4398,0.4808,4,harmonic,1,word,m,,,,,,,
,,,,,,,,,,,M,001,2023-11-08_22h11.37.327,vowel_harmony,2023.2.3,Win32,60.07449237,176.8588,177.8574,,,,,,,,,,,,,,,,,,,,,,,,,,177.8575,178.4239,m,1,0.5479,,178.4239,178.424,,0,54,54,102,1,103,esas,1965,89.2818,1795,0.1962,4,notharmonic,1.75,word,m,,,,,,,
,,,,,,,,,,,M,001,2023-11-08_22h11.37.327,vowel_harmony,2023.2.3,Win32,60.07449237,178.4246,179.4238,,,,,,,,,,,,,,,,,,,,,,,,,,179.4238,180.0572,z,1,0.6139,,180.0573,180.0574,,0,55,55,215,1,216,aydo,,,,,4,harmonic,1.9,nw,z,,,,,,,
,,,,,,,,,,,M,001,2023-11-08_22h11.37.327,vowel_harmony,2023.2.3,Win32,60.07449237,180.0584,181.0573,,,,,,,,,,,,,,,,,,,,,,,,,,181.0574,181.9073,z,1,0.8342,,181.9074,181.9076,,0,56,56,309,1,310,yorgen,,,,,6,notharmonic,1.9,nw,z,,,,,,,
,,,,,,,,,,,M,001,2023-11-08_22h11.37.327,vowel_harmony,2023.2.3,Win32,60.07449237,181.9086,182.9072,,,,,,,,,,,,,,,,,,,,,,,,,,182.9072,183.6073,z,1,0.6803,,183.6074,183.6074,,0,57,57,311,1,312,dedya,,,,,5,notharmonic,1.9,nw,z,,,,,,,
,,,,,,,,,,,M,001,2023-11-08_22h11.37.327,vowel_harmony,2023.2.3,Win32,60.07449237,183.6084,184.6072,,,,,,,,,,,,,,,,,,,,,,,,,,184.6072,185.1738,m,1,0.5539,,185.1738,185.174,,0,58,58,146,1,147,mavi,2206,100.2319,1934,0.2114,4,notharmonic,1.45,word,m,,,,,,,
,,,,,,,,,,,M,001,2023-11-08_22h11.37.327,vowel_harmony,2023.2.3,Win32,60.07449237,185.175,186.1735,,,,,,,,,,,,,,,,,,,,,,,,,,186.1736,186.7905,m,1,0.5975,,186.7905,186.7906,,0,59,59,31,1,32,fazla,18293,831.1614,16694,1.825,5,harmonic,1,word,m,,,,,,,
,,,,,,,,,,,M,001,2023-11-08_22h11.37.327,vowel_harmony,2023.2.3,Win32,60.07449237,186.7911,187.7907,,,,,,,,,,,,,,,,,,,,,,,,,,187.7907,188.3904,z,1,0.5804,,188.3906,188.3907,,0,60,60,195,1,196,netüm,,,,,5,harmonic,1.95,nw,z,,,,,,,
,,,,,,,,,,,M,001,2023-11-08_22h11.37.327,vowel_harmony,2023.2.3,Win32,60.07449237,188.3917,189.3905,,,,,,,,,,,,,,,,,,,,,,,,,,189.3906,190.1405,z,1,0.7298,,190.1405,190.1408,,0,61,61,190,1,191,reklen,,,,,6,harmonic,1.8,nw,z,,,,,,,
,,,,,,,,,,,M,001,2023-11-08_22h11.37.327,vowel_harmony,2023.2.3,Win32,60.07449237,190.1419,191.1405,,,,,,,,,,,,,,,,,,,,,,,,,,191.1405,191.8405,m,1,0.6803,,191.8406,191.8407,,0,62,62,13,1,14,nokta,2085,94.7341,1939,0.212,5,harmonic,1.5,word,m,,,,,,,
,,,,,,,,,,,M,001,2023-11-08_22h11.37.327,vowel_harmony,2023.2.3,Win32,60.07449237,191.8417,192.8405,,,,,,,,,,,,,,,,,,,,,,,,,,192.8406,193.3422,m,1,0.4917,,193.3424,193.3426,,0,63,63,105,1,106,sahip,10887,494.6621,9847,1.0765,5,notharmonic,1.25,word,m,,,,,,,
,,,,,,,,,,,M,001,2023-11-08_22h11.37.327,vowel_harmony,2023.2.3,Win32,60.07449237,193.3433,194.3403,,,,,,,,,,,,,,,,,,,,,,,,,,194.3403,194.907,z,1,0.556,,194.9071,194.9072,,0,64,64,237,1,238,taşal,,,,,5,harmonic,1.8,nw,z,,,,,,,
,,,,,,,,,,,M,001,2023-11-08_22h11.37.327,vowel_harmony,2023.2.3,Win32,60.07449237,194.9081,195.907,,,,,,,,,,,,,,,,,,,,,,,,,,195.9071,196.5737,m,1,0.6527,,196.5737,196.5739,,0,65,65,60,1,61,doğu,2105,95.6429,1823,0.1993,4,harmonic,1.05,word,m,,,,,,,
,,,,,,,,,,,M,001,2023-11-08_22h11.37.327,vowel_harmony,2023.2.3,Win32,60.07449237,196.5749,197.5741,,,,,,,,,,,,,,,,,,,,,,,,,,197.5741,198.157,m,1,0.5712,,198.1571,198.1572,,0,66,66,140,1,141,sahil,481,21.8547,443,0.0484,5,notharmonic,1.45,word,m,,,,,,,
,,,,,,,,,,,M,001,2023-11-08_22h11.37.327,vowel_harmony,2023.2.3,Win32,60.07449237,198.1582,199.157,,,,,,,,,,,,,,,,,,,,,,,,,,199.157,199.8403,z,1,0.6631,,199.8404,199.8406,,0,67,67,347,1,348,tekram,,,,,6,notharmonic,1.95,nw,z,,,,,,,
,,,,,,,,,,,M,001,2023-11-08_22h11.37.327,vowel_harmony,2023.2.3,Win32,60.07449237,199.8416,200.8402,,,,,,,,,,,,,,,,,,,,,,,,,,200.8402,201.4401,z,1,0.579,,201.4402,201.4402,,0,68,68,280,1,281,adalek,,,,,6,notharmonic,1.85,nw,z,,,,,,,
,,,,,,,,,,,M,001,2023-11-08_22h11.37.327,vowel_harmony,2023.2.3,Win32,60.07449237,201.4412,202.4397,,,,,,,,,,,,,,,,,,,,,,,,,,202.4398,203.0235,z,1,0.572,,203.0236,203.0236,,0,69,69,353,1,354,ikno,,,,,4,notharmonic,1.95,nw,z,,,,,,,
,,,,,,,,,,,M,001,2023-11-08_22h11.37.327,vowel_harmony,2023.2.3,Win32,60.07449237,203.0241,204.0235,,,,,,,,,,,,,,,,,,,,,,,,,,204.0235,204.6231,m,1,0.5901,,204.6232,204.6232,,0,70,70,54,1,55,yedek,825,37.4847,732,0.08,5,harmonic,1.65,word,m,,,,,,,
,,,,,,,,,,,M,001,2023-11-08_22h11.37.327,vowel_harmony,2023.2.3,Win32,60.07449237,204.6238,205.6234,,,,,,,,,,,,,,,,,,,,,,,,,,205.6234,206.3415,z,1,0.7078,,206.3416,206.3418,,0,71,71,227,1,228,zekö,,,,,4,harmonic,1.9,nw,z,,,,,,,
,,,,,,,,,,,M,001,2023-11-08_22h11.37.327,vowel_harmony,2023.2.3,Win32,60.07449237,206.3427,207.3402,,,,,,,,,,,,,,,,,,,,,,,,,,207.3402,207.9576,m,1,0.6077,,207.9577,207.9578,,0,72,72,10,1,11,bardak,1728,78.5135,1569,0.1715,6,harmonic,1.6,word,m,,,,,,,
,,,,,,,,,,,M,001,2023-11-08_22h11.37.327,vowel_harmony,2023.2.3,Win32,60.07449237,207.9588,208.9567,,,,,,,,,,,,,,,,,,,,,,,,,,208.9568,209.54,z,1,0.5709,,209.54,209.5401,,0,73,73,290,1,291,aipa,,,,,4,notharmonic,1.95,nw,z,,,,,,,
,,,,,,,,,,,M,001,2023-11-08_22h11.37.327,vowel_harmony,2023.2.3,Win32,60.07449237,209.5406,210.5399,,,,,,,,,,,,,,,,,,,,,,,,,,210.5399,211.0899,m,1,0.5308,,211.09,211.0903,,0,74,74,49,1,50,şeker,4708,213.9128,4170,0.4559,5,harmonic,1.6,word,m,,,,,,,
,,,,,,,,,,,M,001,2023-11-08_22h11.37.327,vowel_harmony,2023.2.3,Win32,60.07449237,211.0912,212.0899,,,,,,,,,,,,,,,,,,,,,,,,,,212.09,212.6068,m,1,0.496,,212.6069,212.607,,0,75,75,87,1,88,mümkün,6604,300.0596,6264,0.6848,6,harmonic,1.9,word,m,,,,,,,
,,,,,,,,,,,M,001,2023-11-08_22h11.37.327,vowel_harmony,2023.2.3,Win32,60.07449237,212.608,213.6065,,,,,,,,,,,,,,,,,,,,,,,,,,213.6065,214.3066,m,1,0.6874,,214.3067,214.3069,,0,76,76,46,1,47,takım,4370,198.5555,3726,0.4073,5,harmonic,1.7,word,m,,,,,,,
,,,,,,,,,,,M,001,2023-11-08_22h11.37.327,vowel_harmony,2023.2.3,Win32,60.07449237,214.3078,215.3067,,,,,,,,,,,,,,,,,,,,,,,,,,215.3067,216.04,z,1,0.7127,,216.04,216.0401,,0,77,77,209,1,210,sapor,,,,,5,harmonic,1.8,nw,z,,,,,,,
,,,,,,,,,,,M,001,2023-11-08_22h11.37.327,vowel_harmony,2023.2.3,Win32,60.07449237,216.0411,217.0401,,,,,,,,,,,,,,,,,,,,,,,,,,217.0401,217.692,m,1,0.6416,,217.6921,217.6922,,0,78,78,160,1,161,hakem,603,27.3979,473,0.0517,5,notharmonic,1.3,word,m,,,,,,,
,,,,,,,,,,,M,001,2023-11-08_22h11.37.327,vowel_harmony,2023.2.3,Win32,60.07449237,217.6928,218.6897,,,,,,,,,,,,,,,,,,,,,,,,,,218.6898,219.3583,z,1,0.6582,,219.3584,219.3585,,0,79,79,308,1,309,hafer,,,,,5,notharmonic,1.85,nw,z,,,,,,,
,,,,,,,,,,,M,001,2023-11-08_22h11.37.327,vowel_harmony,2023.2.3,Win32,60.07449237,219.3596,220.3561,,,,,,,,,,,,,,,,,,,,,,,,,,220.3562,220.8895,m,1,0.5244,,220.8896,220.8896,,0,80,80,150,1,151,sabit,1046,47.5261,915,0.1,5,notharmonic,1.75,word,m,,,,,,,
,,,,,,,,,,,M,001,2023-11-08_22h11.37.327,vowel_harmony,2023.2.3,Win32,60.07449237,220.8901,221.8897,,,,,,,,,,,,,,,,,,,,,,,,,,221.8898,222.6232,z,1,0.7174,,222.6232,222.6234,,0,81,81,344,1,345,barika,,,,,6,notharmonic,1.75,nw,z,,,,,,,
,,,,,,,,,,,M,001,2023-11-08_22h11.37.327,vowel_harmony,2023.2.3,Win32,60.07449237,222.6245,223.6228,,,,,,,,,,,,,,,,,,,,,,,,,,223.6229,224.2565,m,1,0.6225,,224.2566,224.2568,,0,82,82,114,1,115,nisan,2321,105.457,2044,0.2235,5,notharmonic,1.6,word,m,,,,,,,
,,,,,,,,,,,M,001,2023-11-08_22h11.37.327,vowel_harmony,2023.2.3,Win32,60.07449237,224.2576,225.2561,,,,,,,,,,,,,,,,,,,,,,,,,,225.2562,225.8896,z,1,0.6174,,225.8896,225.8897,,0,83,83,275,1,276,tahçe,,,,,5,notharmonic,1.95,nw,z,,,,,,,
,,,,,,,,,,,M,001,2023-11-08_22h11.37.327,vowel_harmony,2023.2.3,Win32,60.07449237,225.8901,226.8893,,,,,,,,,,,,,,,,,,,,,,,,,,226.8893,227.6078,z,1,0.711,,227.6079,227.6079,,0,84,84,247,1,248,hafgın,,,,,6,harmonic,2,nw,z,,,,,,,
,,,,,,,,,,,M,001,2023-11-08_22h11.37.327,vowel_harmony,2023.2.3,Win32,60.07449237,227.6088,228.606,,,,,,,,,,,,,,,,,,,,,,,,,,228.606,229.1397,m,1,0.5192,,229.1397,229.1398,,0,85,85,68,1,69,ücret,734,33.35,634,0.0693,5,harmonic,1.85,word,m,,,,,,,
,,,,,,,,,,,M,001,2023-11-08_22h11.37.327,vowel_harmony,2023.2.3,Win32,60.07449237,229.1403,230.1396,,,,,,,,,,,,,,,,,,,,,,,,,,230.1397,230.7061,z,1,0.5537,,230.7062,230.7062,,0,86,86,239,1,240,şekik,,,,,5,harmonic,1.7,nw,z,,,,,,,
,,,,,,,,,,,M,001,2023-11-08_22h11.37.327,vowel_harmony,2023.2.3,Win32,60.07449237,230.7067,231.7062,,,,,,,,,,,,,,,,,,,,,,,,,,231.7062,232.2062,m,1,0.4893,,232.2062,232.2063,,0,87,87,101,1,102,imza,1358,61.7021,1253,0.137,4,notharmonic,1.65,word,m,,,,,,,
,,,,,,,,,,,M,001,2023-11-08_22h11.37.327,vowel_harmony,2023.2.3,Win32,60.07449237,232.2068,233.206,,,,,,,,,,,,,,,,,,,,,,,,,,233.206,233.7564,m,1,0.5361,,233.7566,233.7567,,0,88,88,107,1,108,merak,5806,263.8016,5524,0.6039,5,notharmonic,1.65,word,m,,,,,,,
,,,,,,,,,,,M,001,2023-11-08_22h11.37.327,vowel_harmony,2023.2.3,Win32,60.07449237,233.7577,234.7558,,,,,,,,,,,,,,,,,,,,,,,,,,234.7558,235.3726,z,1,0.599,,235.3726,235.3727,,0,89,89,232,1,233,kanur,,,,,5,harmonic,1.7,nw,z,,,,,,,
,,,,,,,,,,,M,001,2023-11-08_22h11.37.327,vowel_harmony,2023.2.3,Win32,60.07449237,235.373,236.3723,,,,,,,,,,,,,,,,,,,,,,,,,,236.3723,236.989,z,1,0.6025,,236.989,236.9891,,0,90,90,340,1,341,minya,,,,,5,notharmonic,1.95,nw,z,,,,,,,
,,,,,,,,,,,M,001,2023-11-08_22h11.37.327,vowel_harmony,2023.2.3,Win32,60.07449237,236.9894,237.9895,,,,,,,,,,,,,,,,,,,,,,,,,,237.9895,238.7395,z,1,0.7386,,238.7396,238.7398,,0,91,91,316,1,317,misaf,,,,,5,notharmonic,1.85,nw,z,,,,,,,
,,,,,,,,,,,M,001,2023-11-08_22h11.37.327,vowel_harmony,2023.2.3,Win32,60.07449237,238.7407,239.7392,,,,,,,,,,,,,,,,,,,,,,,,,,239.7392,240.2723,m,1,0.5234,,240.2724,240.2725,,0,92,92,24,1,25,yorgun,1153,52.3877,1108,0.1211,6,harmonic,1.55,word,m,,,,,,,
,,,,,,,,,,,M,001,2023-11-08_22h11.37.327,vowel_harmony,2023.2.3,Win32,60.07449237,240.273,241.2723,,,,,,,,,,,,,,,,,,,,,,,,,,241.2723,241.989,z,1,0.6961,,241.989,241.989,,0,93,93,255,1,256,yokın,,,,,5,harmonic,1.85,nw,z,,,,,,,
,,,,,,,,,,,M,001,2023-11-08_22h11.37.327,vowel_harmony,2023.2.3,Win32,60.07449237,241.9892,242.989,,,,,,,,,,,,,,,,,,,,,,,,,,242.989,243.6888,z,1,0.6911,,243.6889,243.6889,,0,94,94,194,1,195,rayna,,,,,5,harmonic,1.7,nw,z,,,,,,,
,,,,,,,,,,,M,001,2023-11-08_22h11.37.327,vowel_harmony,2023.2.3,Win32,60.07449237,243.6891,244.689,,,,,,,,,,,,,,,,,,,,,,,,,,244.6891,245.2055,z,1,0.5075,,245.2056,245.2056,,0,95,95,278,1,279,sekon,,,,,5,notharmonic,1.85,nw,z,,,,,,,
,,,,,,,,,,,M,001,2023-11-08_22h11.37.327,vowel_harmony,2023.2.3,Win32,60.07449237,245.2058,246.2054,,,,,,,,,,,,,,,,,,,,,,,,,,246.2055,246.739,m,1,0.5164,,246.739,246.739,,0,96,96,51,1,52,ilginç,2803,127.3572,2690,0.2941,6,harmonic,1.8,word,m,,,,,,,
,,,,,,,,,,,M,001,2023-11-08_22h11.37.327,vowel_harmony,2023.2.3,Win32,60.07449237,246.7393,247.7389,,,,,,,,,,,,,,,,,,,,,,,,,,247.7389,248.3557,m,1,0.599,,248.3557,248.3558,,0,97,97,89,1,90,etki,1234,56.0681,1169,0.1278,4,harmonic,1.4,word,m,,,,,,,
,,,,,,,,,,,M,001,2023-11-08_22h11.37.327,vowel_harmony,2023.2.3,Win32,60.07449237,248.3562,249.3556,,,,,,,,,,,,,,,,,,,,,,,,,,249.3556,250.0556,z,1,0.6863,,250.0557,250.0557,,0,98,98,307,1,308,merbat,,,,,6,notharmonic,1.95,nw,z,,,,,,,
,,,,,,,,,,,M,001,2023-11-08_22h11.37.327,vowel_harmony,2023.2.3,Win32,60.07449237,250.0559,251.0555,,,,,,,,,,,,,,,,,,,,,,,,,,251.0555,251.6555,m,1,0.5824,,251.6555,251.6555,,0,99,99,169,1,170,hikaye,1555,70.653,1405,0.1536,6,notharmonic,1.8,word,m,,,,,,,
,,,,,,,,,,,M,001,2023-11-08_22h11.37.327,vowel_harmony,2023.2.3,Win32,60.07449237,251.6557,252.6557,,,,,,,,,,,,,,,,,,,,,,,,,,252.6557,253.2054,z,1,0.5361,,253.2054,253.2055,,0,100,100,214,1,215,vecü,,,,,4,harmonic,1.95,nw,z,,,,,,,
,,,,,,,,,,,M,001,2023-11-08_22h11.37.327,vowel_harmony,2023.2.3,Win32,60.07449237,253.2056,254.2054,,,,,,,,,,,,,,,,,,,,,,,,,,254.2054,254.789,m,1,0.5673,,254.789,254.789,,0,101,101,55,1,56,akıl,2208,100.3228,2004,0.2191,4,harmonic,1,word,m,,,,,,,
,,,,,,,,,,,M,001,2023-11-08_22h11.37.327,vowel_harmony,2023.2.3,Win32,60.07449237,254.7894,255.7887,,,,,,,,,,,,,,,,,,,,,,,,,,255.7887,256.3388,m,0,0.5386,,256.3388,256.3388,,0,102,102,277,1,278,balsin,,,,,6,notharmonic,1.85,nw,z,,,,,,,
,,,,,,,,,,,M,001,2023-11-08_22h11.37.327,vowel_harmony,2023.2.3,Win32,60.07449237,256.3391,257.3388,,,,,,,,,,,,,,,,,,,,,,,,,,257.3389,258.072,m,1,0.7144,,258.072,258.072,,0,103,103,123,1,124,haber,4559,207.1429,4151,0.4538,5,notharmonic,1.85,word,m,,,,,,,
,,,,,,,,,,,M,001,2023-11-08_22h11.37.327,vowel_harmony,2023.2.3,Win32,60.07449237,258.0725,259.0723,,,,,,,,,,,,,,,,,,,,,,,,,,259.0723,259.822,m,1,0.7377,,259.822,259.8221,,0,104,104,39,1,40,yaygın,1061,48.2076,1019,0.1114,6,harmonic,1.35,word,m,,,,,,,
,,,,,,,,,,,M,001,2023-11-08_22h11.37.327,vowel_harmony,2023.2.3,Win32,60.07449237,259.8223,260.8221,,,,,,,,,,,,,,,,,,,,,,,,,,260.8221,261.6553,m,1,0.8186,,261.6554,261.6554,,0,105,105,72,1,73,çorba,1674,76.0599,1513,0.1654,5,harmonic,1.75,word,m,,,,,,,
,,,,,,,,,,,M,001,2023-11-08_22h11.37.327,vowel_harmony,2023.2.3,Win32,60.07449237,261.6558,262.6554,,,,,,,,,,,,,,,,,,,,,,,,,,262.6555,263.2551,z,1,0.5795,,263.2551,263.2552,,0,106,106,241,1,242,porlam,,,,,6,harmonic,2,nw,z,,,,,,,
,,,,,,,,,,,M,001,2023-11-08_22h11.37.327,vowel_harmony,2023.2.3,Win32,60.07449237,263.2554,264.2552,,,,,,,,,,,,,,,,,,,,,,,,,,264.2552,265.5225,z,1,1.2507,,265.5225,265.5227,,0,107,107,336,1,337,diyam,,,,,5,notharmonic,1.85,nw,z,,,,,,,
,,,,,,,,,,,M,001,2023-11-08_22h11.37.327,vowel_harmony,2023.2.3,Win32,60.07449237,265.5237,266.5223,,,,,,,,,,,,,,,,,,,,,,,,,,266.5223,267.1223,z,1,0.5805,,267.1225,267.1225,,0,108,108,256,1,257,yaruza,,,,,6,harmonic,1.9,nw,z,,,,,,,
,,,,,,,,,,,M,001,2023-11-08_22h11.37.327,vowel_harmony,2023.2.3,Win32,60.07449237,267.1237,268.1223,,,,,,,,,,,,,,,,,,,,,,,,,,268.1223,268.6722,m,1,0.5315,,268.6723,268.6724,,0,109,109,5,1,6,bebek,3301,149.9843,2794,0.3054,5,harmonic,1.6,word,m,,,,,,,
,,,,,,,,,,,M,001,2023-11-08_22h11.37.327,vowel_harmony,2023.2.3,Win32,60.07449237,268.6729,269.6723,,,,,,,,,,,,,,,,,,,,,,,,,,269.6723,270.2725,z,1,0.581,,270.2725,270.2726,,0,110,110,197,1,198,ranar,,,,,5,harmonic,1.75,nw,z,,,,,,,
,,,,,,,,,,,M,001,2023-11-08_22h11.37.327,vowel_harmony,2023.2.3,Win32,60.07449237,270.2735,271.2723,,,,,,,,,,,,,,,,,,,,,,,,,,271.2723,271.8738,z,1,0.5916,,271.8738,271.874,,0,111,111,210,1,211,şevci,,,,,5,harmonic,1.75,nw,z,,,,,,,
,,,,,,,,,,,M,001,2023-11-08_22h11.37.327,vowel_harmony,2023.2.3,Win32,60.07449237,271.875,272.8723,,,,,,,,,,,,,,,,,,,,,,,,,,272.8724,273.7224,m,1,0.8343,,273.7224,273.7226,,0,112,112,4,1,5,metre,1156,52.5241,1015,0.111,5,harmonic,1.7,word,m,,,,,,,
,,,,,,,,,,,M,001,2023-11-08_22h11.37.327,vowel_harmony,2023.2.3,Win32,60.07449237,273.7235,274.7221,,,,,,,,,,,,,,,,,,,,,,,,,,274.7221,275.339,m,1,0.606,,275.339,275.3392,,0,113,113,154,1,155,sakin,1855,84.2838,1635,0.1787,5,notharmonic,1.05,word,m,,,,,,,
,,,,,,,,,,,M,001,2023-11-08_22h11.37.327,vowel_harmony,2023.2.3,Win32,60.07449237,275.3401,276.3389,,,,,,,,,,,,,,,,,,,,,,,,,,276.3389,277.1398,z,1,0.7904,,277.1399,277.14,,0,114,114,211,1,212,yarum,,,,,5,harmonic,1.75,nw,z,,,,,,,
,,,,,,,,,,,M,001,2023-11-08_22h11.37.327,vowel_harmony,2023.2.3,Win32,60.07449237,277.1407,278.139,,,,,,,,,,,,,,,,,,,,,,,,,,278.139,278.7554,m,1,0.6016,,278.7555,278.7555,,0,115,115,37,1,38,hayvan,2363,107.3653,1894,0.2071,6,harmonic,1.5,word,m,,,,,,,
,,,,,,,,,,,M,001,2023-11-08_22h11.37.327,vowel_harmony,2023.2.3,Win32,60.07449237,278.7561,279.7554,,,,,,,,,,,,,,,,,,,,,,,,,,279.7555,280.5386,m,1,0.7719,,280.5387,280.5388,,0,116,116,26,1,27,sebze,1094,49.707,961,0.1051,5,harmonic,1.9,word,m,,,,,,,
,,,,,,,,,,,M,001,2023-11-08_22h11.37.327,vowel_harmony,2023.2.3,Win32,60.07449237,280.5392,281.5388,,,,,,,,,,,,,,,,,,,,,,,,,,281.5388,282.1388,z,1,0.5807,,282.1389,282.139,,0,117,117,251,1,252,oştay,,,,,5,harmonic,1.95,nw,z,,,,,,,
,,,,,,,,,,,M,001,2023-11-08_22h11.37.327,vowel_harmony,2023.2.3,Win32,60.07449237,282.1399,283.1388,,,,,,,,,,,,,,,,,,,,,,,,,,283.1389,283.8722,m,1,0.7156,,283.8723,283.8724,,0,118,118,90,1,91,tarif,2834,128.7657,2611,0.2854,5,notharmonic,1.5,word,m,,,,,,,
,,,,,,,,,,,M,001,2023-11-08_22h11.37.327,vowel_harmony,2023.2.3,Win32,60.07449237,283.8734,284.8721,,,,,,,,,,,,,,,,,,,,,,,,,,284.8721,285.4388,z,1,0.546,,285.4389,285.4391,,0,119,119,242,1,243,kahon,,,,,5,harmonic,1.85,nw,z,,,,,,,
,,,,,,,,,,,M,001,2023-11-08_22h11.37.327,vowel_harmony,2023.2.3,Win32,60.07449237,285.44,286.4386,,,,,,,,,,,,,,,,,,,,,,,,,,286.4387,287.0388,m,1,0.5888,,287.0388,299.6222,space,0,120,120,99,1,100,ilave,3173,144.1685,2619,0.2863,5,notharmonic,1.85,word,m,12.5649,,,,,,
,,,,,,,,,,,M,001,2023-11-08_22h11.37.327,vowel_harmony,2023.2.3,Win32,60.07449237,299.6366,300.6384,,,,,,,,,,,,,,,,,,,,,,,,,,300.6384,301.5384,z,1,0.8876,,301.5385,301.5386,,0,121,121,228,1,229,haytam,,,,,6,harmonic,1.75,nw,z,,,,,,,
,,,,,,,,,,,M,001,2023-11-08_22h11.37.327,vowel_harmony,2023.2.3,Win32,60.07449237,301.5395,302.5385,,,,,,,,,,,,,,,,,,,,,,,,,,302.5386,303.0385,m,1,0.4793,,303.0385,303.0386,,0,122,122,125,1,126,ikna,1276,57.9764,1173,0.1282,4,notharmonic,1.85,word,m,,,,,,,
,,,,,,,,,,,M,001,2023-11-08_22h11.37.327,vowel_harmony,2023.2.3,Win32,60.07449237,303.0396,304.0383,,,,,,,,,,,,,,,,,,,,,,,,,,304.0384,304.6216,z,1,0.5621,,304.6217,304.6218,,0,123,123,201,1,202,ergiy,,,,,5,harmonic,1.85,nw,z,,,,,,,
,,,,,,,,,,,M,001,2023-11-08_22h11.37.327,vowel_harmony,2023.2.3,Win32,60.07449237,304.6227,305.6215,,,,,,,,,,,,,,,,,,,,,,,,,,305.6216,306.4554,m,1,0.8243,,306.4554,306.4556,,0,124,124,119,1,120,kulüp,649,29.488,467,0.0511,5,notharmonic,1.4,word,m,,,,,,,
,,,,,,,,,,,M,001,2023-11-08_22h11.37.327,vowel_harmony,2023.2.3,Win32,60.07449237,306.4564,307.4549,,,,,,,,,,,,,,,,,,,,,,,,,,307.4549,308.0721,m,1,0.6065,,308.0722,308.0723,,0,125,125,103,1,104,tane,5623,255.4868,5075,0.5548,4,notharmonic,1.3,word,m,,,,,,,
,,,,,,,,,,,M,001,2023-11-08_22h11.37.327,vowel_harmony,2023.2.3,Win32,60.07449237,308.0733,309.0715,,,,,,,,,,,,,,,,,,,,,,,,,,309.0716,309.6049,z,1,0.512,,309.6049,309.6049,,0,126,126,325,1,326,garit,,,,,5,notharmonic,1.85,nw,z,,,,,,,
,,,,,,,,,,,M,001,2023-11-08_22h11.37.327,vowel_harmony,2023.2.3,Win32,60.07449237,309.606,310.6047,,,,,,,,,,,,,,,,,,,,,,,,,,310.6048,311.2549,z,1,0.6292,,311.255,311.2552,,0,127,127,301,1,302,mezak,,,,,5,notharmonic,1.8,nw,z,,,,,,,
,,,,,,,,,,,M,001,2023-11-08_22h11.37.327,vowel_harmony,2023.2.3,Win32,60.07449237,311.256,312.255,,,,,,,,,,,,,,,,,,,,,,,,,,312.2551,312.755,m,1,0.4883,,312.755,312.7552,,0,128,128,14,1,15,yaşam,4348,197.5559,3918,0.4283,5,harmonic,1.4,word,m,,,,,,,
,,,,,,,,,,,M,001,2023-11-08_22h11.37.327,vowel_harmony,2023.2.3,Win32,60.07449237,312.756,313.7547,,,,,,,,,,,,,,,,,,,,,,,,,,313.7548,314.305,m,1,0.5298,,314.3051,314.3052,,0,129,129,142,1,143,siyasi,2909,132.1734,2445,0.2673,6,notharmonic,1.8,word,m,,,,,,,
,,,,,,,,,,,M,001,2023-11-08_22h11.37.327,vowel_harmony,2023.2.3,Win32,60.07449237,314.3061,315.3046,,,,,,,,,,,,,,,,,,,,,,,,,,315.3046,315.7382,m,1,0.4221,,315.7382,315.7383,,0,130,130,15,1,16,hayat,7922,359.9443,7314,0.7996,5,harmonic,1.9,word,m,,,,,,,
,,,,,,,,,,,M,001,2023-11-08_22h11.37.327,vowel_harmony,2023.2.3,Win32,60.07449237,315.7393,316.738,,,,,,,,,,,,,,,,,,,,,,,,,,316.738,317.2549,m,1,0.5035,,317.2551,317.2553,,0,131,131,81,1,82,üretim,1593,72.3796,1283,0.1403,6,harmonic,1.6,word,m,,,,,,,
,,,,,,,,,,,M,001,2023-11-08_22h11.37.327,vowel_harmony,2023.2.3,Win32,60.07449237,317.2561,318.2548,,,,,,,,,,,,,,,,,,,,,,,,,,318.2549,318.9213,z,1,0.6542,,318.9214,318.9216,,0,132,132,320,1,321,finak,,,,,5,notharmonic,1.85,nw,z,,,,,,,
,,,,,,,,,,,M,001,2023-11-08_22h11.37.327,vowel_harmony,2023.2.3,Win32,60.07449237,318.9225,319.9214,,,,,,,,,,,,,,,,,,,,,,,,,,319.9214,320.5045,z,1,0.5679,,320.5045,320.5045,,0,133,133,192,1,193,vecö,,,,,4,harmonic,1.95,nw,z,,,,,,,
,,,,,,,,,,,M,001,2023-11-08_22h11.37.327,vowel_harmony,2023.2.3,Win32,60.07449237,320.505,321.5046,,,,,,,,,,,,,,,,,,,,,,,,,,321.5046,322.1215,m,1,0.5979,,322.1216,322.1218,,0,134,134,121,1,122,mesaj,1604,72.8794,1386,0.1515,5,notharmonic,1.8,word,m,,,,,,,
,,,,,,,,,,,M,001,2023-11-08_22h11.37.327,vowel_harmony,2023.2.3,Win32,60.07449237,322.1226,323.1214,,,,,,,,,,,,,,,,,,,,,,,,,,323.1214,324.2713,z,1,1.1306,,324.2714,324.2715,,0,135,135,289,1,290,karmen,,,,,6,notharmonic,1.75,nw,z,,,,,,,
,,,,,,,,,,,M,001,2023-11-08_22h11.37.327,vowel_harmony,2023.2.3,Win32,60.07449237,324.2726,325.2713,,,,,,,,,,,,,,,,,,,,,,,,,,325.2714,326.0215,m,1,0.7352,,326.0215,326.0217,,0,136,136,0,1,1,sanat,3121,141.8059,2485,0.2717,5,harmonic,1.4,word,m,,,,,,,
,,,,,,,,,,,M,001,2023-11-08_22h11.37.327,vowel_harmony,2023.2.3,Win32,60.07449237,326.0226,327.0214,,,,,,,,,,,,,,,,,,,,,,,,,,327.0215,327.5713,z,1,0.5334,,327.5713,327.5716,,0,137,137,269,1,270,vekü,,,,,4,harmonic,2,nw,z,,,,,,,
,,,,,,,,,,,M,001,2023-11-08_22h11.37.327,vowel_harmony,2023.2.3,Win32,60.07449237,327.5724,328.5714,,,,,,,,,,,,,,,,,,,,,,,,,,328.5714,329.2714,z,1,0.6801,,329.2714,329.2715,,0,138,138,188,1,189,tonık,,,,,5,harmonic,1.85,nw,z,,,,,,,
,,,,,,,,,,,M,001,2023-11-08_22h11.37.327,vowel_harmony,2023.2.3,Win32,60.07449237,329.2725,330.2714,,,,,,,,,,,,,,,,,,,,,,,,,,330.2714,330.9042,m,1,0.6157,,330.9043,330.9044,,0,139,139,136,1,137,beyaz,5517,250.6706,4788,0.5234,5,notharmonic,1.85,word,m,,,,,,,
,,,,,,,,,,,M,001,2023-11-08_22h11.37.327,vowel_harmony,2023.2.3,Win32,60.07449237,330.9049,331.9044,,,,,,,,,,,,,,,,,,,,,,,,,,331.9045,332.4708,m,1,0.5508,,332.4709,332.4709,,0,140,140,163,1,164,limon,1658,75.3329,1481,0.1619,5,notharmonic,1.75,word,m,,,,,,,
,,,,,,,,,,,M,001,2023-11-08_22h11.37.327,vowel_harmony,2023.2.3,Win32,60.07449237,332.4713,333.4711,,,,,,,,,,,,,,,,,,,,,,,,,,333.4711,334.1544,z,1,0.6686,,334.1545,334.1546,,0,141,141,187,1,188,remrin,,,,,6,harmonic,1.9,nw,z,,,,,,,
,,,,,,,,,,,M,001,2023-11-08_22h11.37.327,vowel_harmony,2023.2.3,Win32,60.07449237,334.1556,335.1546,,,,,,,,,,,,,,,,,,,,,,,,,,335.1546,335.8045,m,1,0.6318,,335.8046,335.8047,,0,142,142,179,1,180,dakika,5891,267.6637,5207,0.5692,6,notharmonic,1.75,word,m,,,,,,,
,,,,,,,,,,,M,001,2023-11-08_22h11.37.327,vowel_harmony,2023.2.3,Win32,60.07449237,335.8056,336.8045,,,,,,,,,,,,,,,,,,,,,,,,,,336.8046,337.2879,m,1,0.4632,,337.288,337.2882,,0,143,143,92,1,93,sahne,1380,62.7017,1238,0.1353,5,notharmonic,1.65,word,m,,,,,,,
,,,,,,,,,,,M,001,2023-11-08_22h11.37.327,vowel_harmony,2023.2.3,Win32,60.07449237,337.289,338.2878,,,,,,,,,,,,,,,,,,,,,,,,,,338.2878,338.8377,m,1,0.5293,,338.8377,338.8379,,0,144,144,2,1,3,radyo,763,34.6677,636,0.0695,5,harmonic,1.85,word,m,,,,,,,
,,,,,,,,,,,M,001,2023-11-08_22h11.37.327,vowel_harmony,2023.2.3,Win32,60.07449237,338.8388,339.8377,,,,,,,,,,,,,,,,,,,,,,,,,,339.8378,340.4712,z,1,0.6134,,340.4713,340.4716,,0,145,145,198,1,199,yarbız,,,,,6,harmonic,1.95,nw,z,,,,,,,
,,,,,,,,,,,M,001,2023-11-08_22h11.37.327,vowel_harmony,2023.2.3,Win32,60.07449237,340.4724,341.4711,,,,,,,,,,,,,,,,,,,,,,,,,,341.4712,342.0377,z,1,0.5502,,342.0378,342.0378,,0,146,146,329,1,330,taif,,,,,4,notharmonic,1.8,nw,z,,,,,,,
,,,,,,,,,,,M,001,2023-11-08_22h11.37.327,vowel_harmony,2023.2.3,Win32,60.07449237,342.0388,343.0376,,,,,,,,,,,,,,,,,,,,,,,,,,343.0377,343.5543,m,1,0.4983,,343.5543,343.5545,,0,147,147,148,1,149,selam,1868,84.8745,1764,0.1928,5,notharmonic,1.35,word,m,,,,,,,
,,,,,,,,,,,M,001,2023-11-08_22h11.37.327,vowel_harmony,2023.2.3,Win32,60.07449237,343.5554,344.5541,,,,,,,,,,,,,,,,,,,,,,,,,,344.5542,345.3544,m,1,0.7796,,345.3545,345.3546,,0,148,148,69,1,70,forma,719,32.6685,597,0.0653,5,harmonic,1.8,word,m,,,,,,,
,,,,,,,,,,,M,001,2023-11-08_22h11.37.327,vowel_harmony,2023.2.3,Win32,60.07449237,345.3556,346.3548,,,,,,,,,,,,,,,,,,,,,,,,,,346.3549,346.9043,z,1,0.5287,,346.9044,346.9045,,0,149,149,331,1,332,ehun,,,,,4,notharmonic,1.95,nw,z,,,,,,,
,,,,,,,,,,,M,001,2023-11-08_22h11.37.327,vowel_harmony,2023.2.3,Win32,60.07449237,346.9056,347.9042,,,,,,,,,,,,,,,,,,,,,,,,,,347.9042,348.4875,z,1,0.5622,,348.4876,348.4877,,0,150,150,302,1,303,işgar,,,,,5,notharmonic,1.9,nw,z,,,,,,,
,,,,,,,,,,,M,001,2023-11-08_22h11.37.327,vowel_harmony,2023.2.3,Win32,60.07449237,348.4888,349.4876,,,,,,,,,,,,,,,,,,,,,,,,,,349.4877,350.0377,z,1,0.5342,,350.0378,350.0379,,0,151,151,346,1,347,kidan,,,,,5,notharmonic,1.8,nw,z,,,,,,,
,,,,,,,,,,,M,001,2023-11-08_22h11.37.327,vowel_harmony,2023.2.3,Win32,60.07449237,350.0388,351.0376,,,,,,,,,,,,,,,,,,,,,,,,,,351.0376,351.8043,m,1,0.751,,351.8044,351.8046,,0,152,152,79,1,80,durum,6783,308.1926,6431,0.703,5,harmonic,1.7,word,m,,,,,,,
,,,,,,,,,,,M,001,2023-11-08_22h11.37.327,vowel_harmony,2023.2.3,Win32,60.07449237,351.8054,352.8041,,,,,,,,,,,,,,,,,,,,,,,,,,352.8042,353.504,z,0,0.6826,,353.5041,353.5042,,0,153,153,175,1,176,aile,3655,166.0687,3126,0.3417,4,notharmonic,1,word,m,,,,,,,
,,,,,,,,,,,M,001,2023-11-08_22h11.37.327,vowel_harmony,2023.2.3,Win32,60.07449237,353.5048,354.5041,,,,,,,,,,,,,,,,,,,,,,,,,,354.5041,355.2541,z,1,0.7285,,355.2541,355.2543,,0,154,154,299,1,300,fihal,,,,,5,notharmonic,1.95,nw,z,,,,,,,
,,,,,,,,,,,M,001,2023-11-08_22h11.37.327,vowel_harmony,2023.2.3,Win32,60.07449237,355.2552,356.254,,,,,,,,,,,,,,,,,,,,,,,,,,356.254,356.8873,z,1,0.6135,,356.8873,356.8875,,0,155,155,184,1,185,yapor,,,,,5,harmonic,1.9,nw,z,,,,,,,
,,,,,,,,,,,M,001,2023-11-08_22h11.37.327,vowel_harmony,2023.2.3,Win32,60.07449237,356.8884,357.8874,,,,,,,,,,,,,,,,,,,,,,,,,,357.8874,358.4052,z,1,0.5071,,358.4052,358.4053,,0,156,156,262,1,263,sauk,,,,,4,harmonic,1.85,nw,z,,,,,,,
,,,,,,,,,,,M,001,2023-11-08_22h11.37.327,vowel_harmony,2023.2.3,Win32,60.07449237,358.4062,359.4042,,,,,,,,,,,,,,,,,,,,,,,,,,359.4042,359.9542,m,1,0.5359,,359.9542,359.9543,,0,157,157,57,1,58,bölüm,1910,86.7828,1605,0.1755,5,harmonic,1.45,word,m,,,,,,,
,,,,,,,,,,,M,001,2023-11-08_22h11.37.327,vowel_harmony,2023.2.3,Win32,60.07449237,359.9553,360.9541,,,,,,,,,,,,,,,,,,,,,,,,,,360.9542,361.4873,m,1,0.51,,361.4874,361.4875,,0,158,158,132,1,133,modern,2326,105.6842,2031,0.222,6,notharmonic,1.85,word,m,,,,,,,
,,,,,,,,,,,M,001,2023-11-08_22h11.37.327,vowel_harmony,2023.2.3,Win32,60.07449237,361.488,362.4875,,,,,,,,,,,,,,,,,,,,,,,,,,362.4875,363.1041,z,1,0.6034,,363.1041,363.1044,,0,159,159,260,1,261,yarlam,,,,,6,harmonic,1.75,nw,z,,,,,,,
,,,,,,,,,,,M,001,2023-11-08_22h11.37.327,vowel_harmony,2023.2.3,Win32,60.07449237,363.1052,364.1035,,,,,,,,,,,,,,,,,,,,,,,,,,364.1036,364.6541,z,1,0.5322,,364.6541,364.6542,,0,160,160,324,1,325,pakeh,,,,,5,notharmonic,1.9,nw,z,,,,,,,
,,,,,,,,,,,M,001,2023-11-08_22h11.37.327,vowel_harmony,2023.2.3,Win32,60.07449237,364.6552,365.6538,,,,,,,,,,,,,,,,,,,,,,,,,,365.6538,366.1873,m,1,0.515,,366.1875,366.1876,,0,161,161,47,1,48,kaza,740,33.6227,679,0.0742,4,harmonic,1.85,word,m,,,,,,,
,,,,,,,,,,,M,001,2023-11-08_22h11.37.327,vowel_harmony,2023.2.3,Win32,60.07449237,366.1885,367.1871,,,,,,,,,,,,,,,,,,,,,,,,,,367.1871,367.6541,m,1,0.45,,367.6541,367.6544,,0,162,162,19,1,20,ödül,1063,48.2985,926,0.1012,4,harmonic,1.7,word,m,,,,,,,
,,,,,,,,,,,M,001,2023-11-08_22h11.37.327,vowel_harmony,2023.2.3,Win32,60.07449237,367.6553,368.6539,,,,,,,,,,,,,,,,,,,,,,,,,,368.6539,369.1871,m,1,0.5132,,369.1872,369.1873,,0,163,163,36,1,37,meslek,1082,49.1618,976,0.1067,6,harmonic,1.9,word,m,,,,,,,
,,,,,,,,,,,M,001,2023-11-08_22h11.37.327,vowel_harmony,2023.2.3,Win32,60.07449237,369.1882,370.1867,,,,,,,,,,,,,,,,,,,,,,,,,,370.1867,370.6537,m,1,0.4539,,370.6537,370.6539,,0,164,164,86,1,87,gerçek,8983,408.1519,8058,0.8809,6,harmonic,1.7,word,m,,,,,,,
,,,,,,,,,,,M,001,2023-11-08_22h11.37.327,vowel_harmony,2023.2.3,Win32,60.07449237,370.6544,371.6539,,,,,,,,,,,,,,,,,,,,,,,,,,371.6539,372.3206,z,1,0.6463,,372.3206,372.3208,,0,165,165,297,1,298,sapet,,,,,5,notharmonic,1.85,nw,z,,,,,,,
,,,,,,,,,,,M,001,2023-11-08_22h11.37.327,vowel_harmony,2023.2.3,Win32,60.07449237,372.3218,373.3203,,,,,,,,,,,,,,,,,,,,,,,,,,373.3203,373.9373,m,1,0.5965,,373.9373,373.9375,,0,166,166,178,1,179,dikkat,6230,283.0665,5888,0.6437,6,notharmonic,2.05,word,m,,,,,,,
,,,,,,,,,,,M,001,2023-11-08_22h11.37.327,vowel_harmony,2023.2.3,Win32,60.07449237,373.9384,374.9374,,,,,,,,,,,,,,,,,,,,,,,,,,374.9376,375.8372,z,1,0.8806,,375.8373,375.8375,,0,167,167,229,1,230,tonam,,,,,5,harmonic,1.8,nw,z,,,,,,,
,,,,,,,,,,,M,001,2023-11-08_22h11.37.327,vowel_harmony,2023.2.3,Win32,60.07449237,375.8383,376.8372,,,,,,,,,,,,,,,,,,,,,,,,,,376.8372,377.4381,z,1,0.5903,,377.4381,377.4382,,0,168,168,266,1,267,düştön,,,,,6,harmonic,1.9,nw,z,,,,,,,
,,,,,,,,,,,M,001,2023-11-08_22h11.37.327,vowel_harmony,2023.2.3,Win32,60.07449237,377.4391,378.4367,,,,,,,,,,,,,,,,,,,,,,,,,,378.4367,378.9702,m,1,0.5222,,378.9702,378.9704,,0,169,169,164,1,165,sinema,1575,71.5618,1304,0.1426,6,notharmonic,1.8,word,m,,,,,,,
,,,,,,,,,,,M,001,2023-11-08_22h11.37.327,vowel_harmony,2023.2.3,Win32,60.07449237,378.9708,379.9704,,,,,,,,,,,,,,,,,,,,,,,,,,379.9704,380.5037,m,1,0.5128,,380.5037,380.5039,,0,170,170,156,1,157,medya,1784,81.0579,1495,0.1634,5,notharmonic,1.35,word,m,,,,,,,
,,,,,,,,,,,M,001,2023-11-08_22h11.37.327,vowel_harmony,2023.2.3,Win32,60.07449237,380.5048,381.5038,,,,,,,,,,,,,,,,,,,,,,,,,,381.5038,382.137,z,1,0.6117,,382.137,382.1372,,0,171,171,230,1,231,bikir,,,,,5,harmonic,1.75,nw,z,,,,,,,
,,,,,,,,,,,M,001,2023-11-08_22h11.37.327,vowel_harmony,2023.2.3,Win32,60.07449237,382.1382,383.1371,,,,,,,,,,,,,,,,,,,,,,,,,,383.1372,383.672,m,1,0.5249,,383.6721,383.6722,,0,172,172,174,1,175,bugün,13879,630.6067,12842,1.4039,5,notharmonic,1.85,word,m,,,,,,,
,,,,,,,,,,,M,001,2023-11-08_22h11.37.327,vowel_harmony,2023.2.3,Win32,60.07449237,383.6731,384.6703,,,,,,,,,,,,,,,,,,,,,,,,,,384.6703,385.1211,m,1,0.4397,,385.1211,385.1212,,0,173,173,41,1,42,zengin,2193,99.6412,2015,0.2203,6,harmonic,1.65,word,m,,,,,,,
,,,,,,,,,,,M,001,2023-11-08_22h11.37.327,vowel_harmony,2023.2.3,Win32,60.07449237,385.1221,386.1203,,,,,,,,,,,,,,,,,,,,,,,,,,386.1203,386.5553,m,1,0.4253,,386.5554,386.5555,,0,174,174,111,1,112,kahve,2634,119.6785,2283,0.2496,5,notharmonic,1.85,word,m,,,,,,,
,,,,,,,,,,,M,001,2023-11-08_22h11.37.327,vowel_harmony,2023.2.3,Win32,60.07449237,386.5564,387.5533,,,,,,,,,,,,,,,,,,,,,,,,,,387.5534,388.1538,z,1,0.5802,,388.1538,388.1539,,0,175,175,350,1,351,resun,,,,,5,notharmonic,1.85,nw,z,,,,,,,
,,,,,,,,,,,M,001,2023-11-08_22h11.37.327,vowel_harmony,2023.2.3,Win32,60.07449237,388.1544,389.1537,,,,,,,,,,,,,,,,,,,,,,,,,,389.1538,389.6201,m,1,0.445,,389.6202,389.6204,,0,176,176,134,1,135,iptal,793,36.0308,725,0.0793,5,notharmonic,1.35,word,m,,,,,,,
,,,,,,,,,,,M,001,2023-11-08_22h11.37.327,vowel_harmony,2023.2.3,Win32,60.07449237,389.6213,390.6202,,,,,,,,,,,,,,,,,,,,,,,,,,390.6203,391.4868,m,1,0.8469,,391.4868,391.4871,,0,177,177,58,1,59,ayak,2143,97.3694,1931,0.2111,4,harmonic,1,word,m,,,,,,,
,,,,,,,,,,,M,001,2023-11-08_22h11.37.327,vowel_harmony,2023.2.3,Win32,60.07449237,391.4875,392.4868,,,,,,,,,,,,,,,,,,,,,,,,,,392.4869,393.1033,z,1,0.6015,,393.1033,393.1036,,0,178,178,356,1,357,mergun,,,,,6,notharmonic,1.95,nw,z,,,,,,,
,,,,,,,,,,,M,001,2023-11-08_22h11.37.327,vowel_harmony,2023.2.3,Win32,60.07449237,393.1044,394.1033,,,,,,,,,,,,,,,,,,,,,,,,,,394.1033,394.6868,m,1,0.5635,,394.6869,394.687,,0,179,179,83,1,84,küçük,14048,638.2854,12467,1.3629,5,harmonic,1.75,word,m,,,,,,,
,,,,,,,,,,,M,001,2023-11-08_22h11.37.327,vowel_harmony,2023.2.3,Win32,60.07449237,394.6879,395.6863,,,,,,,,,,,,,,,,,,,,,,,,,,395.6863,396.1699,m,1,0.4703,,396.17,396.1701,,0,180,180,141,1,142,madde,3793,172.3389,3389,0.3705,5,notharmonic,1.7,word,m,,,,,,,
,,,,,,,,,,,M,001,2023-11-08_22h11.37.327,vowel_harmony,2023.2.3,Win32,60.07449237,396.171,397.1698,,,,,,,,,,,,,,,,,,,,,,,,,,397.1699,397.5867,m,1,0.4036,,397.5868,397.5869,,0,181,181,8,1,9,güven,1433,65.1098,1300,0.1421,5,harmonic,1.35,word,m,,,,,,,
,,,,,,,,,,,M,001,2023-11-08_22h11.37.327,vowel_harmony,2023.2.3,Win32,60.07449237,397.5879,398.5862,,,,,,,,,,,,,,,,,,,,,,,,,,398.5862,399.1696,z,1,0.5753,,399.1697,399.1698,,0,182,182,291,1,292,mepan,,,,,5,notharmonic,1.75,nw,z,,,,,,,
,,,,,,,,,,,M,001,2023-11-08_22h11.37.327,vowel_harmony,2023.2.3,Win32,60.07449237,399.1702,400.1698,,,,,,,,,,,,,,,,,,,,,,,,,,400.1699,400.8551,z,1,0.6616,,400.8554,400.8556,,0,183,183,226,1,227,tefem,,,,,5,harmonic,1.75,nw,z,,,,,,,
,,,,,,,,,,,M,001,2023-11-08_22h11.37.327,vowel_harmony,2023.2.3,Win32,60.07449237,400.856,401.8532,,,,,,,,,,,,,,,,,,,,,,,,,,401.8532,402.4199,m,1,0.5456,,402.4199,402.42,,0,184,184,63,1,64,sultan,1756,79.7857,1368,0.1496,6,harmonic,1.55,word,m,,,,,,,
,,,,,,,,,,,M,001,2023-11-08_22h11.37.327,vowel_harmony,2023.2.3,Win32,60.07449237,402.421,403.4198,,,,,,,,,,,,,,,,,,,,,,,,,,403.4199,404.1532,z,1,0.7126,,404.1532,404.1535,,0,185,185,181,1,182,rapkı,,,,,5,harmonic,1.85,nw,z,,,,,,,
,,,,,,,,,,,M,001,2023-11-08_22h11.37.327,vowel_harmony,2023.2.3,Win32,60.07449237,404.1544,405.1531,,,,,,,,,,,,,,,,,,,,,,,,,,405.1531,405.753,z,1,0.5827,,405.7531,405.7532,,0,186,186,287,1,288,haköm,,,,,5,notharmonic,1.9,nw,z,,,,,,,
,,,,,,,,,,,M,001,2023-11-08_22h11.37.327,vowel_harmony,2023.2.3,Win32,60.07449237,405.7542,406.7531,,,,,,,,,,,,,,,,,,,,,,,,,,406.7531,407.4367,z,1,0.6623,,407.4367,407.4369,,0,187,187,327,1,328,parkeş,,,,,6,notharmonic,1.9,nw,z,,,,,,,
,,,,,,,,,,,M,001,2023-11-08_22h11.37.327,vowel_harmony,2023.2.3,Win32,60.07449237,407.4375,408.4367,,,,,,,,,,,,,,,,,,,,,,,,,,408.4367,409.0366,m,1,0.5779,,409.0367,409.0367,,0,188,188,65,1,66,fikir,2552,115.9528,2413,0.2638,5,harmonic,1.9,word,m,,,,,,,
,,,,,,,,,,,M,001,2023-11-08_22h11.37.327,vowel_harmony,2023.2.3,Win32,60.07449237,409.0371,410.0367,,,,,,,,,,,,,,,,,,,,,,,,,,410.0367,410.5198,m,1,0.4615,,410.5198,410.5199,,0,189,189,28,1,29,parlak,1142,51.888,1088,0.1189,6,harmonic,1.7,word,m,,,,,,,
,,,,,,,,,,,M,001,2023-11-08_22h11.37.327,vowel_harmony,2023.2.3,Win32,60.07449237,410.5204,411.5196,,,,,,,,,,,,,,,,,,,,,,,,,,411.5196,412.1532,z,1,0.6182,,412.1533,412.1536,,0,190,190,314,1,315,seral,,,,,5,notharmonic,1.7,nw,z,,,,,,,
,,,,,,,,,,,M,001,2023-11-08_22h11.37.327,vowel_harmony,2023.2.3,Win32,60.07449237,412.1544,413.153,,,,,,,,,,,,,,,,,,,,,,,,,,413.1531,413.803,z,1,0.6291,,413.803,413.8032,,0,191,191,233,1,234,devpi,,,,,5,harmonic,1.8,nw,z,,,,,,,
,,,,,,,,,,,M,001,2023-11-08_22h11.37.327,vowel_harmony,2023.2.3,Win32,60.07449237,413.8041,414.803,,,,,,,,,,,,,,,,,,,,,,,,,,414.803,415.3697,z,1,0.5537,,415.3697,415.3697,,0,192,192,313,1,314,ikas,,,,,4,notharmonic,1.85,nw,z,,,,,,,
,,,,,,,,,,,M,001,2023-11-08_22h11.37.327,vowel_harmony,2023.2.3,Win32,60.07449237,415.3704,416.3697,,,,,,,,,,,,,,,,,,,,,,,,,,416.3698,417.1363,m,1,0.7467,,417.1364,417.1367,,0,193,193,171,1,172,reklam,1565,71.1074,1244,0.136,6,notharmonic,1.9,word,m,,,,,,,
,,,,,,,,,,,M,001,2023-11-08_22h11.37.327,vowel_harmony,2023.2.3,Win32,60.07449237,417.1377,418.1364,,,,,,,,,,,,,,,,,,,,,,,,,,418.1365,418.7697,z,1,0.6132,,418.7698,418.7701,,0,194,194,183,1,184,orkın,,,,,5,harmonic,1.9,nw,z,,,,,,,
,,,,,,,,,,,M,001,2023-11-08_22h11.37.327,vowel_harmony,2023.2.3,Win32,60.07449237,418.7709,419.7696,,,,,,,,,,,,,,,,,,,,,,,,,,419.7697,420.4032,z,1,0.6135,,420.4032,420.4033,,0,195,195,319,1,320,biho,,,,,4,notharmonic,2,nw,z,,,,,,,
,,,,,,,,,,,M,001,2023-11-08_22h11.37.327,vowel_harmony,2023.2.3,Win32,60.07449237,420.4043,421.4031,,,,,,,,,,,,,,,,,,,,,,,,,,421.4031,422.0862,z,1,0.6652,,422.0862,422.0865,,0,196,196,341,1,342,işgan,,,,,5,notharmonic,1.95,nw,z,,,,,,,
,,,,,,,,,,,M,001,2023-11-08_22h11.37.327,vowel_harmony,2023.2.3,Win32,60.07449237,422.0874,423.0862,,,,,,,,,,,,,,,,,,,,,,,,,,423.0863,423.6364,z,1,0.5287,,423.6365,423.6367,,0,197,197,200,1,201,duşın,,,,,5,harmonic,1.9,nw,z,,,,,,,
,,,,,,,,,,,M,001,2023-11-08_22h11.37.327,vowel_harmony,2023.2.3,Win32,60.07449237,423.6376,424.6362,,,,,,,,,,,,,,,,,,,,,,,,,,424.6362,425.153,z,1,0.4954,,425.1531,425.1532,,0,198,198,249,1,250,hurıt,,,,,5,harmonic,1.95,nw,z,,,,,,,
,,,,,,,,,,,M,001,2023-11-08_22h11.37.327,vowel_harmony,2023.2.3,Win32,60.07449237,425.1542,426.1526,,,,,,,,,,,,,,,,,,,,,,,,,,426.1527,426.7863,m,1,0.6169,,426.7864,426.7866,,0,199,199,143,1,144,kitap,8359,379.7998,6786,0.7418,5,notharmonic,1.9,word,m,,,,,,,
,,,,,,,,,,,M,001,2023-11-08_22h11.37.327,vowel_harmony,2023.2.3,Win32,60.07449237,426.7875,427.786,,,,,,,,,,,,,,,,,,,,,,,,,,427.7861,428.4027,m,1,0.5966,,428.4028,428.4029,,0,200,200,172,1,173,milyar,1496,67.9723,1078,0.1178,6,notharmonic,1.85,word,m,,,,,,,
,,,,,,,,,,,M,001,2023-11-08_22h11.37.327,vowel_harmony,2023.2.3,Win32,60.07449237,428.4038,429.4029,,,,,,,,,,,,,,,,,,,,,,,,,,429.403,430.0362,z,1,0.6159,,430.0364,430.0366,,0,201,201,323,1,324,devak,,,,,5,notharmonic,1.75,nw,z,,,,,,,
,,,,,,,,,,,M,001,2023-11-08_22h11.37.327,vowel_harmony,2023.2.3,Win32,60.07449237,430.0374,431.0362,,,,,,,,,,,,,,,,,,,,,,,,,,431.0362,431.6695,m,1,0.612,,431.6696,431.6699,,0,202,202,157,1,158,aktif,1062,48.2531,986,0.1078,5,notharmonic,1.9,word,m,,,,,,,
,,,,,,,,,,,M,001,2023-11-08_22h11.37.327,vowel_harmony,2023.2.3,Win32,60.07449237,431.6706,432.6695,,,,,,,,,,,,,,,,,,,,,,,,,,432.6696,433.0695,m,1,0.3785,,433.0697,433.0699,,0,203,203,93,1,94,siyah,2944,133.7637,2527,0.2763,5,notharmonic,1.6,word,m,,,,,,,
,,,,,,,,,,,M,001,2023-11-08_22h11.37.327,vowel_harmony,2023.2.3,Win32,60.07449237,433.0708,434.0695,,,,,,,,,,,,,,,,,,,,,,,,,,434.0696,434.8859,z,1,0.797,,434.8859,434.8861,,0,204,204,250,1,251,kakuk,,,,,5,harmonic,1.9,nw,z,,,,,,,
,,,,,,,,,,,M,001,2023-11-08_22h11.37.327,vowel_harmony,2023.2.3,Win32,60.07449237,434.887,435.8862,,,,,,,,,,,,,,,,,,,,,,,,,,435.8862,436.4195,m,1,0.52,,436.4195,436.4198,,0,205,205,67,1,68,bayram,1948,88.5094,1648,0.1802,6,harmonic,1.85,word,m,,,,,,,
,,,,,,,,,,,M,001,2023-11-08_22h11.37.327,vowel_harmony,2023.2.3,Win32,60.07449237,436.4206,437.4195,,,,,,,,,,,,,,,,,,,,,,,,,,437.4195,437.8377,m,1,0.4078,,437.8378,437.8379,,0,206,206,25,1,26,rapor,703,31.9415,617,0.0675,5,harmonic,1.8,word,m,,,,,,,
,,,,,,,,,,,M,001,2023-11-08_22h11.37.327,vowel_harmony,2023.2.3,Win32,60.07449237,437.839,438.8359,,,,,,,,,,,,,,,,,,,,,,,,,,438.836,439.2359,m,1,0.3802,,439.236,439.2361,,0,207,207,104,1,105,cevap,5232,237.7213,4822,0.5271,5,notharmonic,1.85,word,m,,,,,,,
,,,,,,,,,,,M,001,2023-11-08_22h11.37.327,vowel_harmony,2023.2.3,Win32,60.07449237,439.2365,440.236,,,,,,,,,,,,,,,,,,,,,,,,,,440.236,440.7693,m,1,0.5118,,440.7693,440.7695,,0,208,208,113,1,114,model,1200,54.5232,1082,0.1183,5,notharmonic,1.75,word,m,,,,,,,
,,,,,,,,,,,M,001,2023-11-08_22h11.37.327,vowel_harmony,2023.2.3,Win32,60.07449237,440.77,441.7694,,,,,,,,,,,,,,,,,,,,,,,,,,441.7694,442.2192,m,1,0.4292,,442.2193,442.2195,,0,209,209,130,1,131,hamile,1075,48.8437,877,0.0959,6,notharmonic,1.5,word,m,,,,,,,
,,,,,,,,,,,M,001,2023-11-08_22h11.37.327,vowel_harmony,2023.2.3,Win32,60.07449237,442.2201,443.2193,,,,,,,,,,,,,,,,,,,,,,,,,,443.2194,443.7525,m,1,0.5129,,443.7526,443.7529,,0,210,210,22,1,23,anlam,1730,78.6043,1617,0.1768,5,harmonic,1.25,word,m,,,,,,,
,,,,,,,,,,,M,001,2023-11-08_22h11.37.327,vowel_harmony,2023.2.3,Win32,60.07449237,443.7538,444.7525,,,,,,,,,,,,,,,,,,,,,,,,,,444.7526,445.252,m,1,0.4763,,445.252,445.2521,,0,211,211,88,1,89,yalnız,5891,267.6637,5440,0.5947,6,harmonic,1.6,word,m,,,,,,,
,,,,,,,,,,,M,001,2023-11-08_22h11.37.327,vowel_harmony,2023.2.3,Win32,60.07449237,445.2522,446.252,,,,,,,,,,,,,,,,,,,,,,,,,,446.252,446.7026,m,1,0.4331,,446.7027,446.7028,,0,212,212,138,1,139,kardeş,1270,57.7038,1174,0.1283,6,notharmonic,1.9,word,m,,,,,,,
,,,,,,,,,,,M,001,2023-11-08_22h11.37.327,vowel_harmony,2023.2.3,Win32,60.07449237,446.7039,447.7025,,,,,,,,,,,,,,,,,,,,,,,,,,447.7027,448.1025,m,1,0.3816,,448.1025,448.1026,,0,213,213,84,1,85,ülke,3121,141.8059,2801,0.3062,4,harmonic,1.65,word,m,,,,,,,
,,,,,,,,,,,M,001,2023-11-08_22h11.37.327,vowel_harmony,2023.2.3,Win32,60.07449237,448.103,449.1025,,,,,,,,,,,,,,,,,,,,,,,,,,449.1025,449.486,m,1,0.363,,449.4861,449.4864,,0,214,214,16,1,17,yavaş,5087,231.1331,2886,0.3155,5,harmonic,1.6,word,m,,,,,,,
,,,,,,,,,,,M,001,2023-11-08_22h11.37.327,vowel_harmony,2023.2.3,Win32,60.07449237,449.4873,450.4857,,,,,,,,,,,,,,,,,,,,,,,,,,450.4858,451.2191,z,1,0.712,,451.2192,451.2194,,0,215,215,339,1,340,asmel,,,,,5,notharmonic,1.95,nw,z,,,,,,,
,,,,,,,,,,,M,001,2023-11-08_22h11.37.327,vowel_harmony,2023.2.3,Win32,60.07449237,451.2203,452.2191,,,,,,,,,,,,,,,,,,,,,,,,,,452.2191,452.7859,z,1,0.5448,,452.786,452.7862,,0,216,216,235,1,236,oşup,,,,,4,harmonic,1.75,nw,z,,,,,,,
,,,,,,,,,,,M,001,2023-11-08_22h11.37.327,vowel_harmony,2023.2.3,Win32,60.07449237,452.787,453.7855,,,,,,,,,,,,,,,,,,,,,,,,,,453.7856,454.3355,m,1,0.5311,,454.3356,454.3358,,0,217,217,44,1,45,kayıt,1234,56.0681,1058,0.1157,5,harmonic,1.35,word,m,,,,,,,
,,,,,,,,,,,M,001,2023-11-08_22h11.37.327,vowel_harmony,2023.2.3,Win32,60.07449237,454.3368,455.3356,,,,,,,,,,,,,,,,,,,,,,,,,,455.3356,455.8189,m,1,0.4626,,455.819,455.8192,,0,218,218,85,1,86,geçmiş,4195,190.6042,4039,0.4415,6,harmonic,1.55,word,m,,,,,,,
,,,,,,,,,,,M,001,2023-11-08_22h11.37.327,vowel_harmony,2023.2.3,Win32,60.07449237,455.8201,456.819,,,,,,,,,,,,,,,,,,,,,,,,,,456.819,457.2022,m,1,0.3621,,457.2023,457.2025,,0,219,219,42,1,43,ürün,2268,103.0489,1954,0.2136,4,harmonic,1.1,word,m,,,,,,,
,,,,,,,,,,,M,001,2023-11-08_22h11.37.327,vowel_harmony,2023.2.3,Win32,60.07449237,457.2033,458.2024,,,,,,,,,,,,,,,,,,,,,,,,,,458.2025,458.6524,m,0,0.4355,,458.6524,458.6527,,0,220,220,332,1,333,tahane,,,,,6,notharmonic,1.85,nw,z,,,,,,,
,,,,,,,,,,,M,001,2023-11-08_22h11.37.327,vowel_harmony,2023.2.3,Win32,60.07449237,458.6537,459.6523,,,,,,,,,,,,,,,,,,,,,,,,,,459.6524,460.1524,m,1,0.4778,,460.1525,460.1527,,0,221,221,3,1,4,minik,2916,132.4915,2594,0.2836,5,harmonic,1.6,word,m,,,,,,,
,,,,,,,,,,,M,001,2023-11-08_22h11.37.327,vowel_harmony,2023.2.3,Win32,60.07449237,460.1535,461.1523,,,,,,,,,,,,,,,,,,,,,,,,,,461.1524,461.7022,m,1,0.5284,,461.7024,461.7025,,0,222,222,56,1,57,sağlam,1818,82.6027,1720,0.188,6,harmonic,1.6,word,m,,,,,,,
,,,,,,,,,,,M,001,2023-11-08_22h11.37.327,vowel_harmony,2023.2.3,Win32,60.07449237,461.7034,462.7022,,,,,,,,,,,,,,,,,,,,,,,,,,462.7023,463.1187,m,1,0.3977,,463.1188,463.1189,,0,223,223,59,1,60,köpek,1044,47.4352,901,0.0985,5,harmonic,1.75,word,m,,,,,,,
,,,,,,,,,,,M,001,2023-11-08_22h11.37.327,vowel_harmony,2023.2.3,Win32,60.07449237,463.1193,464.1187,,,,,,,,,,,,,,,,,,,,,,,,,,464.1188,464.752,z,1,0.6121,,464.752,464.7521,,0,224,224,219,1,220,barlum,,,,,6,harmonic,1.9,nw,z,,,,,,,
,,,,,,,,,,,M,001,2023-11-08_22h11.37.327,vowel_harmony,2023.2.3,Win32,60.07449237,464.7532,465.7523,,,,,,,,,,,,,,,,,,,,,,,,,,465.7523,466.3352,z,1,0.5689,,466.3353,466.3354,,0,225,225,274,1,275,pisan,,,,,5,notharmonic,1.75,nw,z,,,,,,,
,,,,,,,,,,,M,001,2023-11-08_22h11.37.327,vowel_harmony,2023.2.3,Win32,60.07449237,466.3367,467.3355,,,,,,,,,,,,,,,,,,,,,,,,,,467.3355,467.9187,z,1,0.5717,,467.9188,467.9188,,0,226,226,252,1,253,anlgı,,,,,5,harmonic,1.9,nw,z,,,,,,,
,,,,,,,,,,,M,001,2023-11-08_22h11.37.327,vowel_harmony,2023.2.3,Win32,60.07449237,467.9193,468.9188,,,,,,,,,,,,,,,,,,,,,,,,,,468.9188,469.5519,m,1,0.6192,,469.552,469.5521,,0,227,227,165,1,166,gazete,1402,63.7013,1270,0.1388,6,notharmonic,1.8,word,m,,,,,,,
,,,,,,,,,,,M,001,2023-11-08_22h11.37.327,vowel_harmony,2023.2.3,Win32,60.07449237,469.5531,470.552,,,,,,,,,,,,,,,,,,,,,,,,,,470.552,471.5038,z,1,0.9418,,471.5039,471.504,,0,228,228,343,1,344,tarne,,,,,5,notharmonic,1.85,nw,z,,,,,,,
,,,,,,,,,,,M,001,2023-11-08_22h11.37.327,vowel_harmony,2023.2.3,Win32,60.07449237,471.5049,472.5021,,,,,,,,,,,,,,,,,,,,,,,,,,472.5022,472.9688,m,1,0.4467,,472.9688,472.9689,,0,229,229,70,1,71,yarın,3440,156.3,3222,0.3522,5,harmonic,1.85,word,m,,,,,,,
,,,,,,,,,,,M,001,2023-11-08_22h11.37.327,vowel_harmony,2023.2.3,Win32,60.07449237,472.9699,473.9688,,,,,,,,,,,,,,,,,,,,,,,,,,473.9688,474.5852,z,1,0.6048,,474.5853,474.5856,,0,230,230,220,1,221,denbi,,,,,5,harmonic,1.75,nw,z,,,,,,,
,,,,,,,,,,,M,001,2023-11-08_22h11.37.327,vowel_harmony,2023.2.3,Win32,60.07449237,474.5865,475.5851,,,,,,,,,,,,,,,,,,,,,,,,,,475.5852,476.1352,m,1,0.5288,,476.1352,476.1354,,0,231,231,20,1,21,nefes,2871,130.4469,2553,0.2791,5,harmonic,1.8,word,m,,,,,,,
,,,,,,,,,,,M,001,2023-11-08_22h11.37.327,vowel_harmony,2023.2.3,Win32,60.07449237,476.1365,477.1375,,,,,,,,,,,,,,,,,,,,,,,,,,477.1376,477.8016,z,1,0.6523,,477.8017,477.8018,,0,232,232,281,1,282,afel,,,,,4,notharmonic,1.8,nw,z,,,,,,,
,,,,,,,,,,,M,001,2023-11-08_22h11.37.327,vowel_harmony,2023.2.3,Win32,60.07449237,477.8027,478.8019,,,,,,,,,,,,,,,,,,,,,,,,,,478.802,479.3851,z,1,0.5674,,479.3852,479.3853,,0,233,233,283,1,284,fahe,,,,,4,notharmonic,1.95,nw,z,,,,,,,
,,,,,,,,,,,M,001,2023-11-08_22h11.37.327,vowel_harmony,2023.2.3,Win32,60.07449237,479.3858,480.3852,,,,,,,,,,,,,,,,,,,,,,,,,,480.3853,480.9851,z,1,0.5873,,480.9852,480.9853,,0,234,234,193,1,194,yokın,,,,,5,harmonic,1.85,nw,z,,,,,,,
,,,,,,,,,,,M,001,2023-11-08_22h11.37.327,vowel_harmony,2023.2.3,Win32,60.07449237,480.9864,481.9853,,,,,,,,,,,,,,,,,,,,,,,,,,481.9854,482.5854,z,1,0.5787,,482.5855,482.5857,,0,235,235,234,1,235,düzöt,,,,,5,harmonic,2.05,nw,z,,,,,,,
,,,,,,,,,,,M,001,2023-11-08_22h11.37.327,vowel_harmony,2023.2.3,Win32,60.07449237,482.5866,483.5851,,,,,,,,,,,,,,,,,,,,,,,,,,483.5851,484.2518,m,1,0.6525,,484.2519,484.2522,,0,236,236,77,1,78,ufak,3252,147.758,2980,0.3258,4,harmonic,1.5,word,m,,,,,,,
,,,,,,,,,,,M,001,2023-11-08_22h11.37.327,vowel_harmony,2023.2.3,Win32,60.07449237,484.253,485.2518,,,,,,,,,,,,,,,,,,,,,,,,,,485.2519,485.9354,z,1,0.6658,,485.9354,485.9357,,0,237,237,238,1,239,kocı,,,,,4,harmonic,1.95,nw,z,,,,,,,
,,,,,,,,,,,M,001,2023-11-08_22h11.37.327,vowel_harmony,2023.2.3,Win32,60.07449237,485.9365,486.9352,,,,,,,,,,,,,,,,,,,,,,,,,,486.9353,487.585,z,1,0.6278,,487.5851,487.5853,,0,238,238,317,1,318,mevul,,,,,5,notharmonic,1.95,nw,z,,,,,,,
,,,,,,,,,,,M,001,2023-11-08_22h11.37.327,vowel_harmony,2023.2.3,Win32,60.07449237,487.5864,488.5848,,,,,,,,,,,,,,,,,,,,,,,,,,488.5849,489.2684,m,1,0.6613,,489.2685,489.269,,0,239,239,176,1,177,harika,4682,212.7315,4422,0.4834,6,notharmonic,1.9,word,m,,,,,,,
,,,,,,,,,,,M,001,2023-11-08_22h11.37.327,vowel_harmony,2023.2.3,Win32,60.07449237,489.2693,490.2684,,,,,,,,,,,,,,,,,,,,,,,,,,490.2685,490.9348,z,1,0.6518,,490.9349,506.1014,space,0,240,240,272,1,273,daken,,,,,5,notharmonic,1.8,nw,z,15.156,,,,,,
,,,,,,,,,,,M,001,2023-11-08_22h11.37.327,vowel_harmony,2023.2.3,Win32,60.07449237,506.1145,507.118,,,,,,,,,,,,,,,,,,,,,,,,,,507.1181,508.6014,m,1,1.4615,,508.6014,508.6017,,0,241,241,168,1,169,kilo,3389,153.9827,2646,0.2893,4,notharmonic,1.65,word,m,,,,,,,
,,,,,,,,,,,M,001,2023-11-08_22h11.37.327,vowel_harmony,2023.2.3,Win32,60.07449237,508.6026,509.6013,,,,,,,,,,,,,,,,,,,,,,,,,,509.6013,510.3514,m,1,0.7286,,510.3516,510.3518,,0,242,242,91,1,92,ifade,6177,280.6584,5726,0.626,5,notharmonic,1.7,word,m,,,,,,,
,,,,,,,,,,,M,001,2023-11-08_22h11.37.327,vowel_harmony,2023.2.3,Win32,60.07449237,510.3526,511.3515,,,,,,,,,,,,,,,,,,,,,,,,,,511.3515,512.4843,m,1,1.1125,,512.4844,512.4846,,0,243,243,78,1,79,ulusal,1551,70.4713,1355,0.1481,6,harmonic,1.75,word,m,,,,,,,
,,,,,,,,,,,M,001,2023-11-08_22h11.37.327,vowel_harmony,2023.2.3,Win32,60.07449237,512.4851,513.4848,,,,,,,,,,,,,,,,,,,,,,,,,,513.4848,514.1511,m,1,0.6451,,514.1511,514.1513,,0,244,244,152,1,153,tedavi,1865,84.7382,1597,0.1746,6,notharmonic,1.8,word,m,,,,,,,
,,,,,,,,,,,M,001,2023-11-08_22h11.37.327,vowel_harmony,2023.2.3,Win32,60.07449237,514.1524,515.1513,,,,,,,,,,,,,,,,,,,,,,,,,,515.1513,516.0014,z,1,0.8292,,516.0014,516.0017,,0,245,245,225,1,226,düvem,,,,,5,harmonic,1.7,nw,z,,,,,,,
,,,,,,,,,,,M,001,2023-11-08_22h11.37.327,vowel_harmony,2023.2.3,Win32,60.07449237,516.0043,517.0013,,,,,,,,,,,,,,,,,,,,,,,,,,517.0014,517.6178,m,1,0.6042,,517.618,517.6181,,0,246,246,128,1,129,tatil,2152,97.7783,1865,0.2039,5,notharmonic,1.7,word,m,,,,,,,
,,,,,,,,,,,M,001,2023-11-08_22h11.37.327,vowel_harmony,2023.2.3,Win32,60.07449237,517.6192,518.6178,,,,,,,,,,,,,,,,,,,,,,,,,,518.6179,519.0347,m,1,0.4022,,519.0347,519.035,,0,247,247,17,1,18,yakın,7990,363.0339,7595,0.8303,5,harmonic,1.8,word,m,,,,,,,
,,,,,,,,,,,M,001,2023-11-08_22h11.37.327,vowel_harmony,2023.2.3,Win32,60.07449237,519.0358,520.0345,,,,,,,,,,,,,,,,,,,,,,,,,,520.0345,520.8512,z,1,0.8048,,520.8514,520.8516,,0,248,248,303,1,304,fisor,,,,,5,notharmonic,1.9,nw,z,,,,,,,
,,,,,,,,,,,M,001,2023-11-08_22h11.37.327,vowel_harmony,2023.2.3,Win32,60.07449237,520.8524,521.8512,,,,,,,,,,,,,,,,,,,,,,,,,,521.8512,522.4846,z,1,0.6126,,522.4847,522.4849,,0,249,249,245,1,246,bıyan,,,,,5,harmonic,1.7,nw,z,,,,,,,
,,,,,,,,,,,M,001,2023-11-08_22h11.37.327,vowel_harmony,2023.2.3,Win32,60.07449237,522.4859,523.4845,,,,,,,,,,,,,,,,,,,,,,,,,,523.4845,524.1346,m,0,0.6287,,524.1346,524.1349,,0,250,250,334,1,335,işgan,,,,,5,notharmonic,1.95,nw,z,,,,,,,
,,,,,,,,,,,M,001,2023-11-08_22h11.37.327,vowel_harmony,2023.2.3,Win32,60.07449237,524.1359,525.1347,,,,,,,,,,,,,,,,,,,,,,,,,,525.1348,525.6511,m,1,0.5007,,525.6511,525.6514,,0,251,251,95,1,96,takip,4996,226.9984,4651,0.5084,5,notharmonic,1.55,word,m,,,,,,,
,,,,,,,,,,,M,001,2023-11-08_22h11.37.327,vowel_harmony,2023.2.3,Win32,60.07449237,525.6524,526.6511,,,,,,,,,,,,,,,,,,,,,,,,,,526.6511,527.1512,m,1,0.4864,,527.1513,527.1516,,0,252,252,151,1,152,ateş,2108,95.7792,1803,0.1971,4,notharmonic,1.65,word,m,,,,,,,
,,,,,,,,,,,M,001,2023-11-08_22h11.37.327,vowel_harmony,2023.2.3,Win32,60.07449237,527.1524,528.1511,,,,,,,,,,,,,,,,,,,,,,,,,,528.1511,528.8843,z,1,0.7123,,528.8845,528.8847,,0,253,253,292,1,293,kinam,,,,,5,notharmonic,1.85,nw,z,,,,,,,
,,,,,,,,,,,M,001,2023-11-08_22h11.37.327,vowel_harmony,2023.2.3,Win32,60.07449237,528.8856,529.8842,,,,,,,,,,,,,,,,,,,,,,,,,,529.8842,530.6007,z,1,0.7048,,530.6007,530.6008,,0,254,254,263,1,264,duzur,,,,,5,harmonic,1.8,nw,z,,,,,,,
,,,,,,,,,,,M,001,2023-11-08_22h11.37.327,vowel_harmony,2023.2.3,Win32,60.07449237,530.6014,531.601,,,,,,,,,,,,,,,,,,,,,,,,,,531.601,532.3344,z,1,0.7155,,532.3345,532.3348,,0,255,255,199,1,200,movu,,,,,4,harmonic,1.9,nw,z,,,,,,,
,,,,,,,,,,,M,001,2023-11-08_22h11.37.327,vowel_harmony,2023.2.3,Win32,60.07449237,532.3355,533.3341,,,,,,,,,,,,,,,,,,,,,,,,,,533.3341,534.0677,m,1,0.7101,,534.0678,534.068,,0,256,256,108,1,109,tarih,2806,127.4935,2483,0.2714,5,notharmonic,1.55,word,m,,,,,,,
,,,,,,,,,,,M,001,2023-11-08_22h11.37.327,vowel_harmony,2023.2.3,Win32,60.07449237,534.069,535.0677,,,,,,,,,,,,,,,,,,,,,,,,,,535.0677,535.686,z,1,0.6073,,535.6861,535.6861,,0,257,257,264,1,265,vepü,,,,,4,harmonic,2,nw,z,,,,,,,
,,,,,,,,,,,M,001,2023-11-08_22h11.37.327,vowel_harmony,2023.2.3,Win32,60.07449237,535.687,536.6843,,,,,,,,,,,,,,,,,,,,,,,,,,536.6843,537.3341,z,1,0.6385,,537.3342,537.3343,,0,258,258,273,1,274,nimal,,,,,5,notharmonic,1.9,nw,z,,,,,,,
,,,,,,,,,,,M,001,2023-11-08_22h11.37.327,vowel_harmony,2023.2.3,Win32,60.07449237,537.3353,538.3342,,,,,,,,,,,,,,,,,,,,,,,,,,538.3343,538.8528,m,1,0.5079,,538.8528,538.853,,0,259,259,12,1,13,konu,5400,245.3546,5110,0.5586,4,harmonic,1,word,m,,,,,,,
,,,,,,,,,,,M,001,2023-11-08_22h11.37.327,vowel_harmony,2023.2.3,Win32,60.07449237,538.8539,539.8506,,,,,,,,,,,,,,,,,,,,,,,,,,539.8507,540.4341,m,1,0.5698,,540.4342,540.4344,,0,260,260,11,1,12,umut,1988,90.3268,1818,0.1987,4,harmonic,1.55,word,m,,,,,,,
,,,,,,,,,,,M,001,2023-11-08_22h11.37.327,vowel_harmony,2023.2.3,Win32,60.07449237,540.4354,541.4342,,,,,,,,,,,,,,,,,,,,,,,,,,541.4342,542.0008,m,1,0.5544,,542.0009,542.0011,,0,261,261,43,1,44,geniş,3380,153.5738,3185,0.3482,5,harmonic,1.35,word,m,,,,,,,
,,,,,,,,,,,M,001,2023-11-08_22h11.37.327,vowel_harmony,2023.2.3,Win32,60.07449237,542.0019,543.0008,,,,,,,,,,,,,,,,,,,,,,,,,,543.0009,543.4192,m,1,0.4069,,543.4193,543.4194,,0,262,262,149,1,150,ceza,2611,118.6335,2169,0.2371,4,notharmonic,1.5,word,m,,,,,,,
,,,,,,,,,,,M,001,2023-11-08_22h11.37.327,vowel_harmony,2023.2.3,Win32,60.07449237,543.4203,544.4169,,,,,,,,,,,,,,,,,,,,,,,,,,544.4169,544.9334,m,1,0.5088,,544.9334,544.9335,,0,263,263,131,1,132,hakim,1677,76.1962,1559,0.1704,5,notharmonic,1,word,m,,,,,,,
,,,,,,,,,,,M,001,2023-11-08_22h11.37.327,vowel_harmony,2023.2.3,Win32,60.07449237,544.9337,545.9342,,,,,,,,,,,,,,,,,,,,,,,,,,545.9342,546.9175,z,1,0.9669,,546.9175,546.9177,,0,264,264,355,1,356,adül,,,,,4,notharmonic,1.85,nw,z,,,,,,,
,,,,,,,,,,,M,001,2023-11-08_22h11.37.327,vowel_harmony,2023.2.3,Win32,60.07449237,546.9187,547.9175,,,,,,,,,,,,,,,,,,,,,,,,,,547.9176,548.5009,z,1,0.562,,548.501,548.5012,,0,265,265,328,1,329,kirul,,,,,5,notharmonic,1.95,nw,z,,,,,,,
,,,,,,,,,,,M,001,2023-11-08_22h11.37.327,vowel_harmony,2023.2.3,Win32,60.07449237,548.5021,549.5007,,,,,,,,,,,,,,,,,,,,,,,,,,549.5009,550.0858,z,1,0.5741,,550.0858,550.0859,,0,266,266,322,1,323,normin,,,,,6,notharmonic,1.95,nw,z,,,,,,,
,,,,,,,,,,,M,001,2023-11-08_22h11.37.327,vowel_harmony,2023.2.3,Win32,60.07449237,550.0868,551.084,,,,,,,,,,,,,,,,,,,,,,,,,,551.0841,551.7506,z,1,0.646,,551.7507,551.7508,,0,267,267,342,1,343,kulön,,,,,5,notharmonic,1.9,nw,z,,,,,,,
,,,,,,,,,,,M,001,2023-11-08_22h11.37.327,vowel_harmony,2023.2.3,Win32,60.07449237,551.7519,552.7505,,,,,,,,,,,,,,,,,,,,,,,,,,552.7506,553.4673,z,1,0.6966,,553.4674,553.4676,,0,268,268,267,1,268,nokuma,,,,,6,harmonic,1.75,nw,z,,,,,,,
,,,,,,,,,,,M,001,2023-11-08_22h11.37.327,vowel_harmony,2023.2.3,Win32,60.07449237,553.4686,554.4672,,,,,,,,,,,,,,,,,,,,,,,,,,554.4672,555.1172,z,1,0.6374,,555.1172,555.1175,,0,269,269,310,1,311,yandeş,,,,,6,notharmonic,1.95,nw,z,,,,,,,
,,,,,,,,,,,M,001,2023-11-08_22h11.37.327,vowel_harmony,2023.2.3,Win32,60.07449237,555.1184,556.1172,,,,,,,,,,,,,,,,,,,,,,,,,,556.1173,556.7007,m,1,0.5692,,556.7007,556.7009,,0,270,270,170,1,171,basit,3385,153.801,3177,0.3473,5,notharmonic,1.65,word,m,,,,,,,
,,,,,,,,,,,M,001,2023-11-08_22h11.37.327,vowel_harmony,2023.2.3,Win32,60.07449237,556.7018,557.7005,,,,,,,,,,,,,,,,,,,,,,,,,,557.7005,558.451,z,1,0.7281,,558.451,558.4511,,0,271,271,265,1,266,parula,,,,,6,harmonic,1.75,nw,z,,,,,,,
,,,,,,,,,,,M,001,2023-11-08_22h11.37.327,vowel_harmony,2023.2.3,Win32,60.07449237,558.4519,559.4505,,,,,,,,,,,,,,,,,,,,,,,,,,559.4506,560.217,m,1,0.749,,560.2172,560.2173,,0,272,272,82,1,83,aday,1028,46.7082,873,0.0954,4,harmonic,1.45,word,m,,,,,,,
,,,,,,,,,,,M,001,2023-11-08_22h11.37.327,vowel_harmony,2023.2.3,Win32,60.07449237,560.2177,561.2172,,,,,,,,,,,,,,,,,,,,,,,,,,561.2173,561.7002,m,1,0.461,,561.7002,561.7004,,0,273,273,158,1,159,klasik,1871,85.0108,1734,0.1896,6,notharmonic,2,word,m,,,,,,,
,,,,,,,,,,,M,001,2023-11-08_22h11.37.327,vowel_harmony,2023.2.3,Win32,60.07449237,561.7012,562.7002,,,,,,,,,,,,,,,,,,,,,,,,,,562.7003,563.3503,z,1,0.6386,,563.3503,563.3504,,0,274,274,189,1,190,düvre,,,,,5,harmonic,1.85,nw,z,,,,,,,
,,,,,,,,,,,M,001,2023-11-08_22h11.37.327,vowel_harmony,2023.2.3,Win32,60.07449237,563.3509,564.3501,,,,,,,,,,,,,,,,,,,,,,,,,,564.3503,565.0004,z,1,0.6288,,565.0005,565.0007,,0,275,275,351,1,352,seğlık,,,,,6,notharmonic,1.9,nw,z,,,,,,,
,,,,,,,,,,,M,001,2023-11-08_22h11.37.327,vowel_harmony,2023.2.3,Win32,60.07449237,565.0017,566.0002,,,,,,,,,,,,,,,,,,,,,,,,,,566.0002,567.1501,m,1,1.1379,,567.1502,567.1505,,0,276,276,120,1,121,ihmal,1002,45.5269,977,0.1068,5,notharmonic,1.65,word,m,,,,,,,
,,,,,,,,,,,M,001,2023-11-08_22h11.37.327,vowel_harmony,2023.2.3,Win32,60.07449237,567.1513,568.1505,,,,,,,,,,,,,,,,,,,,,,,,,,568.1505,568.7337,m,1,0.5684,,568.7337,568.734,,0,277,277,66,1,67,sanık,768,34.8949,699,0.0764,5,harmonic,1.85,word,m,,,,,,,
,,,,,,,,,,,M,001,2023-11-08_22h11.37.327,vowel_harmony,2023.2.3,Win32,60.07449237,568.7348,569.7337,,,,,,,,,,,,,,,,,,,,,,,,,,569.7337,570.3836,z,1,0.6282,,570.384,570.3841,,0,278,278,318,1,319,yorgün,,,,,6,notharmonic,1.9,nw,z,,,,,,,
,,,,,,,,,,,M,001,2023-11-08_22h11.37.327,vowel_harmony,2023.2.3,Win32,60.07449237,570.3849,571.3837,,,,,,,,,,,,,,,,,,,,,,,,,,571.3838,572.067,z,1,0.6611,,572.0671,572.0674,,0,279,279,186,1,187,habık,,,,,5,harmonic,1.9,nw,z,,,,,,,
,,,,,,,,,,,M,001,2023-11-08_22h11.37.327,vowel_harmony,2023.2.3,Win32,60.07449237,572.0683,573.0669,,,,,,,,,,,,,,,,,,,,,,,,,,573.067,573.6337,z,1,0.5458,,573.6337,573.634,,0,280,280,352,1,353,yılden,,,,,6,notharmonic,1.8,nw,z,,,,,,,
,,,,,,,,,,,M,001,2023-11-08_22h11.37.327,vowel_harmony,2023.2.3,Win32,60.07449237,573.6349,574.6335,,,,,,,,,,,,,,,,,,,,,,,,,,574.6335,575.4001,z,0,0.7456,,575.4001,575.4003,,0,281,281,97,1,98,mevcut,3007,136.6262,2842,0.3107,6,notharmonic,1.95,word,m,,,,,,,
,,,,,,,,,,,M,001,2023-11-08_22h11.37.327,vowel_harmony,2023.2.3,Win32,60.07449237,575.4007,576.4002,,,,,,,,,,,,,,,,,,,,,,,,,,576.4002,577.4673,m,1,1.0472,,577.4674,577.4676,,0,282,282,127,1,128,şahane,1153,52.3877,1108,0.1211,6,notharmonic,1.8,word,m,,,,,,,
,,,,,,,,,,,M,001,2023-11-08_22h11.37.327,vowel_harmony,2023.2.3,Win32,60.07449237,577.4689,578.4666,,,,,,,,,,,,,,,,,,,,,,,,,,578.4666,579.9184,z,1,1.4374,,579.9184,579.9187,,0,283,283,271,1,272,mimal,,,,,5,notharmonic,1.8,nw,z,,,,,,,
,,,,,,,,,,,M,001,2023-11-08_22h11.37.327,vowel_harmony,2023.2.3,Win32,60.07449237,579.9193,580.9168,,,,,,,,,,,,,,,,,,,,,,,,,,580.9169,581.4669,z,1,0.5369,,581.467,581.4672,,0,284,284,191,1,192,doab,,,,,4,harmonic,2,nw,z,,,,,,,
,,,,,,,,,,,M,001,2023-11-08_22h11.37.327,vowel_harmony,2023.2.3,Win32,60.07449237,581.4682,582.4673,,,,,,,,,,,,,,,,,,,,,,,,,,582.4673,583.1332,z,1,0.6445,,583.1332,583.1335,,0,285,285,359,1,360,kardez,,,,,6,notharmonic,1.95,nw,z,,,,,,,
,,,,,,,,,,,M,001,2023-11-08_22h11.37.327,vowel_harmony,2023.2.3,Win32,60.07449237,583.1344,584.1334,,,,,,,,,,,,,,,,,,,,,,,,,,584.1335,584.7332,m,1,0.5773,,584.7333,584.7334,,0,286,286,161,1,162,komik,1617,73.4701,1506,0.1646,5,notharmonic,1.75,word,m,,,,,,,
,,,,,,,,,,,M,001,2023-11-08_22h11.37.327,vowel_harmony,2023.2.3,Win32,60.07449237,584.7338,585.7334,,,,,,,,,,,,,,,,,,,,,,,,,,585.7335,586.3499,m,1,0.5981,,586.35,586.3502,,0,287,287,23,1,24,kurum,986,44.7999,882,0.0964,5,harmonic,1.75,word,m,,,,,,,
,,,,,,,,,,,M,001,2023-11-08_22h11.37.327,vowel_harmony,2023.2.3,Win32,60.07449237,586.3508,587.3498,,,,,,,,,,,,,,,,,,,,,,,,,,587.35,588.0166,m,1,0.6445,,588.0167,588.0169,,0,288,288,135,1,136,hafif,3355,152.4379,3101,0.339,5,notharmonic,1.75,word,m,,,,,,,
,,,,,,,,,,,M,001,2023-11-08_22h11.37.327,vowel_harmony,2023.2.3,Win32,60.07449237,588.0178,589.0167,,,,,,,,,,,,,,,,,,,,,,,,,,589.0168,589.5332,m,1,0.4971,,589.5332,589.5333,,0,289,289,159,1,160,vakit,3476,157.9357,3298,0.3605,5,notharmonic,1.65,word,m,,,,,,,
,,,,,,,,,,,M,001,2023-11-08_22h11.37.327,vowel_harmony,2023.2.3,Win32,60.07449237,589.5336,590.5332,,,,,,,,,,,,,,,,,,,,,,,,,,590.5333,591.1333,m,1,0.5813,,591.1333,591.1335,,0,290,290,145,1,146,iddia,2430,110.4096,2295,0.2509,5,notharmonic,1.85,word,m,,,,,,,
,,,,,,,,,,,M,001,2023-11-08_22h11.37.327,vowel_harmony,2023.2.3,Win32,60.07449237,591.1346,592.1333,,,,,,,,,,,,,,,,,,,,,,,,,,592.1334,592.7335,m,1,0.5854,,592.7337,592.7339,,0,291,291,1,1,2,erkek,6188,281.1582,5195,0.5679,5,harmonic,1.65,word,m,,,,,,,
,,,,,,,,,,,M,001,2023-11-08_22h11.37.327,vowel_harmony,2023.2.3,Win32,60.07449237,592.735,593.7331,,,,,,,,,,,,,,,,,,,,,,,,,,593.7332,594.283,m,1,0.5381,,594.2831,594.2833,,0,292,292,139,1,140,lira,1253,56.9314,947,0.1035,4,notharmonic,1.4,word,m,,,,,,,
,,,,,,,,,,,M,001,2023-11-08_22h11.37.327,vowel_harmony,2023.2.3,Win32,60.07449237,594.2844,595.2832,,,,,,,,,,,,,,,,,,,,,,,,,,595.2832,596.0164,z,1,0.7119,,596.0165,596.0166,,0,293,293,231,1,232,norgun,,,,,6,harmonic,1.75,nw,z,,,,,,,
,,,,,,,,,,,M,001,2023-11-08_22h11.37.327,vowel_harmony,2023.2.3,Win32,60.07449237,596.0171,597.0164,,,,,,,,,,,,,,,,,,,,,,,,,,597.0165,597.5998,z,1,0.5619,,597.6,597.6003,,0,294,294,218,1,219,tezöl,,,,,5,harmonic,2,nw,z,,,,,,,
,,,,,,,,,,,M,001,2023-11-08_22h11.37.327,vowel_harmony,2023.2.3,Win32,60.07449237,597.6013,598.5997,,,,,,,,,,,,,,,,,,,,,,,,,,598.5997,599.1499,z,1,0.532,,599.1499,599.1501,,0,295,295,182,1,183,orsın,,,,,5,harmonic,1.95,nw,z,,,,,,,
,,,,,,,,,,,M,001,2023-11-08_22h11.37.327,vowel_harmony,2023.2.3,Win32,60.07449237,599.151,600.1498,,,,,,,,,,,,,,,,,,,,,,,,,,600.1498,600.7664,z,1,0.5947,,600.7666,600.7667,,0,296,296,285,1,286,iklon,,,,,5,notharmonic,1.85,nw,z,,,,,,,
,,,,,,,,,,,M,001,2023-11-08_22h11.37.327,vowel_harmony,2023.2.3,Win32,60.07449237,600.7676,601.7662,,,,,,,,,,,,,,,,,,,,,,,,,,601.7662,602.383,z,1,0.6022,,602.383,602.3832,,0,297,297,221,1,222,yaypın,,,,,6,harmonic,1.75,nw,z,,,,,,,
,,,,,,,,,,,M,001,2023-11-08_22h11.37.327,vowel_harmony,2023.2.3,Win32,60.07449237,602.3841,603.3831,,,,,,,,,,,,,,,,,,,,,,,,,,603.3831,603.9995,z,1,0.6041,,603.9995,603.9997,,0,298,298,246,1,247,orkın,,,,,5,harmonic,1.9,nw,z,,,,,,,
,,,,,,,,,,,M,001,2023-11-08_22h11.37.327,vowel_harmony,2023.2.3,Win32,60.07449237,604.0002,604.9998,,,,,,,,,,,,,,,,,,,,,,,,,,604.9998,605.5162,z,1,0.5046,,605.5164,605.5166,,0,299,299,306,1,307,otet,,,,,4,notharmonic,1.95,nw,z,,,,,,,
,,,,,,,,,,,M,001,2023-11-08_22h11.37.327,vowel_harmony,2023.2.3,Win32,60.07449237,605.5174,606.5164,,,,,,,,,,,,,,,,,,,,,,,,,,606.5165,607.0828,z,1,0.5474,,607.0829,607.0829,,0,300,300,243,1,244,korguf,,,,,6,harmonic,2,nw,z,,,,,,,
,,,,,,,,,,,M,001,2023-11-08_22h11.37.327,vowel_harmony,2023.2.3,Win32,60.07449237,607.084,608.0833,,,,,,,,,,,,,,,,,,,,,,,,,,608.0834,608.7997,z,1,0.6952,,608.7998,608.8001,,0,301,301,348,1,349,aife,,,,,4,notharmonic,1.75,nw,z,,,,,,,
,,,,,,,,,,,M,001,2023-11-08_22h11.37.327,vowel_harmony,2023.2.3,Win32,60.07449237,608.801,609.7996,,,,,,,,,,,,,,,,,,,,,,,,,,609.7997,610.3496,z,1,0.5347,,610.3497,610.35,,0,302,302,284,1,285,deval,,,,,5,notharmonic,1.75,nw,z,,,,,,,
,,,,,,,,,,,M,001,2023-11-08_22h11.37.327,vowel_harmony,2023.2.3,Win32,60.07449237,610.3509,611.3496,,,,,,,,,,,,,,,,,,,,,,,,,,611.3496,611.9994,m,1,0.6373,,611.9997,611.9999,,0,303,303,177,1,178,tekrar,10788,490.1639,9352,1.0224,6,notharmonic,1.85,word,m,,,,,,,
,,,,,,,,,,,M,001,2023-11-08_22h11.37.327,vowel_harmony,2023.2.3,Win32,60.07449237,612.0008,612.9995,,,,,,,,,,,,,,,,,,,,,,,,,,612.9995,613.7326,z,1,0.7158,,613.7326,613.7329,,0,304,304,253,1,254,meslet,,,,,6,harmonic,1.85,nw,z,,,,,,,
,,,,,,,,,,,M,001,2023-11-08_22h11.37.327,vowel_harmony,2023.2.3,Win32,60.07449237,613.7339,614.733,,,,,,,,,,,,,,,,,,,,,,,,,,614.733,615.3496,m,1,0.5983,,615.3496,615.3499,,0,305,305,61,1,62,yıldız,1775,80.649,1532,0.1675,6,harmonic,1.6,word,m,,,,,,,
,,,,,,,,,,,M,001,2023-11-08_22h11.37.327,vowel_harmony,2023.2.3,Win32,60.07449237,615.351,616.3497,,,,,,,,,,,,,,,,,,,,,,,,,,616.3498,616.9829,m,1,0.6177,,616.9829,616.983,,0,306,306,166,1,167,maden,402,18.2653,339,0.0371,5,notharmonic,1.45,word,m,,,,,,,
,,,,,,,,,,,M,001,2023-11-08_22h11.37.327,vowel_harmony,2023.2.3,Win32,60.07449237,616.9841,617.9827,,,,,,,,,,,,,,,,,,,,,,,,,,617.9827,618.6659,z,1,0.6634,,618.666,618.666,,0,307,307,185,1,186,örtin,,,,,5,harmonic,1.9,nw,z,,,,,,,
,,,,,,,,,,,M,001,2023-11-08_22h11.37.327,vowel_harmony,2023.2.3,Win32,60.07449237,618.6671,619.666,,,,,,,,,,,,,,,,,,,,,,,,,,619.666,620.2994,z,1,0.6156,,620.2995,620.2996,,0,308,308,345,1,346,bardeş,,,,,6,notharmonic,1.95,nw,z,,,,,,,
,,,,,,,,,,,M,001,2023-11-08_22h11.37.327,vowel_harmony,2023.2.3,Win32,60.07449237,620.3007,621.2994,,,,,,,,,,,,,,,,,,,,,,,,,,621.2994,621.7828,z,1,0.4654,,621.7829,621.7832,,0,309,309,213,1,214,kaun,,,,,4,harmonic,1.7,nw,z,,,,,,,
,,,,,,,,,,,M,001,2023-11-08_22h11.37.327,vowel_harmony,2023.2.3,Win32,60.07449237,621.784,622.7826,,,,,,,,,,,,,,,,,,,,,,,,,,622.7826,623.3994,z,1,0.6002,,623.3995,623.3996,,0,310,310,338,1,339,pardön,,,,,6,notharmonic,1.95,nw,z,,,,,,,
,,,,,,,,,,,M,001,2023-11-08_22h11.37.327,vowel_harmony,2023.2.3,Win32,60.07449237,623.4007,624.3992,,,,,,,,,,,,,,,,,,,,,,,,,,624.3992,624.9824,z,1,0.5714,,624.9824,624.9826,,0,311,311,224,1,225,ertre,,,,,5,harmonic,1.95,nw,z,,,,,,,
,,,,,,,,,,,M,001,2023-11-08_22h11.37.327,vowel_harmony,2023.2.3,Win32,60.07449237,624.9836,625.9827,,,,,,,,,,,,,,,,,,,,,,,,,,625.9829,626.6335,z,1,0.6292,,626.6336,626.6337,,0,312,312,354,1,355,taden,,,,,5,notharmonic,1.7,nw,z,,,,,,,
,,,,,,,,,,,M,001,2023-11-08_22h11.37.327,vowel_harmony,2023.2.3,Win32,60.07449237,626.6347,627.6325,,,,,,,,,,,,,,,,,,,,,,,,,,627.6326,628.4159,z,1,0.7654,,628.416,628.4161,,0,313,313,276,1,277,iptap,,,,,5,notharmonic,1.95,nw,z,,,,,,,
,,,,,,,,,,,M,001,2023-11-08_22h11.37.327,vowel_harmony,2023.2.3,Win32,60.07449237,628.4173,629.4161,,,,,,,,,,,,,,,,,,,,,,,,,,629.4161,630.0159,z,1,0.5828,,630.016,630.0161,,0,314,314,321,1,322,makih,,,,,5,notharmonic,1.8,nw,z,,,,,,,
,,,,,,,,,,,M,001,2023-11-08_22h11.37.327,vowel_harmony,2023.2.3,Win32,60.07449237,630.0172,631.016,,,,,,,,,,,,,,,,,,,,,,,,,,631.016,631.6823,z,1,0.651,,631.6824,631.6825,,0,315,315,216,1,217,çeyret,,,,,6,harmonic,1.9,nw,z,,,,,,,
,,,,,,,,,,,M,001,2023-11-08_22h11.37.327,vowel_harmony,2023.2.3,Win32,60.07449237,631.6836,632.6826,,,,,,,,,,,,,,,,,,,,,,,,,,632.6826,633.4826,m,1,0.7817,,633.4827,633.4829,,0,316,316,155,1,156,ilaç,1366,62.0656,1215,0.1328,4,notharmonic,1.75,word,m,,,,,,,
,,,,,,,,,,,M,001,2023-11-08_22h11.37.327,vowel_harmony,2023.2.3,Win32,60.07449237,633.4839,634.4827,,,,,,,,,,,,,,,,,,,,,,,,,,634.4827,635.0992,z,1,0.5961,,635.0993,635.0995,,0,317,317,196,1,197,bilön,,,,,5,harmonic,1.9,nw,z,,,,,,,
,,,,,,,,,,,M,001,2023-11-08_22h11.37.327,vowel_harmony,2023.2.3,Win32,60.07449237,635.1005,636.0991,,,,,,,,,,,,,,,,,,,,,,,,,,636.0991,636.6825,m,1,0.5622,,636.6826,636.6829,,0,318,318,32,1,33,temel,4231,192.2399,3851,0.421,5,harmonic,1.55,word,m,,,,,,,
,,,,,,,,,,,M,001,2023-11-08_22h11.37.327,vowel_harmony,2023.2.3,Win32,60.07449237,636.6838,637.6822,,,,,,,,,,,,,,,,,,,,,,,,,,637.6823,638.2175,m,1,0.5252,,638.2177,638.2179,,0,319,319,45,1,46,bilgi,5981,271.7529,5353,0.5852,5,harmonic,1.5,word,m,,,,,,,
,,,,,,,,,,,M,001,2023-11-08_22h11.37.327,vowel_harmony,2023.2.3,Win32,60.07449237,638.2189,639.2157,,,,,,,,,,,,,,,,,,,,,,,,,,639.2158,639.8489,m,1,0.6159,,639.849,639.8491,,0,320,320,50,1,51,kanun,1198,54.4324,1010,0.1104,5,harmonic,1.6,word,m,,,,,,,
,,,,,,,,,,,M,001,2023-11-08_22h11.37.327,vowel_harmony,2023.2.3,Win32,60.07449237,639.8501,640.8491,,,,,,,,,,,,,,,,,,,,,,,,,,640.8492,641.4991,z,1,0.6277,,641.4993,641.4995,,0,321,321,270,1,271,miyaj,,,,,5,notharmonic,1.9,nw,z,,,,,,,
,,,,,,,,,,,M,001,2023-11-08_22h11.37.327,vowel_harmony,2023.2.3,Win32,60.07449237,641.5004,642.499,,,,,,,,,,,,,,,,,,,,,,,,,,642.4991,643.0654,m,1,0.5481,,643.0655,643.0657,,0,322,322,7,1,8,hizmet,3023,137.3531,2689,0.294,6,harmonic,1.75,word,m,,,,,,,
,,,,,,,,,,,M,001,2023-11-08_22h11.37.327,vowel_harmony,2023.2.3,Win32,60.07449237,643.0667,644.0658,,,,,,,,,,,,,,,,,,,,,,,,,,644.0658,644.649,m,1,0.565,,644.649,644.6492,,0,323,323,96,1,97,dahil,3189,144.8955,3060,0.3345,5,notharmonic,1.7,word,m,,,,,,,
,,,,,,,,,,,M,001,2023-11-08_22h11.37.327,vowel_harmony,2023.2.3,Win32,60.07449237,644.6501,645.6489,,,,,,,,,,,,,,,,,,,,,,,,,,645.6489,646.4989,z,1,0.8321,,646.4989,646.4991,,0,324,324,244,1,245,kaof,,,,,4,harmonic,1.9,nw,z,,,,,,,
,,,,,,,,,,,M,001,2023-11-08_22h11.37.327,vowel_harmony,2023.2.3,Win32,60.07449237,646.5001,647.4989,,,,,,,,,,,,,,,,,,,,,,,,,,647.499,648.0822,z,1,0.5621,,648.0823,648.0825,,0,325,325,268,1,269,haldum,,,,,6,harmonic,2,nw,z,,,,,,,
,,,,,,,,,,,M,001,2023-11-08_22h11.37.327,vowel_harmony,2023.2.3,Win32,60.07449237,648.0834,649.0822,,,,,,,,,,,,,,,,,,,,,,,,,,649.0822,649.649,m,1,0.5461,,649.6491,649.6493,,0,326,326,124,1,125,ilan,1579,71.7435,1499,0.1639,4,notharmonic,1,word,m,,,,,,,
,,,,,,,,,,,M,001,2023-11-08_22h11.37.327,vowel_harmony,2023.2.3,Win32,60.07449237,649.6502,650.649,,,,,,,,,,,,,,,,,,,,,,,,,,650.649,651.2989,m,1,0.6359,,651.2991,651.2992,,0,327,327,162,1,163,hariç,1267,57.5675,1233,0.1348,5,notharmonic,1.75,word,m,,,,,,,
,,,,,,,,,,,M,001,2023-11-08_22h11.37.327,vowel_harmony,2023.2.3,Win32,60.07449237,651.3003,652.2988,,,,,,,,,,,,,,,,,,,,,,,,,,652.2988,652.8156,m,1,0.4949,,652.8157,652.8159,,0,328,328,112,1,113,sezon,2315,105.1844,1917,0.2096,5,notharmonic,1.8,word,m,,,,,,,
,,,,,,,,,,,M,001,2023-11-08_22h11.37.327,vowel_harmony,2023.2.3,Win32,60.07449237,652.8169,653.8154,,,,,,,,,,,,,,,,,,,,,,,,,,653.8155,654.2504,m,1,0.4238,,654.2504,654.2506,,0,329,329,126,1,127,adet,4367,198.4192,3768,0.4119,4,notharmonic,1.4,word,m,,,,,,,
,,,,,,,,,,,M,001,2023-11-08_22h11.37.327,vowel_harmony,2023.2.3,Win32,60.07449237,654.2515,655.2487,,,,,,,,,,,,,,,,,,,,,,,,,,655.2487,655.615,m,0,0.3457,,655.615,655.6151,,0,330,330,240,1,241,hoga,,,,,4,harmonic,1.75,nw,z,,,,,,,
,,,,,,,,,,,M,001,2023-11-08_22h11.37.327,vowel_harmony,2023.2.3,Win32,60.07449237,655.6157,656.6152,,,,,,,,,,,,,,,,,,,,,,,,,,656.6153,657.2319,m,1,0.5961,,657.232,657.2322,,0,331,331,71,1,72,örnek,3463,157.345,3266,0.357,5,harmonic,1.85,word,m,,,,,,,
,,,,,,,,,,,M,001,2023-11-08_22h11.37.327,vowel_harmony,2023.2.3,Win32,60.07449237,657.2333,658.2319,,,,,,,,,,,,,,,,,,,,,,,,,,658.2321,658.832,m,1,0.5779,,658.8322,658.8324,,0,332,332,109,1,110,milyon,3936,178.8362,2958,0.3234,6,notharmonic,1.75,word,m,,,,,,,
,,,,,,,,,,,M,001,2023-11-08_22h11.37.327,vowel_harmony,2023.2.3,Win32,60.07449237,658.8332,659.8321,,,,,,,,,,,,,,,,,,,,,,,,,,659.8322,660.4318,z,1,0.5808,,660.4318,660.432,,0,333,333,300,1,301,nilgi,,,,,5,notharmonic,1.85,nw,z,,,,,,,
,,,,,,,,,,,M,001,2023-11-08_22h11.37.327,vowel_harmony,2023.2.3,Win32,60.07449237,660.4329,661.432,,,,,,,,,,,,,,,,,,,,,,,,,,661.432,662.0154,m,1,0.5621,,662.0155,662.0157,,0,334,334,167,1,168,adalet,1611,73.1975,1388,0.1517,6,notharmonic,1.65,word,m,,,,,,,
,,,,,,,,,,,M,001,2023-11-08_22h11.37.327,vowel_harmony,2023.2.3,Win32,60.07449237,662.0167,663.0149,,,,,,,,,,,,,,,,,,,,,,,,,,663.015,663.5317,m,1,0.505,,663.5318,663.5321,,0,335,335,122,1,123,devam,17666,802.673,16284,1.7802,5,notharmonic,1.55,word,m,,,,,,,
,,,,,,,,,,,M,001,2023-11-08_22h11.37.327,vowel_harmony,2023.2.3,Win32,60.07449237,663.5329,664.532,,,,,,,,,,,,,,,,,,,,,,,,,,664.5321,665.1151,m,1,0.568,,665.1152,665.1154,,0,336,336,27,1,28,bölge,1283,58.2944,1123,0.1228,5,harmonic,1.65,word,m,,,,,,,
,,,,,,,,,,,M,001,2023-11-08_22h11.37.327,vowel_harmony,2023.2.3,Win32,60.07449237,665.1164,666.1152,,,,,,,,,,,,,,,,,,,,,,,,,,666.1153,666.8818,z,1,0.7482,,666.8818,666.882,,0,337,337,358,1,359,yangin,,,,,6,notharmonic,1.9,nw,z,,,,,,,
,,,,,,,,,,,M,001,2023-11-08_22h11.37.327,vowel_harmony,2023.2.3,Win32,60.07449237,666.8831,667.8818,,,,,,,,,,,,,,,,,,,,,,,,,,667.882,668.4816,z,1,0.5825,,668.4817,668.4819,,0,338,338,286,1,287,cedan,,,,,5,notharmonic,1.8,nw,z,,,,,,,
,,,,,,,,,,,M,001,2023-11-08_22h11.37.327,vowel_harmony,2023.2.3,Win32,60.07449237,668.483,669.4818,,,,,,,,,,,,,,,,,,,,,,,,,,669.4819,670.2999,z,1,0.8064,,670.2999,670.3001,,0,339,339,261,1,262,kardok,,,,,6,harmonic,1.95,nw,z,,,,,,,
,,,,,,,,,,,M,001,2023-11-08_22h11.37.327,vowel_harmony,2023.2.3,Win32,60.07449237,670.301,671.2985,,,,,,,,,,,,,,,,,,,,,,,,,,671.2986,671.9986,m,1,0.6827,,671.9987,671.9989,,0,340,340,117,1,118,nasip,1069,48.5711,1042,0.1139,5,notharmonic,1.8,word,m,,,,,,,
,,,,,,,,,,,M,001,2023-11-08_22h11.37.327,vowel_harmony,2023.2.3,Win32,60.07449237,671.9999,672.9984,,,,,,,,,,,,,,,,,,,,,,,,,,672.9984,673.7318,m,1,0.7191,,673.732,673.7322,,0,341,341,137,1,138,parti,2613,118.7244,2059,0.2251,5,notharmonic,1.8,word,m,,,,,,,
,,,,,,,,,,,M,001,2023-11-08_22h11.37.327,vowel_harmony,2023.2.3,Win32,60.07449237,673.7332,674.7314,,,,,,,,,,,,,,,,,,,,,,,,,,674.7315,675.2649,m,1,0.5165,,675.265,675.2652,,0,342,342,29,1,30,huzur,1911,86.8283,1799,0.1967,5,harmonic,1.8,word,m,,,,,,,
,,,,,,,,,,,M,001,2023-11-08_22h11.37.327,vowel_harmony,2023.2.3,Win32,60.07449237,675.2661,676.2651,,,,,,,,,,,,,,,,,,,,,,,,,,676.2652,676.6819,m,1,0.4016,,676.6819,676.6823,,0,343,343,98,1,99,paket,1532,69.608,1392,0.1522,5,notharmonic,1.55,word,m,,,,,,,
,,,,,,,,,,,M,001,2023-11-08_22h11.37.327,vowel_harmony,2023.2.3,Win32,60.07449237,676.6831,677.6816,,,,,,,,,,,,,,,,,,,,,,,,,,677.6816,678.2317,m,1,0.527,,678.2318,678.2319,,0,344,344,6,1,7,hayal,4498,204.3713,4079,0.4459,5,harmonic,1.45,word,m,,,,,,,
,,,,,,,,,,,M,001,2023-11-08_22h11.37.327,vowel_harmony,2023.2.3,Win32,60.07449237,678.2324,679.2315,,,,,,,,,,,,,,,,,,,,,,,,,,679.2315,679.8814,z,1,0.6381,,679.8815,679.8817,,0,345,345,288,1,289,molit,,,,,5,notharmonic,1.95,nw,z,,,,,,,
,,,,,,,,,,,M,001,2023-11-08_22h11.37.327,vowel_harmony,2023.2.3,Win32,60.07449237,679.8821,680.8817,,,,,,,,,,,,,,,,,,,,,,,,,,680.8818,681.4665,z,1,0.5717,,681.4665,681.4669,,0,346,346,207,1,208,örtre,,,,,5,harmonic,1.85,nw,z,,,,,,,
,,,,,,,,,,,M,001,2023-11-08_22h11.37.327,vowel_harmony,2023.2.3,Win32,60.07449237,681.4674,682.4649,,,,,,,,,,,,,,,,,,,,,,,,,,682.4649,682.9829,z,1,0.5069,,682.9832,682.9835,,0,347,347,257,1,258,zerü,,,,,4,harmonic,1.8,nw,z,,,,,,,
,,,,,,,,,,,M,001,2023-11-08_22h11.37.327,vowel_harmony,2023.2.3,Win32,60.07449237,682.9841,683.9815,,,,,,,,,,,,,,,,,,,,,,,,,,683.9815,684.665,z,1,0.6613,,684.6651,684.6653,,0,348,348,337,1,338,bakem,,,,,5,notharmonic,1.7,nw,z,,,,,,,
,,,,,,,,,,,M,001,2023-11-08_22h11.37.327,vowel_harmony,2023.2.3,Win32,60.07449237,684.6661,685.665,,,,,,,,,,,,,,,,,,,,,,,,,,685.6651,686.3315,z,1,0.6453,,686.3316,686.3317,,0,349,349,222,1,223,gelü,,,,,4,harmonic,1.75,nw,z,,,,,,,
,,,,,,,,,,,M,001,2023-11-08_22h11.37.327,vowel_harmony,2023.2.3,Win32,60.07449237,686.3328,687.3313,,,,,,,,,,,,,,,,,,,,,,,,,,687.3314,688.0816,z,1,0.7324,,688.0816,688.0817,,0,350,350,335,1,336,lilo,,,,,4,notharmonic,1.8,nw,z,,,,,,,
,,,,,,,,,,,M,001,2023-11-08_22h11.37.327,vowel_harmony,2023.2.3,Win32,60.07449237,688.0828,689.0815,,,,,,,,,,,,,,,,,,,,,,,,,,689.0815,689.848,z,1,0.7524,,689.8481,689.8483,,0,351,351,248,1,249,şegim,,,,,5,harmonic,1.9,nw,z,,,,,,,
,,,,,,,,,,,M,001,2023-11-08_22h11.37.327,vowel_harmony,2023.2.3,Win32,60.07449237,689.8493,690.8481,,,,,,,,,,,,,,,,,,,,,,,,,,690.8481,691.4815,z,1,0.6111,,691.4816,691.4818,,0,352,352,295,1,296,haylin,,,,,6,notharmonic,1.8,nw,z,,,,,,,
,,,,,,,,,,,M,001,2023-11-08_22h11.37.327,vowel_harmony,2023.2.3,Win32,60.07449237,691.4828,692.4815,,,,,,,,,,,,,,,,,,,,,,,,,,692.4816,693.1815,m,1,0.6816,,693.1817,693.1819,,0,353,353,75,1,76,roman,1499,68.1086,1281,0.14,5,harmonic,1.6,word,m,,,,,,,
,,,,,,,,,,,M,001,2023-11-08_22h11.37.327,vowel_harmony,2023.2.3,Win32,60.07449237,693.1827,694.1814,,,,,,,,,,,,,,,,,,,,,,,,,,694.1815,694.7982,m,1,0.5947,,694.7983,694.7985,,0,354,354,18,1,19,normal,4154,188.7413,3788,0.4141,6,harmonic,1.75,word,m,,,,,,,
,,,,,,,,,,,M,001,2023-11-08_22h11.37.327,vowel_harmony,2023.2.3,Win32,60.07449237,694.7993,695.798,,,,,,,,,,,,,,,,,,,,,,,,,,695.798,696.4481,z,1,0.6362,,696.4482,696.4485,,0,355,355,259,1,260,hayuk,,,,,5,harmonic,1.95,nw,z,,,,,,,
,,,,,,,,,,,M,001,2023-11-08_22h11.37.327,vowel_harmony,2023.2.3,Win32,60.07449237,696.4495,697.448,,,,,,,,,,,,,,,,,,,,,,,,,,697.448,697.9981,z,1,0.5291,,697.9984,697.9985,,0,356,356,304,1,305,annö,,,,,4,notharmonic,1.95,nw,z,,,,,,,
,,,,,,,,,,,M,001,2023-11-08_22h11.37.327,vowel_harmony,2023.2.3,Win32,60.07449237,697.9992,698.9981,,,,,,,,,,,,,,,,,,,,,,,,,,698.9981,699.6147,z,1,0.5951,,699.6148,699.615,,0,357,357,202,1,203,güvin,,,,,5,harmonic,1.95,nw,z,,,,,,,
,,,,,,,,,,,M,001,2023-11-08_22h11.37.327,vowel_harmony,2023.2.3,Win32,60.07449237,699.616,700.6145,,,,,,,,,,,,,,,,,,,,,,,,,,700.6145,701.2643,z,1,0.6307,,701.2644,701.2647,,0,358,358,279,1,280,tadde,,,,,5,notharmonic,1.8,nw,z,,,,,,,
,,,,,,,,,,,M,001,2023-11-08_22h11.37.327,vowel_harmony,2023.2.3,Win32,60.07449237,701.2656,702.2646,,,,,,,,,,,,,,,,,,,,,,,,,,702.2647,702.8813,m,1,0.5996,,702.8813,702.8814,,0,359,359,33,1,34,moda,1381,62.7472,1231,0.1346,4,harmonic,1.55,word,m,,,,,,,
,,,,,,,,,,,M,001,2023-11-08_22h11.37.327,vowel_harmony,2023.2.3,Win32,60.07449237,,,,,,,,,,,,,,,,,,,,,,,,,,,,,,,,,,,,,,,,,,,,,,,,,,,,,,,702.8829,705.2482,space,2.3544,