Welcome_screen.started,Welcome_screen.stopped,key_respwelcome.keys,key_respwelcome.rt,key_respwelcome.duration,intro_x.thisRepN,intro_x.thisTrialN,intro_x.thisN,intro_x.thisIndex,intro_x.ran,Introduction,participant,session,date,expName,psychopyVersion,OS,frameRate,Fixation.started,Fixation.stopped,Studypractice.started,Studypractice.stopped,key_respstudy.keys,key_respstudy.corr,key_respstudy.rt,key_respstudy.duration,rt,corr,Feedback.started,Feedback.stopped,practice_loop.thisRepN,practice_loop.thisTrialN,practice_loop.thisN,practice_loop.thisIndex,practice_loop.ran,item_nr_p,target_p,isHarmonic_p,target_cond_p,CorrAns_p,Instraction.started,Instraction.stopped,key_respınstraction.keys,key_respınstraction.rt,key_respınstraction.duration,TestTrial.started,TestTrial.stopped,key_respTest.keys,key_respTest.corr,key_respTest.rt,key_respTest.duration,Pause.started,Pause.stopped,key_resp_xx.keys,test_loop.thisRepN,test_loop.thisTrialN,test_loop.thisN,test_loop.thisIndex,test_loop.ran,item_nr,target,BlogFreq_A1,BlogFreqpm_A1,BlogCD_A1,BlogCDPc_A1,WordLength_A1,isHarmonic_A1,old20,target_cond,CorrAns,key_resp_xx.rt,key_resp_xx.duration,Goodbye_screen.started,Goodbye_screen.stopped,key_respgoodbye.keys,key_respgoodbye.rt,key_respgoodbye.duration
0.0116,2.2638,space,2.2459,,0,0,0,0,1,"Deneye hoş geldiniz,

Devam etmek için BOŞLUK tuşuna basınız.",Meriç Sarıkaya,001,2023-11-07_23h27.12.425,vowel_harmony,2023.2.3,Win32,144.0092166,,,,,,,,,,,,,,,,,,,,,,,,,,,,,,,,,,,,,,,,,,,,,,,,,,,,,,,,,,,
2.2641,7.6595,space,5.3867,,0,1,1,1,1,"Bu çalışma Valencia Üniversitesi kapsamında yürütülmektedir. Deneydeki göreviniz, ekrana çıkacak Türkçe sözcüklerin kelime olup olmadığını belirlemenizdir. Eğer sözcük gerçek bir kelime ise ""m"" tuşuna, değil ise ""z"" tuşuna basınız.   

Devam etmek için BOŞLUK tuşuna basınız.",Meriç Sarıkaya,001,2023-11-07_23h27.12.425,vowel_harmony,2023.2.3,Win32,144.0092166,,,,,,,,,,,,,,,,,,,,,,,,,,,,,,,,,,,,,,,,,,,,,,,,,,,,,,,,,,,
7.6597,13.7568,space,6.0877,,0,2,2,2,1,"Her sözcük için en fazla iki saniyede cevap vermeniz beklenmektedir. Aksi takdirde deney bir sonraki sözcük ile devam eder. 
Bu çalışmada oldukça hızlı ve doğru cevaplama yapmanız beklenmektedir.

Devam etmek için BOŞLUK tuşuna basınız.",Meriç Sarıkaya,001,2023-11-07_23h27.12.425,vowel_harmony,2023.2.3,Win32,144.0092166,,,,,,,,,,,,,,,,,,,,,,,,,,,,,,,,,,,,,,,,,,,,,,,,,,,,,,,,,,,
13.757,13.9511,space,0.1812,,0,3,3,3,1,"Çalışmaya başlamadan önce ufak bir pratik yer almaktadır.
Kelimedir: ""m""
Kelime değildir: ""z""

Pratik teste başlamak için BOŞLUK tuşuna basınız. ",Meriç Sarıkaya,001,2023-11-07_23h27.12.425,vowel_harmony,2023.2.3,Win32,144.0092166,,,,,,,,,,,,,,,,,,,,,,,,,,,,,,,,,,,,,,,,,,,,,,,,,,,,,,,,,,,
,,,,,,,,,,,Meriç Sarıkaya,001,2023-11-07_23h27.12.425,vowel_harmony,2023.2.3,Win32,144.0092166,13.9558,14.9512,14.9514,15.5971,m,1,0.6302,,0.6302,1,15.5973,17.097,0,0,0,2,1,3,memur,notharmonic,word,m,,,,,,,,,,,,,,,,,,,,,,,,,,,,,,,,,,,,,
,,,,,,,,,,,Meriç Sarıkaya,001,2023-11-07_23h27.12.425,vowel_harmony,2023.2.3,Win32,144.0092166,17.0973,18.097,18.097,18.6735,m,1,0.5635,,0.5635,1,18.6735,20.1734,0,1,1,7,1,8,oran,harmonic,word,m,,,,,,,,,,,,,,,,,,,,,,,,,,,,,,,,,,,,,
,,,,,,,,,,,Meriç Sarıkaya,001,2023-11-07_23h27.12.425,vowel_harmony,2023.2.3,Win32,144.0092166,20.1735,21.1734,21.1734,21.6317,m,1,0.4509,,0.4509,1,21.6317,23.1318,0,2,2,6,1,7,pilot,notharmonic,word,m,,,,,,,,,,,,,,,,,,,,,,,,,,,,,,,,,,,,,
,,,,,,,,,,,Meriç Sarıkaya,001,2023-11-07_23h27.12.425,vowel_harmony,2023.2.3,Win32,144.0092166,23.1321,24.1318,24.1318,24.729,z,1,0.5876,,0.5876,1,24.729,26.229,0,3,3,11,1,12,geki,harmonic,nw,z,,,,,,,,,,,,,,,,,,,,,,,,,,,,,,,,,,,,,
,,,,,,,,,,,Meriç Sarıkaya,001,2023-11-07_23h27.12.425,vowel_harmony,2023.2.3,Win32,144.0092166,26.2291,27.229,27.229,27.6595,m,1,0.4223,,0.4223,1,27.6595,29.1595,0,4,4,1,1,2,veri,harmonic,word,m,,,,,,,,,,,,,,,,,,,,,,,,,,,,,,,,,,,,,
,,,,,,,,,,,Meriç Sarıkaya,001,2023-11-07_23h27.12.425,vowel_harmony,2023.2.3,Win32,144.0092166,29.1597,30.1596,30.1596,30.6596,m,1,0.4887,,0.4887,1,30.6596,32.1595,0,5,5,5,1,6,bahçe,notharmonic,word,m,,,,,,,,,,,,,,,,,,,,,,,,,,,,,,,,,,,,,
,,,,,,,,,,,Meriç Sarıkaya,001,2023-11-07_23h27.12.425,vowel_harmony,2023.2.3,Win32,144.0092166,32.1597,33.1595,33.1596,33.7985,z,1,0.6287,,0.6287,1,33.7985,35.2984,0,6,6,14,1,15,pimer,harmonic,nw,z,,,,,,,,,,,,,,,,,,,,,,,,,,,,,,,,,,,,,
,,,,,,,,,,,Meriç Sarıkaya,001,2023-11-07_23h27.12.425,vowel_harmony,2023.2.3,Win32,144.0092166,35.2986,36.2984,36.2985,36.7776,z,1,0.4666,,0.4666,1,36.7777,38.2776,0,7,7,12,1,13,ihlot,notharmonic,nw,z,,,,,,,,,,,,,,,,,,,,,,,,,,,,,,,,,,,,,
,,,,,,,,,,,Meriç Sarıkaya,001,2023-11-07_23h27.12.425,vowel_harmony,2023.2.3,Win32,144.0092166,38.2778,39.2776,39.2776,39.8471,m,1,0.5559,,0.5559,1,39.8471,41.3471,0,8,8,3,1,4,ihlal,notharmonic,word,m,,,,,,,,,,,,,,,,,,,,,,,,,,,,,,,,,,,,,
,,,,,,,,,,,Meriç Sarıkaya,001,2023-11-07_23h27.12.425,vowel_harmony,2023.2.3,Win32,144.0092166,41.3472,42.3471,42.3471,42.8888,z,1,0.5313,,0.5313,1,42.8889,44.3887,0,9,9,15,1,16,mımal,harmonic,nw,z,,,,,,,,,,,,,,,,,,,,,,,,,,,,,,,,,,,,,
,,,,,,,,,,,Meriç Sarıkaya,001,2023-11-07_23h27.12.425,vowel_harmony,2023.2.3,Win32,144.0092166,44.389,45.3888,45.3888,45.868,m,1,0.4663,,0.4663,1,45.868,47.368,0,10,10,0,1,1,ihale,notharmonic,word,m,,,,,,,,,,,,,,,,,,,,,,,,,,,,,,,,,,,,,
,,,,,,,,,,,Meriç Sarıkaya,001,2023-11-07_23h27.12.425,vowel_harmony,2023.2.3,Win32,144.0092166,47.3682,48.368,48.368,49.0416,m,0,0.6643,,0.6643,0,49.0416,50.5416,0,11,11,8,1,9,tahip,notharmonic,nw,z,,,,,,,,,,,,,,,,,,,,,,,,,,,,,,,,,,,,,
,,,,,,,,,,,Meriç Sarıkaya,001,2023-11-07_23h27.12.425,vowel_harmony,2023.2.3,Win32,144.0092166,50.5417,51.5416,51.5416,52.1249,z,1,0.5706,,0.5706,1,52.1249,53.6249,0,12,12,9,1,10,orat,harmonic,nw,z,,,,,,,,,,,,,,,,,,,,,,,,,,,,,,,,,,,,,
,,,,,,,,,,,Meriç Sarıkaya,001,2023-11-07_23h27.12.425,vowel_harmony,2023.2.3,Win32,144.0092166,53.625,54.6249,54.6249,55.2366,z,1,0.6043,,0.6043,1,55.2366,56.7361,0,13,13,10,1,11,mahne,notharmonic,nw,z,,,,,,,,,,,,,,,,,,,,,,,,,,,,,,,,,,,,,
,,,,,,,,,,,Meriç Sarıkaya,001,2023-11-07_23h27.12.425,vowel_harmony,2023.2.3,Win32,144.0092166,56.7362,57.7361,57.7361,58.2916,z,1,0.5472,,0.5472,1,58.2917,59.7916,0,14,14,13,1,14,pilar,notharmonic,nw,z,,,,,,,,,,,,,,,,,,,,,,,,,,,,,,,,,,,,,
,,,,,,,,,,,Meriç Sarıkaya,001,2023-11-07_23h27.12.425,vowel_harmony,2023.2.3,Win32,144.0092166,59.7918,60.7917,60.7917,61.3195,m,1,0.5175,,0.5175,1,61.3195,62.8194,0,15,15,4,1,5,mimar,notharmonic,word,m,,,,,,,,,,,,,,,,,,,,,,,,,,,,,,,,,,,,,
,,,,,,,,,,,Meriç Sarıkaya,001,2023-11-07_23h27.12.425,vowel_harmony,2023.2.3,Win32,144.0092166,,,,,,,,,,,,,,,,,,,,,,,62.8197,154.3202,space,91.488,,,,,,,,,,,,,,,,,,,,,,,,,,,,,,,,,
,,,,,,,,,,,Meriç Sarıkaya,001,2023-11-07_23h27.12.425,vowel_harmony,2023.2.3,Win32,144.0092166,154.3427,155.3268,,,,,,,,,,,,,,,,,,,,,,,,,,155.327,155.945,z,1,0.6112,,155.945,155.9456,,0,0,0,263,1,264,duzur,,,,,5,harmonic,1.8,nw,z,,,,,,,
,,,,,,,,,,,Meriç Sarıkaya,001,2023-11-07_23h27.12.425,vowel_harmony,2023.2.3,Win32,144.0092166,155.9458,156.9449,,,,,,,,,,,,,,,,,,,,,,,,,,156.9449,157.563,z,1,0.6106,,157.563,157.563,,0,1,1,336,1,337,diyam,,,,,5,notharmonic,1.85,nw,z,,,,,,,
,,,,,,,,,,,Meriç Sarıkaya,001,2023-11-07_23h27.12.425,vowel_harmony,2023.2.3,Win32,144.0092166,157.5632,158.563,,,,,,,,,,,,,,,,,,,,,,,,,,158.563,159.2921,m,1,0.7201,,159.2921,159.2921,,0,2,2,69,1,70,forma,719,32.6685,597,0.0653,5,harmonic,1.8,word,m,,,,,,,
,,,,,,,,,,,Meriç Sarıkaya,001,2023-11-07_23h27.12.425,vowel_harmony,2023.2.3,Win32,144.0092166,159.2924,160.2921,,,,,,,,,,,,,,,,,,,,,,,,,,160.2922,160.7783,m,1,0.4772,,160.7783,160.7783,,0,3,3,8,1,9,güven,1433,65.1098,1300,0.1421,5,harmonic,1.35,word,m,,,,,,,
,,,,,,,,,,,Meriç Sarıkaya,001,2023-11-07_23h27.12.425,vowel_harmony,2023.2.3,Win32,144.0092166,160.7784,161.7782,,,,,,,,,,,,,,,,,,,,,,,,,,161.7782,162.306,m,1,0.5225,,162.306,162.306,,0,4,4,133,1,134,taze,2268,103.0489,2062,0.2254,4,notharmonic,1.65,word,m,,,,,,,
,,,,,,,,,,,Meriç Sarıkaya,001,2023-11-07_23h27.12.425,vowel_harmony,2023.2.3,Win32,144.0092166,162.3062,163.306,,,,,,,,,,,,,,,,,,,,,,,,,,163.3061,163.8408,m,1,0.5271,,163.8408,163.8408,,0,5,5,106,1,107,esnaf,315,14.3124,284,0.031,5,notharmonic,1.55,word,m,,,,,,,
,,,,,,,,,,,Meriç Sarıkaya,001,2023-11-07_23h27.12.425,vowel_harmony,2023.2.3,Win32,144.0092166,163.841,164.8407,,,,,,,,,,,,,,,,,,,,,,,,,,164.8408,165.5143,z,1,0.6691,,165.5143,165.5144,,0,6,6,207,1,208,örtre,,,,,5,harmonic,1.85,nw,z,,,,,,,
,,,,,,,,,,,Meriç Sarıkaya,001,2023-11-07_23h27.12.425,vowel_harmony,2023.2.3,Win32,144.0092166,165.5146,166.5143,,,,,,,,,,,,,,,,,,,,,,,,,,166.5143,167.1741,z,1,0.6512,,167.1742,167.1742,,0,7,7,317,1,318,mevul,,,,,5,notharmonic,1.95,nw,z,,,,,,,
,,,,,,,,,,,Meriç Sarıkaya,001,2023-11-07_23h27.12.425,vowel_harmony,2023.2.3,Win32,144.0092166,167.1744,168.174,,,,,,,,,,,,,,,,,,,,,,,,,,168.1741,168.7643,z,1,0.5865,,168.7643,168.7645,,0,8,8,335,1,336,lilo,,,,,4,notharmonic,1.8,nw,z,,,,,,,
,,,,,,,,,,,Meriç Sarıkaya,001,2023-11-07_23h27.12.425,vowel_harmony,2023.2.3,Win32,144.0092166,168.7646,169.7644,,,,,,,,,,,,,,,,,,,,,,,,,,169.7644,170.1879,m,1,0.4166,,170.1881,170.1881,,0,9,9,87,1,88,mümkün,6604,300.0596,6264,0.6848,6,harmonic,1.9,word,m,,,,,,,
,,,,,,,,,,,Meriç Sarıkaya,001,2023-11-07_23h27.12.425,vowel_harmony,2023.2.3,Win32,144.0092166,170.1882,171.188,,,,,,,,,,,,,,,,,,,,,,,,,,171.188,171.688,z,1,0.497,,171.688,171.6881,,0,10,10,214,1,215,vecü,,,,,4,harmonic,1.95,nw,z,,,,,,,
,,,,,,,,,,,Meriç Sarıkaya,001,2023-11-07_23h27.12.425,vowel_harmony,2023.2.3,Win32,144.0092166,171.6883,172.688,,,,,,,,,,,,,,,,,,,,,,,,,,172.688,173.2853,z,1,0.5882,,173.2853,173.2853,,0,11,11,359,1,360,kardez,,,,,6,notharmonic,1.95,nw,z,,,,,,,
,,,,,,,,,,,Meriç Sarıkaya,001,2023-11-07_23h27.12.425,vowel_harmony,2023.2.3,Win32,144.0092166,173.2856,174.2853,,,,,,,,,,,,,,,,,,,,,,,,,,174.2853,174.8408,z,1,0.5472,,174.8408,174.8408,,0,12,12,193,1,194,yokın,,,,,5,harmonic,1.85,nw,z,,,,,,,
,,,,,,,,,,,Meriç Sarıkaya,001,2023-11-07_23h27.12.425,vowel_harmony,2023.2.3,Win32,144.0092166,174.8411,175.8408,,,,,,,,,,,,,,,,,,,,,,,,,,175.8408,176.563,z,1,0.7164,,176.563,176.5631,,0,13,13,271,1,272,mimal,,,,,5,notharmonic,1.8,nw,z,,,,,,,
,,,,,,,,,,,Meriç Sarıkaya,001,2023-11-07_23h27.12.425,vowel_harmony,2023.2.3,Win32,144.0092166,176.5633,177.563,,,,,,,,,,,,,,,,,,,,,,,,,,177.563,178.0977,m,1,0.5296,,178.0977,178.0977,,0,14,14,125,1,126,ikna,1276,57.9764,1173,0.1282,4,notharmonic,1.85,word,m,,,,,,,
,,,,,,,,,,,Meriç Sarıkaya,001,2023-11-07_23h27.12.425,vowel_harmony,2023.2.3,Win32,144.0092166,178.0979,179.0977,,,,,,,,,,,,,,,,,,,,,,,,,,179.0977,179.5769,m,1,0.4713,,179.5769,179.577,,0,15,15,26,1,27,sebze,1094,49.707,961,0.1051,5,harmonic,1.9,word,m,,,,,,,
,,,,,,,,,,,Meriç Sarıkaya,001,2023-11-07_23h27.12.425,vowel_harmony,2023.2.3,Win32,144.0092166,179.5771,180.5769,,,,,,,,,,,,,,,,,,,,,,,,,,180.5769,181.2227,z,1,0.6418,,181.2228,181.2228,,0,16,16,221,1,222,yaypın,,,,,6,harmonic,1.75,nw,z,,,,,,,
,,,,,,,,,,,Meriç Sarıkaya,001,2023-11-07_23h27.12.425,vowel_harmony,2023.2.3,Win32,144.0092166,181.223,182.2227,,,,,,,,,,,,,,,,,,,,,,,,,,182.2227,182.7089,m,1,0.4777,,182.7089,182.709,,0,17,17,140,1,141,sahil,481,21.8547,443,0.0484,5,notharmonic,1.45,word,m,,,,,,,
,,,,,,,,,,,Meriç Sarıkaya,001,2023-11-07_23h27.12.425,vowel_harmony,2023.2.3,Win32,144.0092166,182.7091,183.7089,,,,,,,,,,,,,,,,,,,,,,,,,,183.7089,184.2367,m,1,0.5236,,184.2367,184.2367,,0,18,18,130,1,131,hamile,1075,48.8437,877,0.0959,6,notharmonic,1.5,word,m,,,,,,,
,,,,,,,,,,,Meriç Sarıkaya,001,2023-11-07_23h27.12.425,vowel_harmony,2023.2.3,Win32,144.0092166,184.2369,185.2366,,,,,,,,,,,,,,,,,,,,,,,,,,185.2367,185.7645,m,1,0.5187,,185.7645,185.7646,,0,19,19,116,1,117,daire,621,28.2158,503,0.055,5,notharmonic,1,word,m,,,,,,,
,,,,,,,,,,,Meriç Sarıkaya,001,2023-11-07_23h27.12.425,vowel_harmony,2023.2.3,Win32,144.0092166,185.7647,186.7644,,,,,,,,,,,,,,,,,,,,,,,,,,186.7644,187.2644,z,1,0.4938,,187.2645,187.2646,,0,20,20,217,1,218,sanfız,,,,,6,harmonic,1.85,nw,z,,,,,,,
,,,,,,,,,,,Meriç Sarıkaya,001,2023-11-07_23h27.12.425,vowel_harmony,2023.2.3,Win32,144.0092166,187.2647,188.2644,,,,,,,,,,,,,,,,,,,,,,,,,,188.2644,188.82,z,1,0.5495,,188.82,188.82,,0,21,21,240,1,241,hoga,,,,,4,harmonic,1.75,nw,z,,,,,,,
,,,,,,,,,,,Meriç Sarıkaya,001,2023-11-07_23h27.12.425,vowel_harmony,2023.2.3,Win32,144.0092166,188.8203,189.82,,,,,,,,,,,,,,,,,,,,,,,,,,189.82,190.313,z,1,0.4867,,190.3131,190.3132,,0,22,22,320,1,321,finak,,,,,5,notharmonic,1.85,nw,z,,,,,,,
,,,,,,,,,,,Meriç Sarıkaya,001,2023-11-07_23h27.12.425,vowel_harmony,2023.2.3,Win32,144.0092166,190.3133,191.313,,,,,,,,,,,,,,,,,,,,,,,,,,191.3131,191.7714,m,1,0.4497,,191.7715,191.7715,,0,23,23,27,1,28,bölge,1283,58.2944,1123,0.1228,5,harmonic,1.65,word,m,,,,,,,
,,,,,,,,,,,Meriç Sarıkaya,001,2023-11-07_23h27.12.425,vowel_harmony,2023.2.3,Win32,144.0092166,191.7716,192.7714,,,,,,,,,,,,,,,,,,,,,,,,,,192.7714,193.4173,z,1,0.6377,,193.4173,193.4174,,0,24,24,285,1,286,iklon,,,,,5,notharmonic,1.85,nw,z,,,,,,,
,,,,,,,,,,,Meriç Sarıkaya,001,2023-11-07_23h27.12.425,vowel_harmony,2023.2.3,Win32,144.0092166,193.4175,194.4172,,,,,,,,,,,,,,,,,,,,,,,,,,194.4172,194.8478,m,1,0.4268,,194.8478,194.8479,,0,25,25,144,1,145,garip,2567,116.6343,2355,0.2574,5,notharmonic,1.65,word,m,,,,,,,
,,,,,,,,,,,Meriç Sarıkaya,001,2023-11-07_23h27.12.425,vowel_harmony,2023.2.3,Win32,144.0092166,194.848,195.8478,,,,,,,,,,,,,,,,,,,,,,,,,,195.8478,196.3895,z,1,0.5382,,196.3895,196.3895,,0,26,26,293,1,294,esnan,,,,,5,notharmonic,1.85,nw,z,,,,,,,
,,,,,,,,,,,Meriç Sarıkaya,001,2023-11-07_23h27.12.425,vowel_harmony,2023.2.3,Win32,144.0092166,196.3897,197.3895,,,,,,,,,,,,,,,,,,,,,,,,,,197.3895,197.8479,m,1,0.4498,,197.8479,197.8479,,0,27,27,50,1,51,kanun,1198,54.4324,1010,0.1104,5,harmonic,1.6,word,m,,,,,,,
,,,,,,,,,,,Meriç Sarıkaya,001,2023-11-07_23h27.12.425,vowel_harmony,2023.2.3,Win32,144.0092166,197.8481,198.8478,,,,,,,,,,,,,,,,,,,,,,,,,,198.8478,199.2715,m,1,0.4142,,199.2715,199.2715,,0,28,28,128,1,129,tatil,2152,97.7783,1865,0.2039,5,notharmonic,1.7,word,m,,,,,,,
,,,,,,,,,,,Meriç Sarıkaya,001,2023-11-07_23h27.12.425,vowel_harmony,2023.2.3,Win32,144.0092166,199.2717,200.2714,,,,,,,,,,,,,,,,,,,,,,,,,,200.2714,200.6742,m,1,0.3996,,200.6742,200.6743,,0,29,29,146,1,147,mavi,2206,100.2319,1934,0.2114,4,notharmonic,1.45,word,m,,,,,,,
,,,,,,,,,,,Meriç Sarıkaya,001,2023-11-07_23h27.12.425,vowel_harmony,2023.2.3,Win32,144.0092166,200.6744,201.6743,,,,,,,,,,,,,,,,,,,,,,,,,,201.6743,202.1257,m,1,0.4429,,202.1257,202.1258,,0,30,30,98,1,99,paket,1532,69.608,1392,0.1522,5,notharmonic,1.55,word,m,,,,,,,
,,,,,,,,,,,Meriç Sarıkaya,001,2023-11-07_23h27.12.425,vowel_harmony,2023.2.3,Win32,144.0092166,202.1259,203.1257,,,,,,,,,,,,,,,,,,,,,,,,,,203.1257,203.584,z,1,0.4522,,203.5841,203.5841,,0,31,31,305,1,306,tamü,,,,,4,notharmonic,1.75,nw,z,,,,,,,
,,,,,,,,,,,Meriç Sarıkaya,001,2023-11-07_23h27.12.425,vowel_harmony,2023.2.3,Win32,144.0092166,203.5843,204.5839,,,,,,,,,,,,,,,,,,,,,,,,,,204.5839,205.0562,z,1,0.4641,,205.0562,205.0562,,0,32,32,226,1,227,tefem,,,,,5,harmonic,1.75,nw,z,,,,,,,
,,,,,,,,,,,Meriç Sarıkaya,001,2023-11-07_23h27.12.425,vowel_harmony,2023.2.3,Win32,144.0092166,205.0564,206.0562,,,,,,,,,,,,,,,,,,,,,,,,,,206.0562,206.466,m,1,0.4047,,206.466,206.466,,0,33,33,38,1,39,dönem,2820,128.1296,2437,0.2664,5,harmonic,1.4,word,m,,,,,,,
,,,,,,,,,,,Meriç Sarıkaya,001,2023-11-07_23h27.12.425,vowel_harmony,2023.2.3,Win32,144.0092166,206.4661,207.466,,,,,,,,,,,,,,,,,,,,,,,,,,207.466,207.9034,m,1,0.4327,,207.9034,207.9035,,0,34,34,24,1,25,yorgun,1153,52.3877,1108,0.1211,6,harmonic,1.55,word,m,,,,,,,
,,,,,,,,,,,Meriç Sarıkaya,001,2023-11-07_23h27.12.425,vowel_harmony,2023.2.3,Win32,144.0092166,207.9037,208.9034,,,,,,,,,,,,,,,,,,,,,,,,,,208.9034,209.2854,m,1,0.3785,,209.2854,209.2855,,0,35,35,11,1,12,umut,1988,90.3268,1818,0.1987,4,harmonic,1.55,word,m,,,,,,,
,,,,,,,,,,,Meriç Sarıkaya,001,2023-11-07_23h27.12.425,vowel_harmony,2023.2.3,Win32,144.0092166,209.2857,210.2854,,,,,,,,,,,,,,,,,,,,,,,,,,210.2854,210.6535,z,0,0.3605,,210.6535,210.6535,,0,36,36,17,1,18,yakın,7990,363.0339,7595,0.8303,5,harmonic,1.8,word,m,,,,,,,
,,,,,,,,,,,Meriç Sarıkaya,001,2023-11-07_23h27.12.425,vowel_harmony,2023.2.3,Win32,144.0092166,210.6537,211.6534,,,,,,,,,,,,,,,,,,,,,,,,,,211.6535,212.0563,m,1,0.3993,,212.0563,212.0564,,0,37,37,177,1,178,tekrar,10788,490.1639,9352,1.0224,6,notharmonic,1.85,word,m,,,,,,,
,,,,,,,,,,,Meriç Sarıkaya,001,2023-11-07_23h27.12.425,vowel_harmony,2023.2.3,Win32,144.0092166,212.0565,213.0563,,,,,,,,,,,,,,,,,,,,,,,,,,213.0563,213.5771,z,1,0.5157,,213.5772,213.5772,,0,38,38,341,1,342,işgan,,,,,5,notharmonic,1.95,nw,z,,,,,,,
,,,,,,,,,,,Meriç Sarıkaya,001,2023-11-07_23h27.12.425,vowel_harmony,2023.2.3,Win32,144.0092166,213.5773,214.577,,,,,,,,,,,,,,,,,,,,,,,,,,214.577,214.9451,m,1,0.3591,,214.9452,214.9452,,0,39,39,84,1,85,ülke,3121,141.8059,2801,0.3062,4,harmonic,1.65,word,m,,,,,,,
,,,,,,,,,,,Meriç Sarıkaya,001,2023-11-07_23h27.12.425,vowel_harmony,2023.2.3,Win32,144.0092166,214.9454,215.9452,,,,,,,,,,,,,,,,,,,,,,,,,,215.9452,216.4313,z,1,0.4786,,216.4313,216.4314,,0,40,40,279,1,280,tadde,,,,,5,notharmonic,1.8,nw,z,,,,,,,
,,,,,,,,,,,Meriç Sarıkaya,001,2023-11-07_23h27.12.425,vowel_harmony,2023.2.3,Win32,144.0092166,216.4315,217.4312,,,,,,,,,,,,,,,,,,,,,,,,,,217.4312,217.8271,m,1,0.3895,,217.8271,217.8272,,0,41,41,166,1,167,maden,402,18.2653,339,0.0371,5,notharmonic,1.45,word,m,,,,,,,
,,,,,,,,,,,Meriç Sarıkaya,001,2023-11-07_23h27.12.425,vowel_harmony,2023.2.3,Win32,144.0092166,217.8273,218.8271,,,,,,,,,,,,,,,,,,,,,,,,,,218.8271,219.2091,m,1,0.3749,,219.2091,219.2092,,0,42,42,79,1,80,durum,6783,308.1926,6431,0.703,5,harmonic,1.7,word,m,,,,,,,
,,,,,,,,,,,Meriç Sarıkaya,001,2023-11-07_23h27.12.425,vowel_harmony,2023.2.3,Win32,144.0092166,219.2093,220.209,,,,,,,,,,,,,,,,,,,,,,,,,,220.2091,220.6465,z,1,0.4334,,220.6466,220.6467,,0,43,43,313,1,314,ikas,,,,,4,notharmonic,1.85,nw,z,,,,,,,
,,,,,,,,,,,Meriç Sarıkaya,001,2023-11-07_23h27.12.425,vowel_harmony,2023.2.3,Win32,144.0092166,220.6468,221.6465,,,,,,,,,,,,,,,,,,,,,,,,,,221.6466,221.9938,m,1,0.3408,,221.9938,221.9939,,0,44,44,18,1,19,normal,4154,188.7413,3788,0.4141,6,harmonic,1.75,word,m,,,,,,,
,,,,,,,,,,,Meriç Sarıkaya,001,2023-11-07_23h27.12.425,vowel_harmony,2023.2.3,Win32,144.0092166,221.994,222.9938,,,,,,,,,,,,,,,,,,,,,,,,,,222.9938,223.3133,m,1,0.3131,,223.3133,223.3133,,0,45,45,88,1,89,yalnız,5891,267.6637,5440,0.5947,6,harmonic,1.6,word,m,,,,,,,
,,,,,,,,,,,Meriç Sarıkaya,001,2023-11-07_23h27.12.425,vowel_harmony,2023.2.3,Win32,144.0092166,223.3135,224.3133,,,,,,,,,,,,,,,,,,,,,,,,,,224.3133,224.8133,z,1,0.4911,,224.8133,224.8133,,0,46,46,355,1,356,adül,,,,,4,notharmonic,1.85,nw,z,,,,,,,
,,,,,,,,,,,Meriç Sarıkaya,001,2023-11-07_23h27.12.425,vowel_harmony,2023.2.3,Win32,144.0092166,224.8134,225.8132,,,,,,,,,,,,,,,,,,,,,,,,,,225.8132,226.1188,m,1,0.3017,,226.1188,226.1188,,0,47,47,28,1,29,parlak,1142,51.888,1088,0.1189,6,harmonic,1.7,word,m,,,,,,,
,,,,,,,,,,,Meriç Sarıkaya,001,2023-11-07_23h27.12.425,vowel_harmony,2023.2.3,Win32,144.0092166,226.119,227.1188,,,,,,,,,,,,,,,,,,,,,,,,,,227.1188,227.466,m,1,0.3426,,227.466,227.4661,,0,48,48,153,1,154,inşaat,432,19.6284,376,0.0411,6,notharmonic,1.6,word,m,,,,,,,
,,,,,,,,,,,Meriç Sarıkaya,001,2023-11-07_23h27.12.425,vowel_harmony,2023.2.3,Win32,144.0092166,227.4662,228.466,,,,,,,,,,,,,,,,,,,,,,,,,,228.466,228.7993,m,0,0.3258,,228.7994,228.7995,,0,49,49,321,1,322,makih,,,,,5,notharmonic,1.8,nw,z,,,,,,,
,,,,,,,,,,,Meriç Sarıkaya,001,2023-11-07_23h27.12.425,vowel_harmony,2023.2.3,Win32,144.0092166,228.7996,229.7994,,,,,,,,,,,,,,,,,,,,,,,,,,229.7994,230.1396,m,1,0.3364,,230.1396,230.1396,,0,50,50,109,1,110,milyon,3936,178.8362,2958,0.3234,6,notharmonic,1.75,word,m,,,,,,,
,,,,,,,,,,,Meriç Sarıkaya,001,2023-11-07_23h27.12.425,vowel_harmony,2023.2.3,Win32,144.0092166,230.1399,231.1397,,,,,,,,,,,,,,,,,,,,,,,,,,231.1397,231.5008,z,1,0.3587,,231.5008,231.5009,,0,51,51,265,1,266,parula,,,,,6,harmonic,1.75,nw,z,,,,,,,
,,,,,,,,,,,Meriç Sarıkaya,001,2023-11-07_23h27.12.425,vowel_harmony,2023.2.3,Win32,144.0092166,231.501,232.5008,,,,,,,,,,,,,,,,,,,,,,,,,,232.5008,232.8271,m,1,0.3229,,232.8272,232.8272,,0,52,52,121,1,122,mesaj,1604,72.8794,1386,0.1515,5,notharmonic,1.8,word,m,,,,,,,
,,,,,,,,,,,Meriç Sarıkaya,001,2023-11-07_23h27.12.425,vowel_harmony,2023.2.3,Win32,144.0092166,232.8273,233.8272,,,,,,,,,,,,,,,,,,,,,,,,,,233.8272,234.3272,z,1,0.4947,,234.3272,234.3272,,0,53,53,254,1,255,millek,,,,,6,harmonic,1.8,nw,z,,,,,,,
,,,,,,,,,,,Meriç Sarıkaya,001,2023-11-07_23h27.12.425,vowel_harmony,2023.2.3,Win32,144.0092166,234.3274,235.3272,,,,,,,,,,,,,,,,,,,,,,,,,,235.3272,235.8758,z,1,0.5411,,235.8758,235.8758,,0,54,54,187,1,188,remrin,,,,,6,harmonic,1.9,nw,z,,,,,,,
,,,,,,,,,,,Meriç Sarıkaya,001,2023-11-07_23h27.12.425,vowel_harmony,2023.2.3,Win32,144.0092166,235.876,236.8758,,,,,,,,,,,,,,,,,,,,,,,,,,236.8758,237.3759,z,1,0.4907,,237.3759,237.3759,,0,55,55,309,1,310,yorgen,,,,,6,notharmonic,1.9,nw,z,,,,,,,
,,,,,,,,,,,Meriç Sarıkaya,001,2023-11-07_23h27.12.425,vowel_harmony,2023.2.3,Win32,144.0092166,237.376,238.3758,,,,,,,,,,,,,,,,,,,,,,,,,,238.3758,238.6953,m,0,0.3108,,238.6953,238.6953,,0,56,56,291,1,292,mepan,,,,,5,notharmonic,1.75,nw,z,,,,,,,
,,,,,,,,,,,Meriç Sarıkaya,001,2023-11-07_23h27.12.425,vowel_harmony,2023.2.3,Win32,144.0092166,238.6955,239.6952,,,,,,,,,,,,,,,,,,,,,,,,,,239.6953,240.0772,m,1,0.3728,,240.0772,240.0773,,0,57,57,99,1,100,ilave,3173,144.1685,2619,0.2863,5,notharmonic,1.85,word,m,,,,,,,
,,,,,,,,,,,Meriç Sarıkaya,001,2023-11-07_23h27.12.425,vowel_harmony,2023.2.3,Win32,144.0092166,240.0774,241.0772,,,,,,,,,,,,,,,,,,,,,,,,,,241.0772,241.5077,z,1,0.4222,,241.5077,241.5078,,0,58,58,287,1,288,haköm,,,,,5,notharmonic,1.9,nw,z,,,,,,,
,,,,,,,,,,,Meriç Sarıkaya,001,2023-11-07_23h27.12.425,vowel_harmony,2023.2.3,Win32,144.0092166,241.5079,242.5077,,,,,,,,,,,,,,,,,,,,,,,,,,242.5078,242.9245,z,1,0.412,,242.9245,242.9245,,0,59,59,343,1,344,tarne,,,,,5,notharmonic,1.85,nw,z,,,,,,,
,,,,,,,,,,,Meriç Sarıkaya,001,2023-11-07_23h27.12.425,vowel_harmony,2023.2.3,Win32,144.0092166,242.9247,243.9244,,,,,,,,,,,,,,,,,,,,,,,,,,243.9244,244.2926,m,1,0.3614,,244.2926,244.2926,,0,60,60,5,1,6,bebek,3301,149.9843,2794,0.3054,5,harmonic,1.6,word,m,,,,,,,
,,,,,,,,,,,Meriç Sarıkaya,001,2023-11-07_23h27.12.425,vowel_harmony,2023.2.3,Win32,144.0092166,244.2928,245.2925,,,,,,,,,,,,,,,,,,,,,,,,,,245.2925,245.6745,m,1,0.3733,,245.6745,245.6746,,0,61,61,7,1,8,hizmet,3023,137.3531,2689,0.294,6,harmonic,1.75,word,m,,,,,,,
,,,,,,,,,,,Meriç Sarıkaya,001,2023-11-07_23h27.12.425,vowel_harmony,2023.2.3,Win32,144.0092166,245.6747,246.6745,,,,,,,,,,,,,,,,,,,,,,,,,,246.6745,247.0912,z,1,0.4098,,247.0912,247.0912,,0,62,62,258,1,259,karıha,,,,,6,harmonic,1.75,nw,z,,,,,,,
,,,,,,,,,,,Meriç Sarıkaya,001,2023-11-07_23h27.12.425,vowel_harmony,2023.2.3,Win32,144.0092166,247.0913,248.0912,,,,,,,,,,,,,,,,,,,,,,,,,,248.0912,248.4592,m,1,0.3618,,248.4593,248.4593,,0,63,63,103,1,104,tane,5623,255.4868,5075,0.5548,4,notharmonic,1.3,word,m,,,,,,,
,,,,,,,,,,,Meriç Sarıkaya,001,2023-11-07_23h27.12.425,vowel_harmony,2023.2.3,Win32,144.0092166,248.4594,249.4592,,,,,,,,,,,,,,,,,,,,,,,,,,249.4592,249.7788,z,1,0.3163,,249.7788,249.7788,,0,64,64,296,1,297,işban,,,,,5,notharmonic,1.95,nw,z,,,,,,,
,,,,,,,,,,,Meriç Sarıkaya,001,2023-11-07_23h27.12.425,vowel_harmony,2023.2.3,Win32,144.0092166,249.779,250.7786,,,,,,,,,,,,,,,,,,,,,,,,,,250.7787,251.0564,m,1,0.271,,251.0564,251.0565,,0,65,65,37,1,38,hayvan,2363,107.3653,1894,0.2071,6,harmonic,1.5,word,m,,,,,,,
,,,,,,,,,,,Meriç Sarıkaya,001,2023-11-07_23h27.12.425,vowel_harmony,2023.2.3,Win32,144.0092166,251.0567,252.0564,,,,,,,,,,,,,,,,,,,,,,,,,,252.0564,252.3619,z,1,0.3016,,252.3619,252.362,,0,66,66,329,1,330,taif,,,,,4,notharmonic,1.8,nw,z,,,,,,,
,,,,,,,,,,,Meriç Sarıkaya,001,2023-11-07_23h27.12.425,vowel_harmony,2023.2.3,Win32,144.0092166,252.3622,253.362,,,,,,,,,,,,,,,,,,,,,,,,,,253.362,253.5773,m,0,0.2068,,253.5773,253.5774,,0,67,67,222,1,223,gelü,,,,,4,harmonic,1.75,nw,z,,,,,,,
,,,,,,,,,,,Meriç Sarıkaya,001,2023-11-07_23h27.12.425,vowel_harmony,2023.2.3,Win32,144.0092166,253.5775,254.5773,,,,,,,,,,,,,,,,,,,,,,,,,,254.5773,254.8412,m,0,0.2545,,254.8412,254.8412,,0,68,68,196,1,197,bilön,,,,,5,harmonic,1.9,nw,z,,,,,,,
,,,,,,,,,,,Meriç Sarıkaya,001,2023-11-07_23h27.12.425,vowel_harmony,2023.2.3,Win32,144.0092166,254.8413,255.8412,,,,,,,,,,,,,,,,,,,,,,,,,,255.8412,256.1329,z,1,0.2874,,256.1329,256.133,,0,69,69,256,1,257,yaruza,,,,,6,harmonic,1.9,nw,z,,,,,,,
,,,,,,,,,,,Meriç Sarıkaya,001,2023-11-07_23h27.12.425,vowel_harmony,2023.2.3,Win32,144.0092166,256.1331,257.1329,,,,,,,,,,,,,,,,,,,,,,,,,,257.1329,257.4523,m,0,0.3108,,257.4523,257.4523,,0,70,70,330,1,331,vahçe,,,,,5,notharmonic,1.9,nw,z,,,,,,,
,,,,,,,,,,,Meriç Sarıkaya,001,2023-11-07_23h27.12.425,vowel_harmony,2023.2.3,Win32,144.0092166,257.4526,258.4522,,,,,,,,,,,,,,,,,,,,,,,,,,258.4523,258.7301,z,1,0.2751,,258.7301,258.7301,,0,71,71,277,1,278,balsin,,,,,6,notharmonic,1.85,nw,z,,,,,,,
,,,,,,,,,,,Meriç Sarıkaya,001,2023-11-07_23h27.12.425,vowel_harmony,2023.2.3,Win32,144.0092166,258.7303,259.73,,,,,,,,,,,,,,,,,,,,,,,,,,259.7301,259.9801,z,0,0.2409,,259.9801,259.9801,,0,72,72,43,1,44,geniş,3380,153.5738,3185,0.3482,5,harmonic,1.35,word,m,,,,,,,
,,,,,,,,,,,Meriç Sarıkaya,001,2023-11-07_23h27.12.425,vowel_harmony,2023.2.3,Win32,144.0092166,259.9803,260.98,,,,,,,,,,,,,,,,,,,,,,,,,,260.9801,261.2648,m,0,0.2796,,261.2649,261.2649,,0,73,73,267,1,268,nokuma,,,,,6,harmonic,1.75,nw,z,,,,,,,
,,,,,,,,,,,Meriç Sarıkaya,001,2023-11-07_23h27.12.425,vowel_harmony,2023.2.3,Win32,144.0092166,261.265,262.2648,,,,,,,,,,,,,,,,,,,,,,,,,,262.2649,262.5218,z,0,0.251,,262.5218,262.5219,,0,74,74,171,1,172,reklam,1565,71.1074,1244,0.136,6,notharmonic,1.9,word,m,,,,,,,
,,,,,,,,,,,Meriç Sarıkaya,001,2023-11-07_23h27.12.425,vowel_harmony,2023.2.3,Win32,144.0092166,262.522,263.5218,,,,,,,,,,,,,,,,,,,,,,,,,,263.5218,264.0287,z,1,0.498,,264.0287,264.0287,,0,75,75,192,1,193,vecö,,,,,4,harmonic,1.95,nw,z,,,,,,,
,,,,,,,,,,,Meriç Sarıkaya,001,2023-11-07_23h27.12.425,vowel_harmony,2023.2.3,Win32,144.0092166,264.029,265.0287,,,,,,,,,,,,,,,,,,,,,,,,,,265.0288,265.4663,z,1,0.4299,,265.4663,265.4663,,0,76,76,248,1,249,şegim,,,,,5,harmonic,1.9,nw,z,,,,,,,
,,,,,,,,,,,Meriç Sarıkaya,001,2023-11-07_23h27.12.425,vowel_harmony,2023.2.3,Win32,144.0092166,265.4664,266.4662,,,,,,,,,,,,,,,,,,,,,,,,,,266.4663,266.7996,z,1,0.3271,,266.7996,266.7997,,0,77,77,227,1,228,zekö,,,,,4,harmonic,1.9,nw,z,,,,,,,
,,,,,,,,,,,Meriç Sarıkaya,001,2023-11-07_23h27.12.425,vowel_harmony,2023.2.3,Win32,144.0092166,266.7998,267.7996,,,,,,,,,,,,,,,,,,,,,,,,,,267.7996,268.1468,z,0,0.3426,,268.1468,268.1469,,0,78,78,117,1,118,nasip,1069,48.5711,1042,0.1139,5,notharmonic,1.8,word,m,,,,,,,
,,,,,,,,,,,Meriç Sarıkaya,001,2023-11-07_23h27.12.425,vowel_harmony,2023.2.3,Win32,144.0092166,268.147,269.1468,,,,,,,,,,,,,,,,,,,,,,,,,,269.1468,269.5079,z,0,0.3528,,269.5079,269.5079,,0,79,79,119,1,120,kulüp,649,29.488,467,0.0511,5,notharmonic,1.4,word,m,,,,,,,
,,,,,,,,,,,Meriç Sarıkaya,001,2023-11-07_23h27.12.425,vowel_harmony,2023.2.3,Win32,144.0092166,269.5081,270.5079,,,,,,,,,,,,,,,,,,,,,,,,,,270.5079,270.8412,m,1,0.3289,,270.8412,270.8412,,0,80,80,91,1,92,ifade,6177,280.6584,5726,0.626,5,notharmonic,1.7,word,m,,,,,,,
,,,,,,,,,,,Meriç Sarıkaya,001,2023-11-07_23h27.12.425,vowel_harmony,2023.2.3,Win32,144.0092166,270.8414,271.8413,,,,,,,,,,,,,,,,,,,,,,,,,,271.8413,272.2371,m,1,0.3929,,272.2372,272.2372,,0,81,81,129,1,130,tahmin,2353,106.911,2273,0.2485,6,notharmonic,1.6,word,m,,,,,,,
,,,,,,,,,,,Meriç Sarıkaya,001,2023-11-07_23h27.12.425,vowel_harmony,2023.2.3,Win32,144.0092166,272.2373,273.2371,,,,,,,,,,,,,,,,,,,,,,,,,,273.2371,273.5566,m,1,0.3117,,273.5566,273.5566,,0,82,82,82,1,83,aday,1028,46.7082,873,0.0954,4,harmonic,1.45,word,m,,,,,,,
,,,,,,,,,,,Meriç Sarıkaya,001,2023-11-07_23h27.12.425,vowel_harmony,2023.2.3,Win32,144.0092166,273.5568,274.5566,,,,,,,,,,,,,,,,,,,,,,,,,,274.5566,274.9177,m,1,0.3587,,274.9177,274.9177,,0,83,83,114,1,115,nisan,2321,105.457,2044,0.2235,5,notharmonic,1.6,word,m,,,,,,,
,,,,,,,,,,,Meriç Sarıkaya,001,2023-11-07_23h27.12.425,vowel_harmony,2023.2.3,Win32,144.0092166,274.9179,275.9176,,,,,,,,,,,,,,,,,,,,,,,,,,275.9176,276.1885,m,1,0.2617,,276.1885,276.1885,,0,84,84,16,1,17,yavaş,5087,231.1331,2886,0.3155,5,harmonic,1.6,word,m,,,,,,,
,,,,,,,,,,,Meriç Sarıkaya,001,2023-11-07_23h27.12.425,vowel_harmony,2023.2.3,Win32,144.0092166,276.1887,277.1885,,,,,,,,,,,,,,,,,,,,,,,,,,277.1885,277.4246,m,0,0.231,,277.4247,277.4248,,0,85,85,276,1,277,iptap,,,,,5,notharmonic,1.95,nw,z,,,,,,,
,,,,,,,,,,,Meriç Sarıkaya,001,2023-11-07_23h27.12.425,vowel_harmony,2023.2.3,Win32,144.0092166,277.4249,278.4246,,,,,,,,,,,,,,,,,,,,,,,,,,278.4246,278.8204,m,1,0.3898,,278.8204,278.8205,,0,86,86,77,1,78,ufak,3252,147.758,2980,0.3258,4,harmonic,1.5,word,m,,,,,,,
,,,,,,,,,,,Meriç Sarıkaya,001,2023-11-07_23h27.12.425,vowel_harmony,2023.2.3,Win32,144.0092166,278.8207,279.8205,,,,,,,,,,,,,,,,,,,,,,,,,,279.8205,280.1607,m,1,0.3322,,280.1607,280.1608,,0,87,87,124,1,125,ilan,1579,71.7435,1499,0.1639,4,notharmonic,1,word,m,,,,,,,
,,,,,,,,,,,Meriç Sarıkaya,001,2023-11-07_23h27.12.425,vowel_harmony,2023.2.3,Win32,144.0092166,280.161,281.1607,,,,,,,,,,,,,,,,,,,,,,,,,,281.1608,281.5913,z,1,0.4235,,281.5913,281.5914,,0,88,88,251,1,252,oştay,,,,,5,harmonic,1.95,nw,z,,,,,,,
,,,,,,,,,,,Meriç Sarıkaya,001,2023-11-07_23h27.12.425,vowel_harmony,2023.2.3,Win32,144.0092166,281.5915,282.5913,,,,,,,,,,,,,,,,,,,,,,,,,,282.5913,282.89,m,1,0.2929,,282.89,282.89,,0,89,89,115,1,116,saniye,1088,49.4344,984,0.1076,6,notharmonic,1.35,word,m,,,,,,,
,,,,,,,,,,,Meriç Sarıkaya,001,2023-11-07_23h27.12.425,vowel_harmony,2023.2.3,Win32,144.0092166,282.8901,283.8899,,,,,,,,,,,,,,,,,,,,,,,,,,283.8899,284.1677,m,1,0.2694,,284.1678,284.1678,,0,90,90,74,1,75,başarı,1398,63.5196,1300,0.1421,6,harmonic,1.2,word,m,,,,,,,
,,,,,,,,,,,Meriç Sarıkaya,001,2023-11-07_23h27.12.425,vowel_harmony,2023.2.3,Win32,144.0092166,284.1679,285.1677,,,,,,,,,,,,,,,,,,,,,,,,,,285.1677,285.5705,z,1,0.3951,,285.5705,285.5706,,0,91,91,215,1,216,aydo,,,,,4,harmonic,1.9,nw,z,,,,,,,
,,,,,,,,,,,Meriç Sarıkaya,001,2023-11-07_23h27.12.425,vowel_harmony,2023.2.3,Win32,144.0092166,285.5707,286.5704,,,,,,,,,,,,,,,,,,,,,,,,,,286.5704,286.8344,m,1,0.2557,,286.8344,286.8344,,0,92,92,44,1,45,kayıt,1234,56.0681,1058,0.1157,5,harmonic,1.35,word,m,,,,,,,
,,,,,,,,,,,Meriç Sarıkaya,001,2023-11-07_23h27.12.425,vowel_harmony,2023.2.3,Win32,144.0092166,286.8346,287.8344,,,,,,,,,,,,,,,,,,,,,,,,,,287.8344,288.126,m,1,0.2885,,288.126,288.1261,,0,93,93,167,1,168,adalet,1611,73.1975,1388,0.1517,6,notharmonic,1.65,word,m,,,,,,,
,,,,,,,,,,,Meriç Sarıkaya,001,2023-11-07_23h27.12.425,vowel_harmony,2023.2.3,Win32,144.0092166,288.1263,289.1261,,,,,,,,,,,,,,,,,,,,,,,,,,289.1261,289.4317,m,1,0.3002,,289.4317,289.4317,,0,94,94,120,1,121,ihmal,1002,45.5269,977,0.1068,5,notharmonic,1.65,word,m,,,,,,,
,,,,,,,,,,,Meriç Sarıkaya,001,2023-11-07_23h27.12.425,vowel_harmony,2023.2.3,Win32,144.0092166,289.4318,290.4316,,,,,,,,,,,,,,,,,,,,,,,,,,290.4317,290.7302,m,0,0.2922,,290.7302,290.7303,,0,95,95,224,1,225,ertre,,,,,5,harmonic,1.95,nw,z,,,,,,,
,,,,,,,,,,,Meriç Sarıkaya,001,2023-11-07_23h27.12.425,vowel_harmony,2023.2.3,Win32,144.0092166,290.7305,291.7302,,,,,,,,,,,,,,,,,,,,,,,,,,291.7302,292.0497,m,1,0.3149,,292.0497,292.0497,,0,96,96,63,1,64,sultan,1756,79.7857,1368,0.1496,6,harmonic,1.55,word,m,,,,,,,
,,,,,,,,,,,Meriç Sarıkaya,001,2023-11-07_23h27.12.425,vowel_harmony,2023.2.3,Win32,144.0092166,292.0499,293.0497,,,,,,,,,,,,,,,,,,,,,,,,,,293.0497,293.3621,m,1,0.3076,,293.3621,293.3622,,0,97,97,132,1,133,modern,2326,105.6842,2031,0.222,6,notharmonic,1.85,word,m,,,,,,,
,,,,,,,,,,,Meriç Sarıkaya,001,2023-11-07_23h27.12.425,vowel_harmony,2023.2.3,Win32,144.0092166,293.3624,294.3622,,,,,,,,,,,,,,,,,,,,,,,,,,294.3622,294.6747,m,1,0.3061,,294.6747,294.6748,,0,98,98,137,1,138,parti,2613,118.7244,2059,0.2251,5,notharmonic,1.8,word,m,,,,,,,
,,,,,,,,,,,Meriç Sarıkaya,001,2023-11-07_23h27.12.425,vowel_harmony,2023.2.3,Win32,144.0092166,294.675,295.6747,,,,,,,,,,,,,,,,,,,,,,,,,,295.6747,295.9386,m,0,0.259,,295.9386,295.9386,,0,99,99,216,1,217,çeyret,,,,,6,harmonic,1.9,nw,z,,,,,,,
,,,,,,,,,,,Meriç Sarıkaya,001,2023-11-07_23h27.12.425,vowel_harmony,2023.2.3,Win32,144.0092166,295.9388,296.9386,,,,,,,,,,,,,,,,,,,,,,,,,,296.9386,297.4872,z,1,0.5442,,297.4872,297.4872,,0,100,100,310,1,311,yandeş,,,,,6,notharmonic,1.95,nw,z,,,,,,,
,,,,,,,,,,,Meriç Sarıkaya,001,2023-11-07_23h27.12.425,vowel_harmony,2023.2.3,Win32,144.0092166,297.4874,298.4872,,,,,,,,,,,,,,,,,,,,,,,,,,298.4872,298.8136,m,1,0.3175,,298.8137,298.8137,,0,101,101,29,1,30,huzur,1911,86.8283,1799,0.1967,5,harmonic,1.8,word,m,,,,,,,
,,,,,,,,,,,Meriç Sarıkaya,001,2023-11-07_23h27.12.425,vowel_harmony,2023.2.3,Win32,144.0092166,298.8138,299.8136,,,,,,,,,,,,,,,,,,,,,,,,,,299.8136,300.0983,m,1,0.2785,,300.0983,300.0983,,0,102,102,58,1,59,ayak,2143,97.3694,1931,0.2111,4,harmonic,1,word,m,,,,,,,
,,,,,,,,,,,Meriç Sarıkaya,001,2023-11-07_23h27.12.425,vowel_harmony,2023.2.3,Win32,144.0092166,300.0985,301.0983,,,,,,,,,,,,,,,,,,,,,,,,,,301.0984,301.4664,z,1,0.3593,,301.4664,301.4664,,0,103,103,326,1,327,ailo,,,,,4,notharmonic,1.75,nw,z,,,,,,,
,,,,,,,,,,,Meriç Sarıkaya,001,2023-11-07_23h27.12.425,vowel_harmony,2023.2.3,Win32,144.0092166,301.4666,302.4664,,,,,,,,,,,,,,,,,,,,,,,,,,302.4664,302.7026,m,1,0.2274,,302.7026,302.7026,,0,104,104,68,1,69,ücret,734,33.35,634,0.0693,5,harmonic,1.85,word,m,,,,,,,
,,,,,,,,,,,Meriç Sarıkaya,001,2023-11-07_23h27.12.425,vowel_harmony,2023.2.3,Win32,144.0092166,302.7027,303.7025,,,,,,,,,,,,,,,,,,,,,,,,,,303.7025,304.1192,m,0,0.4099,,304.1192,304.1192,,0,105,105,252,1,253,anlgı,,,,,5,harmonic,1.9,nw,z,,,,,,,
,,,,,,,,,,,Meriç Sarıkaya,001,2023-11-07_23h27.12.425,vowel_harmony,2023.2.3,Win32,144.0092166,304.1194,305.1192,,,,,,,,,,,,,,,,,,,,,,,,,,305.1192,305.4109,m,0,0.2861,,305.4109,305.4109,,0,106,106,182,1,183,orsın,,,,,5,harmonic,1.95,nw,z,,,,,,,
,,,,,,,,,,,Meriç Sarıkaya,001,2023-11-07_23h27.12.425,vowel_harmony,2023.2.3,Win32,144.0092166,305.411,306.4108,,,,,,,,,,,,,,,,,,,,,,,,,,306.4109,306.7096,m,0,0.2921,,306.7096,306.7097,,0,107,107,183,1,184,orkın,,,,,5,harmonic,1.9,nw,z,,,,,,,
,,,,,,,,,,,Meriç Sarıkaya,001,2023-11-07_23h27.12.425,vowel_harmony,2023.2.3,Win32,144.0092166,306.7098,307.7094,,,,,,,,,,,,,,,,,,,,,,,,,,307.7095,308.0083,z,0,0.2895,,308.0083,308.0083,,0,108,108,36,1,37,meslek,1082,49.1618,976,0.1067,6,harmonic,1.9,word,m,,,,,,,
,,,,,,,,,,,Meriç Sarıkaya,001,2023-11-07_23h27.12.425,vowel_harmony,2023.2.3,Win32,144.0092166,308.0085,309.0081,,,,,,,,,,,,,,,,,,,,,,,,,,309.0081,309.3692,m,0,0.3547,,309.3692,309.3692,,0,109,109,280,1,281,adalek,,,,,6,notharmonic,1.85,nw,z,,,,,,,
,,,,,,,,,,,Meriç Sarıkaya,001,2023-11-07_23h27.12.425,vowel_harmony,2023.2.3,Win32,144.0092166,309.3694,310.3692,,,,,,,,,,,,,,,,,,,,,,,,,,310.3693,310.8623,z,1,0.4843,,310.8623,310.8623,,0,110,110,223,1,224,kakon,,,,,5,harmonic,1.85,nw,z,,,,,,,
,,,,,,,,,,,Meriç Sarıkaya,001,2023-11-07_23h27.12.425,vowel_harmony,2023.2.3,Win32,144.0092166,310.8625,311.8622,,,,,,,,,,,,,,,,,,,,,,,,,,311.8622,312.2928,m,1,0.4254,,312.2928,312.2929,,0,111,111,47,1,48,kaza,740,33.6227,679,0.0742,4,harmonic,1.85,word,m,,,,,,,
,,,,,,,,,,,Meriç Sarıkaya,001,2023-11-07_23h27.12.425,vowel_harmony,2023.2.3,Win32,144.0092166,312.2931,313.2928,,,,,,,,,,,,,,,,,,,,,,,,,,313.2928,313.6192,z,1,0.32,,313.6192,313.6193,,0,112,112,209,1,210,sapor,,,,,5,harmonic,1.8,nw,z,,,,,,,
,,,,,,,,,,,Meriç Sarıkaya,001,2023-11-07_23h27.12.425,vowel_harmony,2023.2.3,Win32,144.0092166,313.6195,314.6193,,,,,,,,,,,,,,,,,,,,,,,,,,314.6193,314.925,m,1,0.3026,,314.9251,314.9251,,0,113,113,0,1,1,sanat,3121,141.8059,2485,0.2717,5,harmonic,1.4,word,m,,,,,,,
,,,,,,,,,,,Meriç Sarıkaya,001,2023-11-07_23h27.12.425,vowel_harmony,2023.2.3,Win32,144.0092166,314.9252,315.9248,,,,,,,,,,,,,,,,,,,,,,,,,,315.9248,316.2512,m,0,0.3227,,316.2512,316.2513,,0,114,114,302,1,303,işgar,,,,,5,notharmonic,1.9,nw,z,,,,,,,
,,,,,,,,,,,Meriç Sarıkaya,001,2023-11-07_23h27.12.425,vowel_harmony,2023.2.3,Win32,144.0092166,316.2514,317.2512,,,,,,,,,,,,,,,,,,,,,,,,,,317.2512,317.7303,z,1,0.473,,317.7303,317.7304,,0,115,115,306,1,307,otet,,,,,4,notharmonic,1.95,nw,z,,,,,,,
,,,,,,,,,,,Meriç Sarıkaya,001,2023-11-07_23h27.12.425,vowel_harmony,2023.2.3,Win32,144.0092166,317.7306,318.7303,,,,,,,,,,,,,,,,,,,,,,,,,,318.7303,319.2651,m,1,0.5284,,319.2651,319.2651,,0,116,116,104,1,105,cevap,5232,237.7213,4822,0.5271,5,notharmonic,1.85,word,m,,,,,,,
,,,,,,,,,,,Meriç Sarıkaya,001,2023-11-07_23h27.12.425,vowel_harmony,2023.2.3,Win32,144.0092166,319.2653,320.2651,,,,,,,,,,,,,,,,,,,,,,,,,,320.2651,320.8276,z,1,0.5533,,320.8276,320.8276,,0,117,117,250,1,251,kakuk,,,,,5,harmonic,1.9,nw,z,,,,,,,
,,,,,,,,,,,Meriç Sarıkaya,001,2023-11-07_23h27.12.425,vowel_harmony,2023.2.3,Win32,144.0092166,320.8278,321.8276,,,,,,,,,,,,,,,,,,,,,,,,,,321.8276,322.2095,m,1,0.3759,,322.2095,322.2096,,0,118,118,169,1,170,hikaye,1555,70.653,1405,0.1536,6,notharmonic,1.8,word,m,,,,,,,
,,,,,,,,,,,Meriç Sarıkaya,001,2023-11-07_23h27.12.425,vowel_harmony,2023.2.3,Win32,144.0092166,322.2098,323.2096,,,,,,,,,,,,,,,,,,,,,,,,,,323.2096,323.5429,z,1,0.3301,,323.5429,323.5429,,0,119,119,273,1,274,nimal,,,,,5,notharmonic,1.9,nw,z,,,,,,,
,,,,,,,,,,,Meriç Sarıkaya,001,2023-11-07_23h27.12.425,vowel_harmony,2023.2.3,Win32,144.0092166,323.5432,324.5429,,,,,,,,,,,,,,,,,,,,,,,,,,324.5429,324.8415,m,1,0.2944,,324.8415,352.1681,space,0,120,120,163,1,164,limon,1658,75.3329,1481,0.1619,5,notharmonic,1.75,word,m,27.3215,,,,,,
,,,,,,,,,,,Meriç Sarıkaya,001,2023-11-07_23h27.12.425,vowel_harmony,2023.2.3,Win32,144.0092166,352.1733,353.175,,,,,,,,,,,,,,,,,,,,,,,,,,353.175,353.6819,z,1,0.499,,353.6819,353.682,,0,121,121,247,1,248,hafgın,,,,,6,harmonic,2,nw,z,,,,,,,
,,,,,,,,,,,Meriç Sarıkaya,001,2023-11-07_23h27.12.425,vowel_harmony,2023.2.3,Win32,144.0092166,353.6821,354.6819,,,,,,,,,,,,,,,,,,,,,,,,,,354.6819,355.0986,m,1,0.4082,,355.0986,355.0987,,0,122,122,61,1,62,yıldız,1775,80.649,1532,0.1675,6,harmonic,1.6,word,m,,,,,,,
,,,,,,,,,,,Meriç Sarıkaya,001,2023-11-07_23h27.12.425,vowel_harmony,2023.2.3,Win32,144.0092166,355.0989,356.0986,,,,,,,,,,,,,,,,,,,,,,,,,,356.0987,356.4736,m,1,0.371,,356.4736,356.4737,,0,123,123,10,1,11,bardak,1728,78.5135,1569,0.1715,6,harmonic,1.6,word,m,,,,,,,
,,,,,,,,,,,Meriç Sarıkaya,001,2023-11-07_23h27.12.425,vowel_harmony,2023.2.3,Win32,144.0092166,356.4738,357.4736,,,,,,,,,,,,,,,,,,,,,,,,,,357.4737,357.9112,z,1,0.432,,357.9112,357.9112,,0,124,124,325,1,326,garit,,,,,5,notharmonic,1.85,nw,z,,,,,,,
,,,,,,,,,,,Meriç Sarıkaya,001,2023-11-07_23h27.12.425,vowel_harmony,2023.2.3,Win32,144.0092166,357.9113,358.9111,,,,,,,,,,,,,,,,,,,,,,,,,,358.9111,359.2236,m,0,0.3054,,359.2237,359.2237,,0,125,125,288,1,289,molit,,,,,5,notharmonic,1.95,nw,z,,,,,,,
,,,,,,,,,,,Meriç Sarıkaya,001,2023-11-07_23h27.12.425,vowel_harmony,2023.2.3,Win32,144.0092166,359.2238,360.2236,,,,,,,,,,,,,,,,,,,,,,,,,,360.2237,360.5917,m,1,0.3609,,360.5917,360.5918,,0,126,126,135,1,136,hafif,3355,152.4379,3101,0.339,5,notharmonic,1.75,word,m,,,,,,,
,,,,,,,,,,,Meriç Sarıkaya,001,2023-11-07_23h27.12.425,vowel_harmony,2023.2.3,Win32,144.0092166,360.5918,361.5917,,,,,,,,,,,,,,,,,,,,,,,,,,361.5917,361.946,m,1,0.3485,,361.946,361.946,,0,127,127,111,1,112,kahve,2634,119.6785,2283,0.2496,5,notharmonic,1.85,word,m,,,,,,,
,,,,,,,,,,,Meriç Sarıkaya,001,2023-11-07_23h27.12.425,vowel_harmony,2023.2.3,Win32,144.0092166,361.9462,362.9459,,,,,,,,,,,,,,,,,,,,,,,,,,362.9459,363.2931,m,1,0.3405,,363.2931,363.2931,,0,128,128,131,1,132,hakim,1677,76.1962,1559,0.1704,5,notharmonic,1,word,m,,,,,,,
,,,,,,,,,,,Meriç Sarıkaya,001,2023-11-07_23h27.12.425,vowel_harmony,2023.2.3,Win32,144.0092166,363.2932,364.2931,,,,,,,,,,,,,,,,,,,,,,,,,,364.2931,364.6056,z,1,0.308,,364.6056,364.6057,,0,129,129,184,1,185,yapor,,,,,5,harmonic,1.9,nw,z,,,,,,,
,,,,,,,,,,,Meriç Sarıkaya,001,2023-11-07_23h27.12.425,vowel_harmony,2023.2.3,Win32,144.0092166,364.6058,365.6056,,,,,,,,,,,,,,,,,,,,,,,,,,365.6056,365.9182,m,0,0.303,,365.9182,365.9182,,0,130,130,358,1,359,yangin,,,,,6,notharmonic,1.9,nw,z,,,,,,,
,,,,,,,,,,,Meriç Sarıkaya,001,2023-11-07_23h27.12.425,vowel_harmony,2023.2.3,Win32,144.0092166,365.9183,366.9181,,,,,,,,,,,,,,,,,,,,,,,,,,366.9181,367.2584,m,1,0.3324,,367.2584,367.2584,,0,131,131,39,1,40,yaygın,1061,48.2076,1019,0.1114,6,harmonic,1.35,word,m,,,,,,,
,,,,,,,,,,,Meriç Sarıkaya,001,2023-11-07_23h27.12.425,vowel_harmony,2023.2.3,Win32,144.0092166,367.2586,368.2584,,,,,,,,,,,,,,,,,,,,,,,,,,368.2584,368.6963,z,1,0.4324,,368.6963,368.6963,,0,132,132,198,1,199,yarbız,,,,,6,harmonic,1.95,nw,z,,,,,,,
,,,,,,,,,,,Meriç Sarıkaya,001,2023-11-07_23h27.12.425,vowel_harmony,2023.2.3,Win32,144.0092166,368.6965,369.6959,,,,,,,,,,,,,,,,,,,,,,,,,,369.6959,370.0014,m,0,0.2983,,370.0014,370.0016,,0,133,133,264,1,265,vepü,,,,,4,harmonic,2,nw,z,,,,,,,
,,,,,,,,,,,Meriç Sarıkaya,001,2023-11-07_23h27.12.425,vowel_harmony,2023.2.3,Win32,144.0092166,370.0017,371.0015,,,,,,,,,,,,,,,,,,,,,,,,,,371.0015,371.4042,m,1,0.3981,,371.4043,371.4043,,0,134,134,70,1,71,yarın,3440,156.3,3222,0.3522,5,harmonic,1.85,word,m,,,,,,,
,,,,,,,,,,,Meriç Sarıkaya,001,2023-11-07_23h27.12.425,vowel_harmony,2023.2.3,Win32,144.0092166,371.4044,372.4042,,,,,,,,,,,,,,,,,,,,,,,,,,372.4042,372.689,z,1,0.2771,,372.689,372.689,,0,135,135,249,1,250,hurıt,,,,,5,harmonic,1.95,nw,z,,,,,,,
,,,,,,,,,,,Meriç Sarıkaya,001,2023-11-07_23h27.12.425,vowel_harmony,2023.2.3,Win32,144.0092166,372.6892,373.689,,,,,,,,,,,,,,,,,,,,,,,,,,373.689,373.9321,m,0,0.2341,,373.9321,373.9321,,0,136,136,232,1,233,kanur,,,,,5,harmonic,1.7,nw,z,,,,,,,
,,,,,,,,,,,Meriç Sarıkaya,001,2023-11-07_23h27.12.425,vowel_harmony,2023.2.3,Win32,144.0092166,373.9322,374.9321,,,,,,,,,,,,,,,,,,,,,,,,,,374.9321,375.5154,m,1,0.5738,,375.5154,375.5155,,0,137,137,172,1,173,milyar,1496,67.9723,1078,0.1178,6,notharmonic,1.85,word,m,,,,,,,
,,,,,,,,,,,Meriç Sarıkaya,001,2023-11-07_23h27.12.425,vowel_harmony,2023.2.3,Win32,144.0092166,375.5157,376.5153,,,,,,,,,,,,,,,,,,,,,,,,,,376.5153,377.0085,m,1,0.4874,,377.0085,377.0085,,0,138,138,179,1,180,dakika,5891,267.6637,5207,0.5692,6,notharmonic,1.75,word,m,,,,,,,
,,,,,,,,,,,Meriç Sarıkaya,001,2023-11-07_23h27.12.425,vowel_harmony,2023.2.3,Win32,144.0092166,377.0087,378.0084,,,,,,,,,,,,,,,,,,,,,,,,,,378.0085,378.307,z,1,0.2949,,378.307,378.307,,0,139,139,238,1,239,kocı,,,,,4,harmonic,1.95,nw,z,,,,,,,
,,,,,,,,,,,Meriç Sarıkaya,001,2023-11-07_23h27.12.425,vowel_harmony,2023.2.3,Win32,144.0092166,378.3072,379.307,,,,,,,,,,,,,,,,,,,,,,,,,,379.3071,379.5848,m,0,0.2685,,379.5848,379.5849,,0,140,140,356,1,357,mergun,,,,,6,notharmonic,1.95,nw,z,,,,,,,
,,,,,,,,,,,Meriç Sarıkaya,001,2023-11-07_23h27.12.425,vowel_harmony,2023.2.3,Win32,144.0092166,379.585,380.5848,,,,,,,,,,,,,,,,,,,,,,,,,,380.5848,380.8696,m,0,0.2758,,380.8696,380.8696,,0,141,141,354,1,355,taden,,,,,5,notharmonic,1.7,nw,z,,,,,,,
,,,,,,,,,,,Meriç Sarıkaya,001,2023-11-07_23h27.12.425,vowel_harmony,2023.2.3,Win32,144.0092166,380.8698,381.8695,,,,,,,,,,,,,,,,,,,,,,,,,,381.8695,382.1682,m,1,0.29,,382.1683,382.1683,,0,142,142,123,1,124,haber,4559,207.1429,4151,0.4538,5,notharmonic,1.85,word,m,,,,,,,
,,,,,,,,,,,Meriç Sarıkaya,001,2023-11-07_23h27.12.425,vowel_harmony,2023.2.3,Win32,144.0092166,382.1684,383.1681,,,,,,,,,,,,,,,,,,,,,,,,,,383.1681,383.5155,z,0,0.3407,,383.5155,383.5155,,0,143,143,80,1,81,merkez,1445,65.6551,1255,0.1372,6,harmonic,1.8,word,m,,,,,,,
,,,,,,,,,,,Meriç Sarıkaya,001,2023-11-07_23h27.12.425,vowel_harmony,2023.2.3,Win32,144.0092166,383.5156,384.5154,,,,,,,,,,,,,,,,,,,,,,,,,,384.5154,384.8626,m,0,0.3377,,384.8627,384.8627,,0,144,144,231,1,232,norgun,,,,,6,harmonic,1.75,nw,z,,,,,,,
,,,,,,,,,,,Meriç Sarıkaya,001,2023-11-07_23h27.12.425,vowel_harmony,2023.2.3,Win32,144.0092166,384.8629,385.8626,,,,,,,,,,,,,,,,,,,,,,,,,,385.8626,386.1543,m,0,0.2839,,386.1543,386.1544,,0,145,145,270,1,271,miyaj,,,,,5,notharmonic,1.9,nw,z,,,,,,,
,,,,,,,,,,,Meriç Sarıkaya,001,2023-11-07_23h27.12.425,vowel_harmony,2023.2.3,Win32,144.0092166,386.1546,387.1543,,,,,,,,,,,,,,,,,,,,,,,,,,387.1543,388.078,z,1,0.9156,,388.078,388.078,,0,146,146,245,1,246,bıyan,,,,,5,harmonic,1.7,nw,z,,,,,,,
,,,,,,,,,,,Meriç Sarıkaya,001,2023-11-07_23h27.12.425,vowel_harmony,2023.2.3,Win32,144.0092166,388.0781,389.0779,,,,,,,,,,,,,,,,,,,,,,,,,,389.0779,389.5016,m,1,0.4153,,389.5016,389.5016,,0,147,147,34,1,35,hoca,1893,86.0104,1526,0.1668,4,harmonic,1.45,word,m,,,,,,,
,,,,,,,,,,,Meriç Sarıkaya,001,2023-11-07_23h27.12.425,vowel_harmony,2023.2.3,Win32,144.0092166,389.5018,390.5016,,,,,,,,,,,,,,,,,,,,,,,,,,390.5016,390.9252,z,1,0.416,,390.9252,390.9252,,0,148,148,298,1,299,yelsın,,,,,6,notharmonic,1.95,nw,z,,,,,,,
,,,,,,,,,,,Meriç Sarıkaya,001,2023-11-07_23h27.12.425,vowel_harmony,2023.2.3,Win32,144.0092166,390.9254,391.9252,,,,,,,,,,,,,,,,,,,,,,,,,,391.9252,392.3627,z,1,0.4281,,392.3628,392.3628,,0,149,149,344,1,345,barika,,,,,6,notharmonic,1.75,nw,z,,,,,,,
,,,,,,,,,,,Meriç Sarıkaya,001,2023-11-07_23h27.12.425,vowel_harmony,2023.2.3,Win32,144.0092166,392.3629,393.3627,,,,,,,,,,,,,,,,,,,,,,,,,,393.3627,393.6613,m,1,0.2889,,393.6613,393.6613,,0,150,150,83,1,84,küçük,14048,638.2854,12467,1.3629,5,harmonic,1.75,word,m,,,,,,,
,,,,,,,,,,,Meriç Sarıkaya,001,2023-11-07_23h27.12.425,vowel_harmony,2023.2.3,Win32,144.0092166,393.6615,394.6612,,,,,,,,,,,,,,,,,,,,,,,,,,394.6613,395.0086,z,1,0.3393,,395.0086,395.0086,,0,151,151,275,1,276,tahçe,,,,,5,notharmonic,1.95,nw,z,,,,,,,
,,,,,,,,,,,Meriç Sarıkaya,001,2023-11-07_23h27.12.425,vowel_harmony,2023.2.3,Win32,144.0092166,395.0088,396.0085,,,,,,,,,,,,,,,,,,,,,,,,,,396.0085,396.4529,z,1,0.4389,,396.453,396.453,,0,152,152,303,1,304,fisor,,,,,5,notharmonic,1.9,nw,z,,,,,,,
,,,,,,,,,,,Meriç Sarıkaya,001,2023-11-07_23h27.12.425,vowel_harmony,2023.2.3,Win32,144.0092166,396.4532,397.4529,,,,,,,,,,,,,,,,,,,,,,,,,,397.4529,397.9322,z,1,0.4726,,397.9322,397.9322,,0,153,153,189,1,190,düvre,,,,,5,harmonic,1.85,nw,z,,,,,,,
,,,,,,,,,,,Meriç Sarıkaya,001,2023-11-07_23h27.12.425,vowel_harmony,2023.2.3,Win32,144.0092166,397.9324,398.9321,,,,,,,,,,,,,,,,,,,,,,,,,,398.9321,399.2864,z,0,0.3463,,399.2864,399.2864,,0,154,154,136,1,137,beyaz,5517,250.6706,4788,0.5234,5,notharmonic,1.85,word,m,,,,,,,
,,,,,,,,,,,Meriç Sarıkaya,001,2023-11-07_23h27.12.425,vowel_harmony,2023.2.3,Win32,144.0092166,399.2866,400.2863,,,,,,,,,,,,,,,,,,,,,,,,,,400.2863,400.6822,m,1,0.3869,,400.6822,400.6822,,0,155,155,59,1,60,köpek,1044,47.4352,901,0.0985,5,harmonic,1.75,word,m,,,,,,,
,,,,,,,,,,,Meriç Sarıkaya,001,2023-11-07_23h27.12.425,vowel_harmony,2023.2.3,Win32,144.0092166,400.6824,401.6821,,,,,,,,,,,,,,,,,,,,,,,,,,401.6822,402.0781,m,1,0.3888,,402.0781,402.0781,,0,156,156,122,1,123,devam,17666,802.673,16284,1.7802,5,notharmonic,1.55,word,m,,,,,,,
,,,,,,,,,,,Meriç Sarıkaya,001,2023-11-07_23h27.12.425,vowel_harmony,2023.2.3,Win32,144.0092166,402.0783,403.078,,,,,,,,,,,,,,,,,,,,,,,,,,403.078,403.4599,z,1,0.3749,,403.4599,403.46,,0,157,157,203,1,204,döves,,,,,5,harmonic,1.8,nw,z,,,,,,,
,,,,,,,,,,,Meriç Sarıkaya,001,2023-11-07_23h27.12.425,vowel_harmony,2023.2.3,Win32,144.0092166,403.4601,404.46,,,,,,,,,,,,,,,,,,,,,,,,,,404.46,404.7933,m,1,0.3239,,404.7933,404.7933,,0,158,158,76,1,77,ilişki,1675,76.1054,1524,0.1666,6,harmonic,1.8,word,m,,,,,,,
,,,,,,,,,,,Meriç Sarıkaya,001,2023-11-07_23h27.12.425,vowel_harmony,2023.2.3,Win32,144.0092166,404.7935,405.7933,,,,,,,,,,,,,,,,,,,,,,,,,,405.7933,406.1197,m,1,0.3167,,406.1197,406.1198,,0,159,159,60,1,61,doğu,2105,95.6429,1823,0.1993,4,harmonic,1.05,word,m,,,,,,,
,,,,,,,,,,,Meriç Sarıkaya,001,2023-11-07_23h27.12.425,vowel_harmony,2023.2.3,Win32,144.0092166,406.1199,407.1196,,,,,,,,,,,,,,,,,,,,,,,,,,407.1197,407.5295,m,1,0.4017,,407.5295,407.5295,,0,160,160,3,1,4,minik,2916,132.4915,2594,0.2836,5,harmonic,1.6,word,m,,,,,,,
,,,,,,,,,,,Meriç Sarıkaya,001,2023-11-07_23h27.12.425,vowel_harmony,2023.2.3,Win32,144.0092166,407.5296,408.5294,,,,,,,,,,,,,,,,,,,,,,,,,,408.5294,408.9461,z,1,0.4134,,408.9462,408.9462,,0,161,161,292,1,293,kinam,,,,,5,notharmonic,1.85,nw,z,,,,,,,
,,,,,,,,,,,Meriç Sarıkaya,001,2023-11-07_23h27.12.425,vowel_harmony,2023.2.3,Win32,144.0092166,408.9463,409.946,,,,,,,,,,,,,,,,,,,,,,,,,,409.9461,410.2447,m,1,0.2889,,410.2447,410.2447,,0,162,162,67,1,68,bayram,1948,88.5094,1648,0.1802,6,harmonic,1.85,word,m,,,,,,,
,,,,,,,,,,,Meriç Sarıkaya,001,2023-11-07_23h27.12.425,vowel_harmony,2023.2.3,Win32,144.0092166,410.245,411.2447,,,,,,,,,,,,,,,,,,,,,,,,,,411.2447,411.6336,m,1,0.3853,,411.6336,411.6337,,0,163,163,35,1,36,hava,4975,226.0443,4398,0.4808,4,harmonic,1,word,m,,,,,,,
,,,,,,,,,,,Meriç Sarıkaya,001,2023-11-07_23h27.12.425,vowel_harmony,2023.2.3,Win32,144.0092166,411.6338,412.6336,,,,,,,,,,,,,,,,,,,,,,,,,,412.6337,412.9183,m,1,0.2813,,412.9184,412.9184,,0,164,164,156,1,157,medya,1784,81.0579,1495,0.1634,5,notharmonic,1.35,word,m,,,,,,,
,,,,,,,,,,,Meriç Sarıkaya,001,2023-11-07_23h27.12.425,vowel_harmony,2023.2.3,Win32,144.0092166,412.9185,413.9183,,,,,,,,,,,,,,,,,,,,,,,,,,413.9183,414.2101,m,1,0.2846,,414.2101,414.2101,,0,165,165,20,1,21,nefes,2871,130.4469,2553,0.2791,5,harmonic,1.8,word,m,,,,,,,
,,,,,,,,,,,Meriç Sarıkaya,001,2023-11-07_23h27.12.425,vowel_harmony,2023.2.3,Win32,144.0092166,414.2102,415.21,,,,,,,,,,,,,,,,,,,,,,,,,,415.21,415.4739,m,1,0.2545,,415.4739,415.474,,0,166,166,112,1,113,sezon,2315,105.1844,1917,0.2096,5,notharmonic,1.8,word,m,,,,,,,
,,,,,,,,,,,Meriç Sarıkaya,001,2023-11-07_23h27.12.425,vowel_harmony,2023.2.3,Win32,144.0092166,415.4741,416.474,,,,,,,,,,,,,,,,,,,,,,,,,,416.474,416.8906,z,1,0.41,,416.8906,416.8907,,0,167,167,289,1,290,karmen,,,,,6,notharmonic,1.75,nw,z,,,,,,,
,,,,,,,,,,,Meriç Sarıkaya,001,2023-11-07_23h27.12.425,vowel_harmony,2023.2.3,Win32,144.0092166,416.8908,417.8905,,,,,,,,,,,,,,,,,,,,,,,,,,417.8906,418.1961,m,1,0.3011,,418.1961,418.1962,,0,168,168,54,1,55,yedek,825,37.4847,732,0.08,5,harmonic,1.65,word,m,,,,,,,
,,,,,,,,,,,Meriç Sarıkaya,001,2023-11-07_23h27.12.425,vowel_harmony,2023.2.3,Win32,144.0092166,418.1963,419.1962,,,,,,,,,,,,,,,,,,,,,,,,,,419.1962,419.5017,m,1,0.2988,,419.5018,419.5018,,0,169,169,176,1,177,harika,4682,212.7315,4422,0.4834,6,notharmonic,1.9,word,m,,,,,,,
,,,,,,,,,,,Meriç Sarıkaya,001,2023-11-07_23h27.12.425,vowel_harmony,2023.2.3,Win32,144.0092166,419.502,420.5017,,,,,,,,,,,,,,,,,,,,,,,,,,420.5017,420.828,m,1,0.3215,,420.8281,420.8281,,0,170,170,110,1,111,rüya,1062,48.2531,937,0.1024,4,notharmonic,1.75,word,m,,,,,,,
,,,,,,,,,,,Meriç Sarıkaya,001,2023-11-07_23h27.12.425,vowel_harmony,2023.2.3,Win32,144.0092166,420.8283,421.8281,,,,,,,,,,,,,,,,,,,,,,,,,,421.8281,422.1129,m,1,0.2767,,422.1129,422.1129,,0,171,171,96,1,97,dahil,3189,144.8955,3060,0.3345,5,notharmonic,1.7,word,m,,,,,,,
,,,,,,,,,,,Meriç Sarıkaya,001,2023-11-07_23h27.12.425,vowel_harmony,2023.2.3,Win32,144.0092166,422.113,423.1128,,,,,,,,,,,,,,,,,,,,,,,,,,423.1129,423.4392,m,0,0.3206,,423.4393,423.4393,,0,172,172,348,1,349,aife,,,,,4,notharmonic,1.75,nw,z,,,,,,,
,,,,,,,,,,,Meriç Sarıkaya,001,2023-11-07_23h27.12.425,vowel_harmony,2023.2.3,Win32,144.0092166,423.4394,424.4392,,,,,,,,,,,,,,,,,,,,,,,,,,424.4393,424.8975,m,1,0.4489,,424.8976,424.8976,,0,173,173,149,1,150,ceza,2611,118.6335,2169,0.2371,4,notharmonic,1.5,word,m,,,,,,,
,,,,,,,,,,,Meriç Sarıkaya,001,2023-11-07_23h27.12.425,vowel_harmony,2023.2.3,Win32,144.0092166,424.8978,425.8976,,,,,,,,,,,,,,,,,,,,,,,,,,425.8976,426.3281,z,1,0.4215,,426.3281,426.3281,,0,174,174,180,1,181,ayaro,,,,,5,harmonic,1.8,nw,z,,,,,,,
,,,,,,,,,,,Meriç Sarıkaya,001,2023-11-07_23h27.12.425,vowel_harmony,2023.2.3,Win32,144.0092166,426.3284,427.3281,,,,,,,,,,,,,,,,,,,,,,,,,,427.3281,427.6684,m,1,0.3364,,427.6684,427.6685,,0,175,175,30,1,31,çevre,1662,75.5147,1409,0.154,5,harmonic,1.55,word,m,,,,,,,
,,,,,,,,,,,Meriç Sarıkaya,001,2023-11-07_23h27.12.425,vowel_harmony,2023.2.3,Win32,144.0092166,427.6686,428.6684,,,,,,,,,,,,,,,,,,,,,,,,,,428.6684,428.9878,m,1,0.3124,,428.9879,428.988,,0,176,176,72,1,73,çorba,1674,76.0599,1513,0.1654,5,harmonic,1.75,word,m,,,,,,,
,,,,,,,,,,,Meriç Sarıkaya,001,2023-11-07_23h27.12.425,vowel_harmony,2023.2.3,Win32,144.0092166,428.9881,429.9879,,,,,,,,,,,,,,,,,,,,,,,,,,429.9879,430.2934,m,1,0.2997,,430.2934,430.2935,,0,177,177,89,1,90,etki,1234,56.0681,1169,0.1278,4,harmonic,1.4,word,m,,,,,,,
,,,,,,,,,,,Meriç Sarıkaya,001,2023-11-07_23h27.12.425,vowel_harmony,2023.2.3,Win32,144.0092166,430.2936,431.2934,,,,,,,,,,,,,,,,,,,,,,,,,,431.2935,431.6892,z,1,0.3921,,431.6893,431.6893,,0,178,178,304,1,305,annö,,,,,4,notharmonic,1.95,nw,z,,,,,,,
,,,,,,,,,,,Meriç Sarıkaya,001,2023-11-07_23h27.12.425,vowel_harmony,2023.2.3,Win32,144.0092166,431.6895,432.6893,,,,,,,,,,,,,,,,,,,,,,,,,,432.6893,433.0781,m,1,0.3856,,433.0782,433.0782,,0,179,179,52,1,53,resim,2506,113.8627,2188,0.2392,5,harmonic,1.4,word,m,,,,,,,
,,,,,,,,,,,Meriç Sarıkaya,001,2023-11-07_23h27.12.425,vowel_harmony,2023.2.3,Win32,144.0092166,433.0784,434.0782,,,,,,,,,,,,,,,,,,,,,,,,,,434.0782,434.5851,m,1,0.4968,,434.5851,434.5852,,0,180,180,118,1,119,meşhur,1092,49.6161,1057,0.1156,6,notharmonic,1.9,word,m,,,,,,,
,,,,,,,,,,,Meriç Sarıkaya,001,2023-11-07_23h27.12.425,vowel_harmony,2023.2.3,Win32,144.0092166,434.5853,435.5851,,,,,,,,,,,,,,,,,,,,,,,,,,435.5851,436.2102,z,1,0.6182,,436.2102,436.2102,,0,181,181,225,1,226,düvem,,,,,5,harmonic,1.7,nw,z,,,,,,,
,,,,,,,,,,,Meriç Sarıkaya,001,2023-11-07_23h27.12.425,vowel_harmony,2023.2.3,Win32,144.0092166,436.2103,437.2101,,,,,,,,,,,,,,,,,,,,,,,,,,437.2101,437.5851,m,1,0.3679,,437.5851,437.5852,,0,182,182,160,1,161,hakem,603,27.3979,473,0.0517,5,notharmonic,1.3,word,m,,,,,,,
,,,,,,,,,,,Meriç Sarıkaya,001,2023-11-07_23h27.12.425,vowel_harmony,2023.2.3,Win32,144.0092166,437.5853,438.5851,,,,,,,,,,,,,,,,,,,,,,,,,,438.5851,438.9879,z,1,0.3936,,438.988,438.988,,0,183,183,191,1,192,doab,,,,,4,harmonic,2,nw,z,,,,,,,
,,,,,,,,,,,Meriç Sarıkaya,001,2023-11-07_23h27.12.425,vowel_harmony,2023.2.3,Win32,144.0092166,438.9881,439.9879,,,,,,,,,,,,,,,,,,,,,,,,,,439.9879,440.6826,z,1,0.6897,,440.6826,440.6826,,0,184,184,239,1,240,şekik,,,,,5,harmonic,1.7,nw,z,,,,,,,
,,,,,,,,,,,Meriç Sarıkaya,001,2023-11-07_23h27.12.425,vowel_harmony,2023.2.3,Win32,144.0092166,440.6828,441.6823,,,,,,,,,,,,,,,,,,,,,,,,,,441.6823,442.0296,m,0,0.3403,,442.0296,442.0296,,0,185,185,307,1,308,merbat,,,,,6,notharmonic,1.95,nw,z,,,,,,,
,,,,,,,,,,,Meriç Sarıkaya,001,2023-11-07_23h27.12.425,vowel_harmony,2023.2.3,Win32,144.0092166,442.0298,443.0296,,,,,,,,,,,,,,,,,,,,,,,,,,443.0296,443.4324,m,1,0.3962,,443.4324,443.4324,,0,186,186,25,1,26,rapor,703,31.9415,617,0.0675,5,harmonic,1.8,word,m,,,,,,,
,,,,,,,,,,,Meriç Sarıkaya,001,2023-11-07_23h27.12.425,vowel_harmony,2023.2.3,Win32,144.0092166,443.4326,444.4323,,,,,,,,,,,,,,,,,,,,,,,,,,444.4324,444.856,m,1,0.42,,444.856,444.8561,,0,187,187,161,1,162,komik,1617,73.4701,1506,0.1646,5,notharmonic,1.75,word,m,,,,,,,
,,,,,,,,,,,Meriç Sarıkaya,001,2023-11-07_23h27.12.425,vowel_harmony,2023.2.3,Win32,144.0092166,444.8563,445.856,,,,,,,,,,,,,,,,,,,,,,,,,,445.856,446.3283,z,1,0.4626,,446.3283,446.3283,,0,188,188,200,1,201,duşın,,,,,5,harmonic,1.9,nw,z,,,,,,,
,,,,,,,,,,,Meriç Sarıkaya,001,2023-11-07_23h27.12.425,vowel_harmony,2023.2.3,Win32,144.0092166,446.3285,447.3283,,,,,,,,,,,,,,,,,,,,,,,,,,447.3283,448.1893,z,1,0.8522,,448.1894,448.1894,,0,189,189,334,1,335,işgan,,,,,5,notharmonic,1.95,nw,z,,,,,,,
,,,,,,,,,,,Meriç Sarıkaya,001,2023-11-07_23h27.12.425,vowel_harmony,2023.2.3,Win32,144.0092166,448.1896,449.1893,,,,,,,,,,,,,,,,,,,,,,,,,,449.1893,449.7658,m,1,0.5711,,449.7658,449.7659,,0,190,190,57,1,58,bölüm,1910,86.7828,1605,0.1755,5,harmonic,1.45,word,m,,,,,,,
,,,,,,,,,,,Meriç Sarıkaya,001,2023-11-07_23h27.12.425,vowel_harmony,2023.2.3,Win32,144.0092166,449.766,450.7657,,,,,,,,,,,,,,,,,,,,,,,,,,450.7658,451.3422,z,1,0.5665,,451.3422,451.3423,,0,191,191,318,1,319,yorgün,,,,,6,notharmonic,1.9,nw,z,,,,,,,
,,,,,,,,,,,Meriç Sarıkaya,001,2023-11-07_23h27.12.425,vowel_harmony,2023.2.3,Win32,144.0092166,451.3424,452.3422,,,,,,,,,,,,,,,,,,,,,,,,,,452.3422,453.3005,z,1,0.9495,,453.3005,453.3005,,0,192,192,297,1,298,sapet,,,,,5,notharmonic,1.85,nw,z,,,,,,,
,,,,,,,,,,,Meriç Sarıkaya,001,2023-11-07_23h27.12.425,vowel_harmony,2023.2.3,Win32,144.0092166,453.3007,454.3005,,,,,,,,,,,,,,,,,,,,,,,,,,454.3005,454.9116,z,1,0.6068,,454.9116,454.9117,,0,193,193,301,1,302,mezak,,,,,5,notharmonic,1.8,nw,z,,,,,,,
,,,,,,,,,,,Meriç Sarıkaya,001,2023-11-07_23h27.12.425,vowel_harmony,2023.2.3,Win32,144.0092166,454.9118,455.9116,,,,,,,,,,,,,,,,,,,,,,,,,,455.9116,456.4186,z,1,0.5002,,456.4186,456.4186,,0,194,194,327,1,328,parkeş,,,,,6,notharmonic,1.9,nw,z,,,,,,,
,,,,,,,,,,,Meriç Sarıkaya,001,2023-11-07_23h27.12.425,vowel_harmony,2023.2.3,Win32,144.0092166,456.4189,457.4185,,,,,,,,,,,,,,,,,,,,,,,,,,457.4185,457.9949,z,1,0.5672,,457.9949,457.995,,0,195,195,332,1,333,tahane,,,,,6,notharmonic,1.85,nw,z,,,,,,,
,,,,,,,,,,,Meriç Sarıkaya,001,2023-11-07_23h27.12.425,vowel_harmony,2023.2.3,Win32,144.0092166,457.9952,458.9949,,,,,,,,,,,,,,,,,,,,,,,,,,458.9949,459.4811,m,1,0.4809,,459.4811,459.4811,,0,196,196,107,1,108,merak,5806,263.8016,5524,0.6039,5,notharmonic,1.65,word,m,,,,,,,
,,,,,,,,,,,Meriç Sarıkaya,001,2023-11-07_23h27.12.425,vowel_harmony,2023.2.3,Win32,144.0092166,459.4813,460.4811,,,,,,,,,,,,,,,,,,,,,,,,,,460.4811,460.9533,m,1,0.4685,,460.9533,460.9533,,0,197,197,113,1,114,model,1200,54.5232,1082,0.1183,5,notharmonic,1.75,word,m,,,,,,,
,,,,,,,,,,,Meriç Sarıkaya,001,2023-11-07_23h27.12.425,vowel_harmony,2023.2.3,Win32,144.0092166,460.9534,461.9533,,,,,,,,,,,,,,,,,,,,,,,,,,461.9533,462.4672,z,1,0.5106,,462.4673,462.4673,,0,198,198,349,1,350,harten,,,,,6,notharmonic,1.85,nw,z,,,,,,,
,,,,,,,,,,,Meriç Sarıkaya,001,2023-11-07_23h27.12.425,vowel_harmony,2023.2.3,Win32,144.0092166,462.4674,463.4671,,,,,,,,,,,,,,,,,,,,,,,,,,463.4672,463.9324,z,1,0.4609,,463.9324,463.9325,,0,199,199,322,1,323,normin,,,,,6,notharmonic,1.95,nw,z,,,,,,,
,,,,,,,,,,,Meriç Sarıkaya,001,2023-11-07_23h27.12.425,vowel_harmony,2023.2.3,Win32,144.0092166,463.9326,464.9325,,,,,,,,,,,,,,,,,,,,,,,,,,464.9325,465.3352,m,1,0.3933,,465.3353,465.3357,,0,200,200,49,1,50,şeker,4708,213.9128,4170,0.4559,5,harmonic,1.6,word,m,,,,,,,
,,,,,,,,,,,Meriç Sarıkaya,001,2023-11-07_23h27.12.425,vowel_harmony,2023.2.3,Win32,144.0092166,465.3358,466.3353,,,,,,,,,,,,,,,,,,,,,,,,,,466.3353,466.8214,m,1,0.4792,,466.8214,466.8214,,0,201,201,2,1,3,radyo,763,34.6677,636,0.0695,5,harmonic,1.85,word,m,,,,,,,
,,,,,,,,,,,Meriç Sarıkaya,001,2023-11-07_23h27.12.425,vowel_harmony,2023.2.3,Win32,144.0092166,466.8216,467.8214,,,,,,,,,,,,,,,,,,,,,,,,,,467.8214,468.245,z,1,0.4186,,468.245,468.245,,0,202,202,244,1,245,kaof,,,,,4,harmonic,1.9,nw,z,,,,,,,
,,,,,,,,,,,Meriç Sarıkaya,001,2023-11-07_23h27.12.425,vowel_harmony,2023.2.3,Win32,144.0092166,468.2452,469.245,,,,,,,,,,,,,,,,,,,,,,,,,,469.245,469.7102,m,1,0.4604,,469.7103,469.7103,,0,203,203,148,1,149,selam,1868,84.8745,1764,0.1928,5,notharmonic,1.35,word,m,,,,,,,
,,,,,,,,,,,Meriç Sarıkaya,001,2023-11-07_23h27.12.425,vowel_harmony,2023.2.3,Win32,144.0092166,469.7104,470.7103,,,,,,,,,,,,,,,,,,,,,,,,,,470.7103,471.2103,z,1,0.4952,,471.2103,471.2103,,0,204,204,204,1,205,gerkez,,,,,6,harmonic,1.9,nw,z,,,,,,,
,,,,,,,,,,,Meriç Sarıkaya,001,2023-11-07_23h27.12.425,vowel_harmony,2023.2.3,Win32,144.0092166,471.2105,472.2103,,,,,,,,,,,,,,,,,,,,,,,,,,472.2103,472.6409,m,1,0.4249,,472.6409,472.6409,,0,205,205,138,1,139,kardeş,1270,57.7038,1174,0.1283,6,notharmonic,1.9,word,m,,,,,,,
,,,,,,,,,,,Meriç Sarıkaya,001,2023-11-07_23h27.12.425,vowel_harmony,2023.2.3,Win32,144.0092166,472.641,473.6409,,,,,,,,,,,,,,,,,,,,,,,,,,473.6409,474.1548,m,1,0.5058,,474.1548,474.1548,,0,206,206,154,1,155,sakin,1855,84.2838,1635,0.1787,5,notharmonic,1.05,word,m,,,,,,,
,,,,,,,,,,,Meriç Sarıkaya,001,2023-11-07_23h27.12.425,vowel_harmony,2023.2.3,Win32,144.0092166,474.1549,475.1547,,,,,,,,,,,,,,,,,,,,,,,,,,475.1547,475.6547,z,1,0.4935,,475.6548,475.6549,,0,207,207,300,1,301,nilgi,,,,,5,notharmonic,1.85,nw,z,,,,,,,
,,,,,,,,,,,Meriç Sarıkaya,001,2023-11-07_23h27.12.425,vowel_harmony,2023.2.3,Win32,144.0092166,475.655,476.6548,,,,,,,,,,,,,,,,,,,,,,,,,,476.6548,477.2103,z,1,0.546,,477.2103,477.2104,,0,208,208,235,1,236,oşup,,,,,4,harmonic,1.75,nw,z,,,,,,,
,,,,,,,,,,,Meriç Sarıkaya,001,2023-11-07_23h27.12.425,vowel_harmony,2023.2.3,Win32,144.0092166,477.2105,478.2103,,,,,,,,,,,,,,,,,,,,,,,,,,478.2103,478.7867,z,1,0.5715,,478.7867,478.7867,,0,209,209,253,1,254,meslet,,,,,6,harmonic,1.85,nw,z,,,,,,,
,,,,,,,,,,,Meriç Sarıkaya,001,2023-11-07_23h27.12.425,vowel_harmony,2023.2.3,Win32,144.0092166,478.7869,479.7867,,,,,,,,,,,,,,,,,,,,,,,,,,479.7867,480.252,z,1,0.4565,,480.252,480.252,,0,210,210,286,1,287,cedan,,,,,5,notharmonic,1.8,nw,z,,,,,,,
,,,,,,,,,,,Meriç Sarıkaya,001,2023-11-07_23h27.12.425,vowel_harmony,2023.2.3,Win32,144.0092166,480.2522,481.252,,,,,,,,,,,,,,,,,,,,,,,,,,481.252,481.7382,z,1,0.4823,,481.7382,481.7383,,0,211,211,316,1,317,misaf,,,,,5,notharmonic,1.85,nw,z,,,,,,,
,,,,,,,,,,,Meriç Sarıkaya,001,2023-11-07_23h27.12.425,vowel_harmony,2023.2.3,Win32,144.0092166,481.7385,482.7381,,,,,,,,,,,,,,,,,,,,,,,,,,482.7381,483.1826,z,1,0.4349,,483.1826,483.1826,,0,212,212,242,1,243,kahon,,,,,5,harmonic,1.85,nw,z,,,,,,,
,,,,,,,,,,,Meriç Sarıkaya,001,2023-11-07_23h27.12.425,vowel_harmony,2023.2.3,Win32,144.0092166,483.1828,484.1825,,,,,,,,,,,,,,,,,,,,,,,,,,484.1826,484.6409,z,1,0.4503,,484.6409,484.641,,0,213,213,299,1,300,fihal,,,,,5,notharmonic,1.95,nw,z,,,,,,,
,,,,,,,,,,,Meriç Sarıkaya,001,2023-11-07_23h27.12.425,vowel_harmony,2023.2.3,Win32,144.0092166,484.6411,485.6409,,,,,,,,,,,,,,,,,,,,,,,,,,485.6409,486.1895,m,1,0.5417,,486.1895,486.1896,,0,214,214,32,1,33,temel,4231,192.2399,3851,0.421,5,harmonic,1.55,word,m,,,,,,,
,,,,,,,,,,,Meriç Sarıkaya,001,2023-11-07_23h27.12.425,vowel_harmony,2023.2.3,Win32,144.0092166,486.1898,487.1895,,,,,,,,,,,,,,,,,,,,,,,,,,487.1895,487.6756,m,1,0.476,,487.6756,487.6757,,0,215,215,81,1,82,üretim,1593,72.3796,1283,0.1403,6,harmonic,1.6,word,m,,,,,,,
,,,,,,,,,,,Meriç Sarıkaya,001,2023-11-07_23h27.12.425,vowel_harmony,2023.2.3,Win32,144.0092166,487.6758,488.6756,,,,,,,,,,,,,,,,,,,,,,,,,,488.6756,489.0715,m,1,0.3865,,489.0715,489.0716,,0,216,216,151,1,152,ateş,2108,95.7792,1803,0.1971,4,notharmonic,1.65,word,m,,,,,,,
,,,,,,,,,,,Meriç Sarıkaya,001,2023-11-07_23h27.12.425,vowel_harmony,2023.2.3,Win32,144.0092166,489.0717,490.0715,,,,,,,,,,,,,,,,,,,,,,,,,,490.0715,490.5645,z,1,0.4845,,490.5645,490.5646,,0,217,217,181,1,182,rapkı,,,,,5,harmonic,1.85,nw,z,,,,,,,
,,,,,,,,,,,Meriç Sarıkaya,001,2023-11-07_23h27.12.425,vowel_harmony,2023.2.3,Win32,144.0092166,490.5648,491.5646,,,,,,,,,,,,,,,,,,,,,,,,,,491.5646,491.9673,m,1,0.3974,,491.9673,491.9674,,0,218,218,147,1,148,işaret,1888,85.7832,1787,0.1954,6,notharmonic,1,word,m,,,,,,,
,,,,,,,,,,,Meriç Sarıkaya,001,2023-11-07_23h27.12.425,vowel_harmony,2023.2.3,Win32,144.0092166,491.9675,492.9673,,,,,,,,,,,,,,,,,,,,,,,,,,492.9673,493.4396,m,1,0.4676,,493.4396,493.4396,,0,219,219,174,1,175,bugün,13879,630.6067,12842,1.4039,5,notharmonic,1.85,word,m,,,,,,,
,,,,,,,,,,,Meriç Sarıkaya,001,2023-11-07_23h27.12.425,vowel_harmony,2023.2.3,Win32,144.0092166,493.4397,494.4395,,,,,,,,,,,,,,,,,,,,,,,,,,494.4396,494.8563,m,1,0.4122,,494.8563,494.8563,,0,220,220,22,1,23,anlam,1730,78.6043,1617,0.1768,5,harmonic,1.25,word,m,,,,,,,
,,,,,,,,,,,Meriç Sarıkaya,001,2023-11-07_23h27.12.425,vowel_harmony,2023.2.3,Win32,144.0092166,494.8565,495.8562,,,,,,,,,,,,,,,,,,,,,,,,,,495.8562,496.3076,z,1,0.4409,,496.3076,496.3077,,0,221,221,257,1,258,zerü,,,,,4,harmonic,1.8,nw,z,,,,,,,
,,,,,,,,,,,Meriç Sarıkaya,001,2023-11-07_23h27.12.425,vowel_harmony,2023.2.3,Win32,144.0092166,496.3078,497.3076,,,,,,,,,,,,,,,,,,,,,,,,,,497.3076,497.7662,z,1,0.4552,,497.7663,497.7663,,0,222,222,262,1,263,sauk,,,,,4,harmonic,1.85,nw,z,,,,,,,
,,,,,,,,,,,Meriç Sarıkaya,001,2023-11-07_23h27.12.425,vowel_harmony,2023.2.3,Win32,144.0092166,497.7664,498.766,,,,,,,,,,,,,,,,,,,,,,,,,,498.766,499.1757,m,1,0.401,,499.1757,499.1758,,0,223,223,85,1,86,geçmiş,4195,190.6042,4039,0.4415,6,harmonic,1.55,word,m,,,,,,,
,,,,,,,,,,,Meriç Sarıkaya,001,2023-11-07_23h27.12.425,vowel_harmony,2023.2.3,Win32,144.0092166,499.176,500.1757,,,,,,,,,,,,,,,,,,,,,,,,,,500.1757,500.5577,m,1,0.3714,,500.5577,500.5578,,0,224,224,134,1,135,iptal,793,36.0308,725,0.0793,5,notharmonic,1.35,word,m,,,,,,,
,,,,,,,,,,,Meriç Sarıkaya,001,2023-11-07_23h27.12.425,vowel_harmony,2023.2.3,Win32,144.0092166,500.5579,501.5576,,,,,,,,,,,,,,,,,,,,,,,,,,501.5576,502.016,z,1,0.4523,,502.016,502.0161,,0,225,225,234,1,235,düzöt,,,,,5,harmonic,2.05,nw,z,,,,,,,
,,,,,,,,,,,Meriç Sarıkaya,001,2023-11-07_23h27.12.425,vowel_harmony,2023.2.3,Win32,144.0092166,502.0162,503.0159,,,,,,,,,,,,,,,,,,,,,,,,,,503.016,503.4396,z,1,0.4192,,503.4396,503.4396,,0,226,226,290,1,291,aipa,,,,,4,notharmonic,1.95,nw,z,,,,,,,
,,,,,,,,,,,Meriç Sarıkaya,001,2023-11-07_23h27.12.425,vowel_harmony,2023.2.3,Win32,144.0092166,503.4397,504.4396,,,,,,,,,,,,,,,,,,,,,,,,,,504.4396,504.8424,m,1,0.3986,,504.8424,504.8425,,0,227,227,6,1,7,hayal,4498,204.3713,4079,0.4459,5,harmonic,1.45,word,m,,,,,,,
,,,,,,,,,,,Meriç Sarıkaya,001,2023-11-07_23h27.12.425,vowel_harmony,2023.2.3,Win32,144.0092166,504.8426,505.8424,,,,,,,,,,,,,,,,,,,,,,,,,,505.8424,506.3285,m,1,0.4813,,506.3285,506.3285,,0,228,228,157,1,158,aktif,1062,48.2531,986,0.1078,5,notharmonic,1.9,word,m,,,,,,,
,,,,,,,,,,,Meriç Sarıkaya,001,2023-11-07_23h27.12.425,vowel_harmony,2023.2.3,Win32,144.0092166,506.3287,507.3285,,,,,,,,,,,,,,,,,,,,,,,,,,507.3285,507.78,z,1,0.4442,,507.7801,507.7801,,0,229,229,190,1,191,reklen,,,,,6,harmonic,1.8,nw,z,,,,,,,
,,,,,,,,,,,Meriç Sarıkaya,001,2023-11-07_23h27.12.425,vowel_harmony,2023.2.3,Win32,144.0092166,507.7802,508.78,,,,,,,,,,,,,,,,,,,,,,,,,,508.78,509.3564,z,1,0.5678,,509.3564,509.3564,,0,230,230,281,1,282,afel,,,,,4,notharmonic,1.8,nw,z,,,,,,,
,,,,,,,,,,,Meriç Sarıkaya,001,2023-11-07_23h27.12.425,vowel_harmony,2023.2.3,Win32,144.0092166,509.3565,510.3563,,,,,,,,,,,,,,,,,,,,,,,,,,510.3563,510.9605,z,1,0.5974,,510.9605,510.9605,,0,231,231,284,1,285,deval,,,,,5,notharmonic,1.75,nw,z,,,,,,,
,,,,,,,,,,,Meriç Sarıkaya,001,2023-11-07_23h27.12.425,vowel_harmony,2023.2.3,Win32,144.0092166,510.9607,511.9605,,,,,,,,,,,,,,,,,,,,,,,,,,511.9605,512.391,m,0,0.4233,,512.391,512.3911,,0,232,232,347,1,348,tekram,,,,,6,notharmonic,1.95,nw,z,,,,,,,
,,,,,,,,,,,Meriç Sarıkaya,001,2023-11-07_23h27.12.425,vowel_harmony,2023.2.3,Win32,144.0092166,512.3912,513.3911,,,,,,,,,,,,,,,,,,,,,,,,,,513.3911,513.8077,m,1,0.4112,,513.8078,513.8078,,0,233,233,71,1,72,örnek,3463,157.345,3266,0.357,5,harmonic,1.85,word,m,,,,,,,
,,,,,,,,,,,Meriç Sarıkaya,001,2023-11-07_23h27.12.425,vowel_harmony,2023.2.3,Win32,144.0092166,513.8079,514.8078,,,,,,,,,,,,,,,,,,,,,,,,,,514.8078,515.1827,m,1,0.3654,,515.1827,515.1828,,0,234,234,1,1,2,erkek,6188,281.1582,5195,0.5679,5,harmonic,1.65,word,m,,,,,,,
,,,,,,,,,,,Meriç Sarıkaya,001,2023-11-07_23h27.12.425,vowel_harmony,2023.2.3,Win32,144.0092166,515.183,516.1827,,,,,,,,,,,,,,,,,,,,,,,,,,516.1827,516.5925,m,1,0.3994,,516.5925,516.5925,,0,235,235,73,1,74,millet,1658,75.3329,1508,0.1649,6,harmonic,1.7,word,m,,,,,,,
,,,,,,,,,,,Meriç Sarıkaya,001,2023-11-07_23h27.12.425,vowel_harmony,2023.2.3,Win32,144.0092166,516.5927,517.5924,,,,,,,,,,,,,,,,,,,,,,,,,,517.5924,517.9605,m,1,0.3612,,517.9605,517.9605,,0,236,236,173,1,174,sade,1193,54.2052,1114,0.1218,4,notharmonic,1.55,word,m,,,,,,,
,,,,,,,,,,,Meriç Sarıkaya,001,2023-11-07_23h27.12.425,vowel_harmony,2023.2.3,Win32,144.0092166,517.9607,518.9605,,,,,,,,,,,,,,,,,,,,,,,,,,518.9605,519.4744,z,1,0.5076,,519.4744,519.4744,,0,237,237,206,1,207,bevek,,,,,5,harmonic,1.75,nw,z,,,,,,,
,,,,,,,,,,,Meriç Sarıkaya,001,2023-11-07_23h27.12.425,vowel_harmony,2023.2.3,Win32,144.0092166,519.4746,520.4744,,,,,,,,,,,,,,,,,,,,,,,,,,520.4744,520.898,m,1,0.4178,,520.898,520.898,,0,238,238,46,1,47,takım,4370,198.5555,3726,0.4073,5,harmonic,1.7,word,m,,,,,,,
,,,,,,,,,,,Meriç Sarıkaya,001,2023-11-07_23h27.12.425,vowel_harmony,2023.2.3,Win32,144.0092166,520.8982,521.8981,,,,,,,,,,,,,,,,,,,,,,,,,,521.8981,522.4535,m,1,0.5508,,522.4536,522.4536,,0,239,239,78,1,79,ulusal,1551,70.4713,1355,0.1481,6,harmonic,1.75,word,m,,,,,,,
,,,,,,,,,,,Meriç Sarıkaya,001,2023-11-07_23h27.12.425,vowel_harmony,2023.2.3,Win32,144.0092166,522.4538,523.4536,,,,,,,,,,,,,,,,,,,,,,,,,,523.4536,523.8772,m,1,0.4175,,523.8772,585.7248,space,0,240,240,97,1,98,mevcut,3007,136.6262,2842,0.3107,6,notharmonic,1.95,word,m,61.8451,,,,,,
,,,,,,,,,,,Meriç Sarıkaya,001,2023-11-07_23h27.12.425,vowel_harmony,2023.2.3,Win32,144.0092166,585.7296,586.7248,,,,,,,,,,,,,,,,,,,,,,,,,,586.7248,587.2526,z,1,0.5193,,587.2526,587.2526,,0,241,241,324,1,325,pakeh,,,,,5,notharmonic,1.9,nw,z,,,,,,,
,,,,,,,,,,,Meriç Sarıkaya,001,2023-11-07_23h27.12.425,vowel_harmony,2023.2.3,Win32,144.0092166,587.2528,588.2525,,,,,,,,,,,,,,,,,,,,,,,,,,588.2525,588.6831,m,1,0.4246,,588.6831,588.6831,,0,242,242,45,1,46,bilgi,5981,271.7529,5353,0.5852,5,harmonic,1.5,word,m,,,,,,,
,,,,,,,,,,,Meriç Sarıkaya,001,2023-11-07_23h27.12.425,vowel_harmony,2023.2.3,Win32,144.0092166,588.6833,589.6831,,,,,,,,,,,,,,,,,,,,,,,,,,589.6831,590.1484,z,1,0.46,,590.1484,590.1484,,0,243,243,210,1,211,şevci,,,,,5,harmonic,1.75,nw,z,,,,,,,
,,,,,,,,,,,Meriç Sarıkaya,001,2023-11-07_23h27.12.425,vowel_harmony,2023.2.3,Win32,144.0092166,590.1485,591.1484,,,,,,,,,,,,,,,,,,,,,,,,,,591.1484,591.5928,z,1,0.4345,,591.5929,591.5929,,0,244,244,269,1,270,vekü,,,,,4,harmonic,2,nw,z,,,,,,,
,,,,,,,,,,,Meriç Sarıkaya,001,2023-11-07_23h27.12.425,vowel_harmony,2023.2.3,Win32,144.0092166,591.5931,592.5928,,,,,,,,,,,,,,,,,,,,,,,,,,592.5928,593.0234,z,1,0.4257,,593.0234,593.0234,,0,245,245,346,1,347,kidan,,,,,5,notharmonic,1.8,nw,z,,,,,,,
,,,,,,,,,,,Meriç Sarıkaya,001,2023-11-07_23h27.12.425,vowel_harmony,2023.2.3,Win32,144.0092166,593.0236,594.0234,,,,,,,,,,,,,,,,,,,,,,,,,,594.0234,594.3776,m,1,0.3465,,594.3776,594.3776,,0,246,246,86,1,87,gerçek,8983,408.1519,8058,0.8809,6,harmonic,1.7,word,m,,,,,,,
,,,,,,,,,,,Meriç Sarıkaya,001,2023-11-07_23h27.12.425,vowel_harmony,2023.2.3,Win32,144.0092166,594.3778,595.3775,,,,,,,,,,,,,,,,,,,,,,,,,,595.3776,595.8359,m,1,0.4521,,595.8359,595.8359,,0,247,247,94,1,95,final,876,39.802,778,0.0851,5,notharmonic,1,word,m,,,,,,,
,,,,,,,,,,,Meriç Sarıkaya,001,2023-11-07_23h27.12.425,vowel_harmony,2023.2.3,Win32,144.0092166,595.8361,596.8359,,,,,,,,,,,,,,,,,,,,,,,,,,596.8359,597.336,z,1,0.4921,,597.336,597.336,,0,248,248,350,1,351,resun,,,,,5,notharmonic,1.85,nw,z,,,,,,,
,,,,,,,,,,,Meriç Sarıkaya,001,2023-11-07_23h27.12.425,vowel_harmony,2023.2.3,Win32,144.0092166,597.3362,598.3359,,,,,,,,,,,,,,,,,,,,,,,,,,598.3359,598.7873,z,1,0.4416,,598.7874,598.7874,,0,249,249,194,1,195,rayna,,,,,5,harmonic,1.7,nw,z,,,,,,,
,,,,,,,,,,,Meriç Sarıkaya,001,2023-11-07_23h27.12.425,vowel_harmony,2023.2.3,Win32,144.0092166,598.7875,599.7873,,,,,,,,,,,,,,,,,,,,,,,,,,599.7873,600.204,m,1,0.4073,,600.204,600.2041,,0,250,250,139,1,140,lira,1253,56.9314,947,0.1035,4,notharmonic,1.4,word,m,,,,,,,
,,,,,,,,,,,Meriç Sarıkaya,001,2023-11-07_23h27.12.425,vowel_harmony,2023.2.3,Win32,144.0092166,600.2042,601.204,,,,,,,,,,,,,,,,,,,,,,,,,,601.2041,601.6623,m,1,0.4518,,601.6623,601.6624,,0,251,251,142,1,143,siyasi,2909,132.1734,2445,0.2673,6,notharmonic,1.8,word,m,,,,,,,
,,,,,,,,,,,Meriç Sarıkaya,001,2023-11-07_23h27.12.425,vowel_harmony,2023.2.3,Win32,144.0092166,601.6626,602.6623,,,,,,,,,,,,,,,,,,,,,,,,,,602.6624,603.1068,z,1,0.434,,603.1068,603.1068,,0,252,252,199,1,200,movu,,,,,4,harmonic,1.9,nw,z,,,,,,,
,,,,,,,,,,,Meriç Sarıkaya,001,2023-11-07_23h27.12.425,vowel_harmony,2023.2.3,Win32,144.0092166,603.107,604.1068,,,,,,,,,,,,,,,,,,,,,,,,,,604.1068,604.6276,m,0,0.5103,,604.6277,604.6277,,0,253,253,308,1,309,hafer,,,,,5,notharmonic,1.85,nw,z,,,,,,,
,,,,,,,,,,,Meriç Sarıkaya,001,2023-11-07_23h27.12.425,vowel_harmony,2023.2.3,Win32,144.0092166,604.6278,605.6277,,,,,,,,,,,,,,,,,,,,,,,,,,605.6277,606.079,m,1,0.4404,,606.079,606.0791,,0,254,254,152,1,153,tedavi,1865,84.7382,1597,0.1746,6,notharmonic,1.8,word,m,,,,,,,
,,,,,,,,,,,Meriç Sarıkaya,001,2023-11-07_23h27.12.425,vowel_harmony,2023.2.3,Win32,144.0092166,606.0792,607.079,,,,,,,,,,,,,,,,,,,,,,,,,,607.079,607.5304,m,1,0.4446,,607.5305,607.5305,,0,255,255,31,1,32,fazla,18293,831.1614,16694,1.825,5,harmonic,1,word,m,,,,,,,
,,,,,,,,,,,Meriç Sarıkaya,001,2023-11-07_23h27.12.425,vowel_harmony,2023.2.3,Win32,144.0092166,607.5306,608.5304,,,,,,,,,,,,,,,,,,,,,,,,,,608.5304,608.9471,m,1,0.4082,,608.9471,608.9471,,0,256,256,150,1,151,sabit,1046,47.5261,915,0.1,5,notharmonic,1.75,word,m,,,,,,,
,,,,,,,,,,,Meriç Sarıkaya,001,2023-11-07_23h27.12.425,vowel_harmony,2023.2.3,Win32,144.0092166,608.9473,609.9471,,,,,,,,,,,,,,,,,,,,,,,,,,609.9471,610.4262,z,1,0.4732,,610.4263,610.4263,,0,257,257,202,1,203,güvin,,,,,5,harmonic,1.95,nw,z,,,,,,,
,,,,,,,,,,,Meriç Sarıkaya,001,2023-11-07_23h27.12.425,vowel_harmony,2023.2.3,Win32,144.0092166,610.4264,611.4262,,,,,,,,,,,,,,,,,,,,,,,,,,611.4262,611.8985,z,1,0.4618,,611.8985,611.8986,,0,258,258,261,1,262,kardok,,,,,6,harmonic,1.95,nw,z,,,,,,,
,,,,,,,,,,,Meriç Sarıkaya,001,2023-11-07_23h27.12.425,vowel_harmony,2023.2.3,Win32,144.0092166,611.8987,612.8985,,,,,,,,,,,,,,,,,,,,,,,,,,612.8985,613.3569,m,1,0.4511,,613.3569,613.3569,,0,259,259,165,1,166,gazete,1402,63.7013,1270,0.1388,6,notharmonic,1.8,word,m,,,,,,,
,,,,,,,,,,,Meriç Sarıkaya,001,2023-11-07_23h27.12.425,vowel_harmony,2023.2.3,Win32,144.0092166,613.3571,614.3568,,,,,,,,,,,,,,,,,,,,,,,,,,614.3568,615.0443,m,1,0.6832,,615.0444,615.0444,,0,260,260,42,1,43,ürün,2268,103.0489,1954,0.2136,4,harmonic,1.1,word,m,,,,,,,
,,,,,,,,,,,Meriç Sarıkaya,001,2023-11-07_23h27.12.425,vowel_harmony,2023.2.3,Win32,144.0092166,615.0445,616.0443,,,,,,,,,,,,,,,,,,,,,,,,,,616.0443,616.4957,m,1,0.4408,,616.4957,616.4958,,0,261,261,40,1,41,tepki,1695,77.0141,1578,0.1725,5,harmonic,1.55,word,m,,,,,,,
,,,,,,,,,,,Meriç Sarıkaya,001,2023-11-07_23h27.12.425,vowel_harmony,2023.2.3,Win32,144.0092166,616.496,617.4958,,,,,,,,,,,,,,,,,,,,,,,,,,617.4958,617.9749,z,1,0.4701,,617.9749,617.9749,,0,262,262,241,1,242,porlam,,,,,6,harmonic,2,nw,z,,,,,,,
,,,,,,,,,,,Meriç Sarıkaya,001,2023-11-07_23h27.12.425,vowel_harmony,2023.2.3,Win32,144.0092166,617.9752,618.9749,,,,,,,,,,,,,,,,,,,,,,,,,,618.9749,619.4958,m,1,0.5146,,619.4958,619.4958,,0,263,263,108,1,109,tarih,2806,127.4935,2483,0.2714,5,notharmonic,1.55,word,m,,,,,,,
,,,,,,,,,,,Meriç Sarıkaya,001,2023-11-07_23h27.12.425,vowel_harmony,2023.2.3,Win32,144.0092166,619.496,620.4957,,,,,,,,,,,,,,,,,,,,,,,,,,620.4957,620.9334,m,1,0.4328,,620.9334,620.9335,,0,264,264,92,1,93,sahne,1380,62.7017,1238,0.1353,5,notharmonic,1.65,word,m,,,,,,,
,,,,,,,,,,,Meriç Sarıkaya,001,2023-11-07_23h27.12.425,vowel_harmony,2023.2.3,Win32,144.0092166,620.9336,621.9333,,,,,,,,,,,,,,,,,,,,,,,,,,621.9333,622.3777,m,1,0.4353,,622.3777,622.3777,,0,265,265,56,1,57,sağlam,1818,82.6027,1720,0.188,6,harmonic,1.6,word,m,,,,,,,
,,,,,,,,,,,Meriç Sarıkaya,001,2023-11-07_23h27.12.425,vowel_harmony,2023.2.3,Win32,144.0092166,622.378,623.3777,,,,,,,,,,,,,,,,,,,,,,,,,,623.3777,623.8847,z,1,0.5011,,623.8847,623.8847,,0,266,266,333,1,334,heyran,,,,,6,notharmonic,1.85,nw,z,,,,,,,
,,,,,,,,,,,Meriç Sarıkaya,001,2023-11-07_23h27.12.425,vowel_harmony,2023.2.3,Win32,144.0092166,623.8848,624.8846,,,,,,,,,,,,,,,,,,,,,,,,,,624.8846,625.4055,z,1,0.512,,625.4055,625.4055,,0,267,267,283,1,284,fahe,,,,,4,notharmonic,1.95,nw,z,,,,,,,
,,,,,,,,,,,Meriç Sarıkaya,001,2023-11-07_23h27.12.425,vowel_harmony,2023.2.3,Win32,144.0092166,625.4058,626.4055,,,,,,,,,,,,,,,,,,,,,,,,,,626.4055,626.8986,m,1,0.4886,,626.8986,626.8986,,0,268,268,55,1,56,akıl,2208,100.3228,2004,0.2191,4,harmonic,1,word,m,,,,,,,
,,,,,,,,,,,Meriç Sarıkaya,001,2023-11-07_23h27.12.425,vowel_harmony,2023.2.3,Win32,144.0092166,626.8988,627.8985,,,,,,,,,,,,,,,,,,,,,,,,,,627.8985,628.3569,z,1,0.4502,,628.3569,628.3569,,0,269,269,331,1,332,ehun,,,,,4,notharmonic,1.95,nw,z,,,,,,,
,,,,,,,,,,,Meriç Sarıkaya,001,2023-11-07_23h27.12.425,vowel_harmony,2023.2.3,Win32,144.0092166,628.3571,629.3569,,,,,,,,,,,,,,,,,,,,,,,,,,629.3569,629.7597,m,1,0.396,,629.7597,629.7597,,0,270,270,158,1,159,klasik,1871,85.0108,1734,0.1896,6,notharmonic,2,word,m,,,,,,,
,,,,,,,,,,,Meriç Sarıkaya,001,2023-11-07_23h27.12.425,vowel_harmony,2023.2.3,Win32,144.0092166,629.7599,630.7597,,,,,,,,,,,,,,,,,,,,,,,,,,630.7597,631.2666,z,1,0.5023,,631.2667,631.2667,,0,271,271,272,1,273,daken,,,,,5,notharmonic,1.8,nw,z,,,,,,,
,,,,,,,,,,,Meriç Sarıkaya,001,2023-11-07_23h27.12.425,vowel_harmony,2023.2.3,Win32,144.0092166,631.2669,632.2667,,,,,,,,,,,,,,,,,,,,,,,,,,632.2667,632.9264,z,1,0.6499,,632.9264,632.9264,,0,272,272,353,1,354,ikno,,,,,4,notharmonic,1.95,nw,z,,,,,,,
,,,,,,,,,,,Meriç Sarıkaya,001,2023-11-07_23h27.12.425,vowel_harmony,2023.2.3,Win32,144.0092166,632.9266,633.9264,,,,,,,,,,,,,,,,,,,,,,,,,,633.9264,634.3709,m,1,0.4366,,634.3709,634.3709,,0,273,273,64,1,65,lise,888,40.3472,816,0.0892,4,harmonic,1.5,word,m,,,,,,,
,,,,,,,,,,,Meriç Sarıkaya,001,2023-11-07_23h27.12.425,vowel_harmony,2023.2.3,Win32,144.0092166,634.371,635.3708,,,,,,,,,,,,,,,,,,,,,,,,,,635.3708,635.8639,z,1,0.4858,,635.8639,635.8639,,0,274,274,201,1,202,ergiy,,,,,5,harmonic,1.85,nw,z,,,,,,,
,,,,,,,,,,,Meriç Sarıkaya,001,2023-11-07_23h27.12.425,vowel_harmony,2023.2.3,Win32,144.0092166,635.8641,636.8638,,,,,,,,,,,,,,,,,,,,,,,,,,636.8638,637.3014,m,1,0.43,,637.3015,637.3015,,0,275,275,145,1,146,iddia,2430,110.4096,2295,0.2509,5,notharmonic,1.85,word,m,,,,,,,
,,,,,,,,,,,Meriç Sarıkaya,001,2023-11-07_23h27.12.425,vowel_harmony,2023.2.3,Win32,144.0092166,637.3016,638.3014,,,,,,,,,,,,,,,,,,,,,,,,,,638.3014,638.7876,z,1,0.4785,,638.7876,638.7876,,0,276,276,195,1,196,netüm,,,,,5,harmonic,1.95,nw,z,,,,,,,
,,,,,,,,,,,Meriç Sarıkaya,001,2023-11-07_23h27.12.425,vowel_harmony,2023.2.3,Win32,144.0092166,638.7878,639.7875,,,,,,,,,,,,,,,,,,,,,,,,,,639.7876,640.3153,z,1,0.5175,,640.3153,640.3154,,0,277,277,351,1,352,seğlık,,,,,6,notharmonic,1.9,nw,z,,,,,,,
,,,,,,,,,,,Meriç Sarıkaya,001,2023-11-07_23h27.12.425,vowel_harmony,2023.2.3,Win32,144.0092166,640.3155,641.3153,,,,,,,,,,,,,,,,,,,,,,,,,,641.3153,642.1417,z,1,0.8196,,642.1418,642.1418,,0,278,278,236,1,237,toklam,,,,,6,harmonic,1.85,nw,z,,,,,,,
,,,,,,,,,,,Meriç Sarıkaya,001,2023-11-07_23h27.12.425,vowel_harmony,2023.2.3,Win32,144.0092166,642.1419,643.1417,,,,,,,,,,,,,,,,,,,,,,,,,,643.1417,643.6487,m,1,0.4978,,643.6487,643.6487,,0,279,279,164,1,165,sinema,1575,71.5618,1304,0.1426,6,notharmonic,1.8,word,m,,,,,,,
,,,,,,,,,,,Meriç Sarıkaya,001,2023-11-07_23h27.12.425,vowel_harmony,2023.2.3,Win32,144.0092166,643.6489,644.6487,,,,,,,,,,,,,,,,,,,,,,,,,,644.6487,645.0932,m,1,0.4374,,645.0932,645.0932,,0,280,280,168,1,169,kilo,3389,153.9827,2646,0.2893,4,notharmonic,1.65,word,m,,,,,,,
,,,,,,,,,,,Meriç Sarıkaya,001,2023-11-07_23h27.12.425,vowel_harmony,2023.2.3,Win32,144.0092166,645.0934,646.0932,,,,,,,,,,,,,,,,,,,,,,,,,,646.0932,646.5168,m,1,0.4189,,646.5168,646.5169,,0,281,281,143,1,144,kitap,8359,379.7998,6786,0.7418,5,notharmonic,1.9,word,m,,,,,,,
,,,,,,,,,,,Meriç Sarıkaya,001,2023-11-07_23h27.12.425,vowel_harmony,2023.2.3,Win32,144.0092166,646.517,647.5167,,,,,,,,,,,,,,,,,,,,,,,,,,647.5167,647.8917,m,1,0.37,,647.8918,647.8918,,0,282,282,4,1,5,metre,1156,52.5241,1015,0.111,5,harmonic,1.7,word,m,,,,,,,
,,,,,,,,,,,Meriç Sarıkaya,001,2023-11-07_23h27.12.425,vowel_harmony,2023.2.3,Win32,144.0092166,647.8919,648.8918,,,,,,,,,,,,,,,,,,,,,,,,,,648.8918,649.3362,z,1,0.4391,,649.3362,649.3362,,0,283,283,220,1,221,denbi,,,,,5,harmonic,1.75,nw,z,,,,,,,
,,,,,,,,,,,Meriç Sarıkaya,001,2023-11-07_23h27.12.425,vowel_harmony,2023.2.3,Win32,144.0092166,649.3364,650.3361,,,,,,,,,,,,,,,,,,,,,,,,,,650.3361,650.7945,m,1,0.4487,,650.7946,650.7946,,0,284,284,13,1,14,nokta,2085,94.7341,1939,0.212,5,harmonic,1.5,word,m,,,,,,,
,,,,,,,,,,,Meriç Sarıkaya,001,2023-11-07_23h27.12.425,vowel_harmony,2023.2.3,Win32,144.0092166,650.7948,651.7945,,,,,,,,,,,,,,,,,,,,,,,,,,651.7945,652.2737,m,1,0.4683,,652.2737,652.2737,,0,285,285,170,1,171,basit,3385,153.801,3177,0.3473,5,notharmonic,1.65,word,m,,,,,,,
,,,,,,,,,,,Meriç Sarıkaya,001,2023-11-07_23h27.12.425,vowel_harmony,2023.2.3,Win32,144.0092166,652.2739,653.2737,,,,,,,,,,,,,,,,,,,,,,,,,,653.2737,653.7251,z,1,0.4453,,653.7251,653.7252,,0,286,286,197,1,198,ranar,,,,,5,harmonic,1.75,nw,z,,,,,,,
,,,,,,,,,,,Meriç Sarıkaya,001,2023-11-07_23h27.12.425,vowel_harmony,2023.2.3,Win32,144.0092166,653.7253,654.7251,,,,,,,,,,,,,,,,,,,,,,,,,,654.7251,655.2945,z,1,0.5642,,655.2945,655.2946,,0,287,287,311,1,312,dedya,,,,,5,notharmonic,1.9,nw,z,,,,,,,
,,,,,,,,,,,Meriç Sarıkaya,001,2023-11-07_23h27.12.425,vowel_harmony,2023.2.3,Win32,144.0092166,655.2948,656.2946,,,,,,,,,,,,,,,,,,,,,,,,,,656.2946,656.9821,z,1,0.6764,,656.9822,656.9823,,0,288,288,212,1,213,ortat,,,,,5,harmonic,1.7,nw,z,,,,,,,
,,,,,,,,,,,Meriç Sarıkaya,001,2023-11-07_23h27.12.425,vowel_harmony,2023.2.3,Win32,144.0092166,656.9824,657.9821,,,,,,,,,,,,,,,,,,,,,,,,,,657.9821,658.6557,z,1,0.6664,,658.6557,658.6557,,0,289,289,357,1,358,işarek,,,,,6,notharmonic,1.95,nw,z,,,,,,,
,,,,,,,,,,,Meriç Sarıkaya,001,2023-11-07_23h27.12.425,vowel_harmony,2023.2.3,Win32,144.0092166,658.6559,659.6556,,,,,,,,,,,,,,,,,,,,,,,,,,659.6556,660.4335,m,1,0.7691,,660.4335,660.4335,,0,290,290,102,1,103,esas,1965,89.2818,1795,0.1962,4,notharmonic,1.75,word,m,,,,,,,
,,,,,,,,,,,Meriç Sarıkaya,001,2023-11-07_23h27.12.425,vowel_harmony,2023.2.3,Win32,144.0092166,660.4336,661.4335,,,,,,,,,,,,,,,,,,,,,,,,,,661.4335,662.1141,z,1,0.6733,,662.1141,662.1141,,0,291,291,211,1,212,yarum,,,,,5,harmonic,1.75,nw,z,,,,,,,
,,,,,,,,,,,Meriç Sarıkaya,001,2023-11-07_23h27.12.425,vowel_harmony,2023.2.3,Win32,144.0092166,662.1142,663.114,,,,,,,,,,,,,,,,,,,,,,,,,,663.114,663.6001,m,1,0.475,,663.6002,663.6002,,0,292,292,41,1,42,zengin,2193,99.6412,2015,0.2203,6,harmonic,1.65,word,m,,,,,,,
,,,,,,,,,,,Meriç Sarıkaya,001,2023-11-07_23h27.12.425,vowel_harmony,2023.2.3,Win32,144.0092166,663.6004,664.6001,,,,,,,,,,,,,,,,,,,,,,,,,,664.6002,665.1488,m,1,0.5387,,665.1488,665.1488,,0,293,293,23,1,24,kurum,986,44.7999,882,0.0964,5,harmonic,1.75,word,m,,,,,,,
,,,,,,,,,,,Meriç Sarıkaya,001,2023-11-07_23h27.12.425,vowel_harmony,2023.2.3,Win32,144.0092166,665.149,666.1488,,,,,,,,,,,,,,,,,,,,,,,,,,666.1488,666.6419,m,1,0.485,,666.6419,666.6419,,0,294,294,33,1,34,moda,1381,62.7472,1231,0.1346,4,harmonic,1.55,word,m,,,,,,,
,,,,,,,,,,,Meriç Sarıkaya,001,2023-11-07_23h27.12.425,vowel_harmony,2023.2.3,Win32,144.0092166,666.642,667.6418,,,,,,,,,,,,,,,,,,,,,,,,,,667.6418,668.1349,z,1,0.488,,668.135,668.135,,0,295,295,213,1,214,kaun,,,,,4,harmonic,1.7,nw,z,,,,,,,
,,,,,,,,,,,Meriç Sarıkaya,001,2023-11-07_23h27.12.425,vowel_harmony,2023.2.3,Win32,144.0092166,668.1351,669.1349,,,,,,,,,,,,,,,,,,,,,,,,,,669.1349,669.6696,z,1,0.526,,669.6696,669.6696,,0,296,296,243,1,244,korguf,,,,,6,harmonic,2,nw,z,,,,,,,
,,,,,,,,,,,Meriç Sarıkaya,001,2023-11-07_23h27.12.425,vowel_harmony,2023.2.3,Win32,144.0092166,669.6698,670.6696,,,,,,,,,,,,,,,,,,,,,,,,,,670.6696,671.1349,m,1,0.458,,671.1349,671.135,,0,297,297,21,1,22,duygu,1877,85.2834,1760,0.1924,5,harmonic,1.8,word,m,,,,,,,
,,,,,,,,,,,Meriç Sarıkaya,001,2023-11-07_23h27.12.425,vowel_harmony,2023.2.3,Win32,144.0092166,671.1351,672.1349,,,,,,,,,,,,,,,,,,,,,,,,,,672.1349,672.7599,z,1,0.619,,672.7599,672.7599,,0,298,298,260,1,261,yarlam,,,,,6,harmonic,1.75,nw,z,,,,,,,
,,,,,,,,,,,Meriç Sarıkaya,001,2023-11-07_23h27.12.425,vowel_harmony,2023.2.3,Win32,144.0092166,672.7601,673.7599,,,,,,,,,,,,,,,,,,,,,,,,,,673.7599,674.3363,z,1,0.5663,,674.3363,674.3363,,0,299,299,338,1,339,pardön,,,,,6,notharmonic,1.95,nw,z,,,,,,,
,,,,,,,,,,,Meriç Sarıkaya,001,2023-11-07_23h27.12.425,vowel_harmony,2023.2.3,Win32,144.0092166,674.3365,675.3362,,,,,,,,,,,,,,,,,,,,,,,,,,675.3363,675.9266,z,1,0.5801,,675.9266,675.9266,,0,300,300,295,1,296,haylin,,,,,6,notharmonic,1.8,nw,z,,,,,,,
,,,,,,,,,,,Meriç Sarıkaya,001,2023-11-07_23h27.12.425,vowel_harmony,2023.2.3,Win32,144.0092166,675.9268,676.9266,,,,,,,,,,,,,,,,,,,,,,,,,,676.9266,677.4752,z,1,0.5388,,677.4752,677.4752,,0,301,301,259,1,260,hayuk,,,,,5,harmonic,1.95,nw,z,,,,,,,
,,,,,,,,,,,Meriç Sarıkaya,001,2023-11-07_23h27.12.425,vowel_harmony,2023.2.3,Win32,144.0092166,677.4754,678.4752,,,,,,,,,,,,,,,,,,,,,,,,,,678.4752,678.9891,z,1,0.5038,,678.9891,678.9892,,0,302,302,233,1,234,devpi,,,,,5,harmonic,1.8,nw,z,,,,,,,
,,,,,,,,,,,Meriç Sarıkaya,001,2023-11-07_23h27.12.425,vowel_harmony,2023.2.3,Win32,144.0092166,678.9893,679.9891,,,,,,,,,,,,,,,,,,,,,,,,,,679.9891,680.4891,z,1,0.4887,,680.4892,680.4892,,0,303,303,315,1,316,takep,,,,,5,notharmonic,1.85,nw,z,,,,,,,
,,,,,,,,,,,Meriç Sarıkaya,001,2023-11-07_23h27.12.425,vowel_harmony,2023.2.3,Win32,144.0092166,680.4893,681.489,,,,,,,,,,,,,,,,,,,,,,,,,,681.4891,682.0863,m,1,0.5876,,682.0864,682.0865,,0,304,304,66,1,67,sanık,768,34.8949,699,0.0764,5,harmonic,1.85,word,m,,,,,,,
,,,,,,,,,,,Meriç Sarıkaya,001,2023-11-07_23h27.12.425,vowel_harmony,2023.2.3,Win32,144.0092166,682.0866,683.0863,,,,,,,,,,,,,,,,,,,,,,,,,,683.0863,683.6419,z,1,0.548,,683.6419,683.642,,0,305,305,255,1,256,yokın,,,,,5,harmonic,1.85,nw,z,,,,,,,
,,,,,,,,,,,Meriç Sarıkaya,001,2023-11-07_23h27.12.425,vowel_harmony,2023.2.3,Win32,144.0092166,683.6421,684.6419,,,,,,,,,,,,,,,,,,,,,,,,,,684.6419,685.142,m,1,0.4905,,685.142,685.142,,0,306,306,101,1,102,imza,1358,61.7021,1253,0.137,4,notharmonic,1.65,word,m,,,,,,,
,,,,,,,,,,,Meriç Sarıkaya,001,2023-11-07_23h27.12.425,vowel_harmony,2023.2.3,Win32,144.0092166,685.1421,686.1419,,,,,,,,,,,,,,,,,,,,,,,,,,686.142,686.6419,m,1,0.4939,,686.6419,686.642,,0,307,307,15,1,16,hayat,7922,359.9443,7314,0.7996,5,harmonic,1.9,word,m,,,,,,,
,,,,,,,,,,,Meriç Sarıkaya,001,2023-11-07_23h27.12.425,vowel_harmony,2023.2.3,Win32,144.0092166,686.6422,687.6419,,,,,,,,,,,,,,,,,,,,,,,,,,687.6419,688.1628,z,1,0.5138,,688.1628,688.1628,,0,308,308,185,1,186,örtin,,,,,5,harmonic,1.9,nw,z,,,,,,,
,,,,,,,,,,,Meriç Sarıkaya,001,2023-11-07_23h27.12.425,vowel_harmony,2023.2.3,Win32,144.0092166,688.163,689.1628,,,,,,,,,,,,,,,,,,,,,,,,,,689.1628,689.6488,z,1,0.4798,,689.6488,689.6489,,0,309,309,323,1,324,devak,,,,,5,notharmonic,1.75,nw,z,,,,,,,
,,,,,,,,,,,Meriç Sarıkaya,001,2023-11-07_23h27.12.425,vowel_harmony,2023.2.3,Win32,144.0092166,689.6491,690.6489,,,,,,,,,,,,,,,,,,,,,,,,,,690.6489,691.1697,m,1,0.5111,,691.1697,691.1698,,0,310,310,95,1,96,takip,4996,226.9984,4651,0.5084,5,notharmonic,1.55,word,m,,,,,,,
,,,,,,,,,,,Meriç Sarıkaya,001,2023-11-07_23h27.12.425,vowel_harmony,2023.2.3,Win32,144.0092166,691.1699,692.1697,,,,,,,,,,,,,,,,,,,,,,,,,,692.1697,692.6559,z,1,0.4807,,692.6559,692.6559,,0,311,311,268,1,269,haldum,,,,,6,harmonic,2,nw,z,,,,,,,
,,,,,,,,,,,Meriç Sarıkaya,001,2023-11-07_23h27.12.425,vowel_harmony,2023.2.3,Win32,144.0092166,692.656,693.6558,,,,,,,,,,,,,,,,,,,,,,,,,,693.6558,694.2184,m,1,0.5571,,694.2184,694.2184,,0,312,312,175,1,176,aile,3655,166.0687,3126,0.3417,4,notharmonic,1,word,m,,,,,,,
,,,,,,,,,,,Meriç Sarıkaya,001,2023-11-07_23h27.12.425,vowel_harmony,2023.2.3,Win32,144.0092166,694.2186,695.2183,,,,,,,,,,,,,,,,,,,,,,,,,,695.2184,695.7878,z,1,0.5601,,695.7878,695.7879,,0,313,313,278,1,279,sekon,,,,,5,notharmonic,1.85,nw,z,,,,,,,
,,,,,,,,,,,Meriç Sarıkaya,001,2023-11-07_23h27.12.425,vowel_harmony,2023.2.3,Win32,144.0092166,695.7881,696.7878,,,,,,,,,,,,,,,,,,,,,,,,,,696.7878,697.385,m,1,0.5875,,697.3851,697.3851,,0,314,314,162,1,163,hariç,1267,57.5675,1233,0.1348,5,notharmonic,1.75,word,m,,,,,,,
,,,,,,,,,,,Meriç Sarıkaya,001,2023-11-07_23h27.12.425,vowel_harmony,2023.2.3,Win32,144.0092166,697.3853,698.385,,,,,,,,,,,,,,,,,,,,,,,,,,698.385,698.8434,z,1,0.4496,,698.8434,698.8434,,0,315,315,342,1,343,kulön,,,,,5,notharmonic,1.9,nw,z,,,,,,,
,,,,,,,,,,,Meriç Sarıkaya,001,2023-11-07_23h27.12.425,vowel_harmony,2023.2.3,Win32,144.0092166,698.8436,699.8434,,,,,,,,,,,,,,,,,,,,,,,,,,699.8434,700.4128,z,1,0.5601,,700.4128,700.4129,,0,316,316,345,1,346,bardeş,,,,,6,notharmonic,1.95,nw,z,,,,,,,
,,,,,,,,,,,Meriç Sarıkaya,001,2023-11-07_23h27.12.425,vowel_harmony,2023.2.3,Win32,144.0092166,700.413,701.4128,,,,,,,,,,,,,,,,,,,,,,,,,,701.4128,702.2392,z,1,0.8163,,702.2392,702.2393,,0,317,317,294,1,295,mesap,,,,,5,notharmonic,1.8,nw,z,,,,,,,
,,,,,,,,,,,Meriç Sarıkaya,001,2023-11-07_23h27.12.425,vowel_harmony,2023.2.3,Win32,144.0092166,702.2394,703.2392,,,,,,,,,,,,,,,,,,,,,,,,,,703.2393,703.7114,m,1,0.4615,,703.7114,703.7115,,0,318,318,9,1,10,karar,8108,368.3954,7436,0.8129,5,harmonic,1.6,word,m,,,,,,,
,,,,,,,,,,,Meriç Sarıkaya,001,2023-11-07_23h27.12.425,vowel_harmony,2023.2.3,Win32,144.0092166,703.7117,704.7114,,,,,,,,,,,,,,,,,,,,,,,,,,704.7114,705.4892,m,1,0.7702,,705.4893,705.4893,,0,319,319,48,1,49,teşvik,932,42.3464,867,0.0948,6,harmonic,1.8,word,m,,,,,,,
,,,,,,,,,,,Meriç Sarıkaya,001,2023-11-07_23h27.12.425,vowel_harmony,2023.2.3,Win32,144.0092166,705.4895,706.4892,,,,,,,,,,,,,,,,,,,,,,,,,,706.4893,706.9198,m,1,0.4255,,706.9199,706.9199,,0,320,320,178,1,179,dikkat,6230,283.0665,5888,0.6437,6,notharmonic,2.05,word,m,,,,,,,
,,,,,,,,,,,Meriç Sarıkaya,001,2023-11-07_23h27.12.425,vowel_harmony,2023.2.3,Win32,144.0092166,706.92,707.9197,,,,,,,,,,,,,,,,,,,,,,,,,,707.9198,708.4963,m,1,0.5678,,708.4963,708.4963,,0,321,321,75,1,76,roman,1499,68.1086,1281,0.14,5,harmonic,1.6,word,m,,,,,,,
,,,,,,,,,,,Meriç Sarıkaya,001,2023-11-07_23h27.12.425,vowel_harmony,2023.2.3,Win32,144.0092166,708.4964,709.4962,,,,,,,,,,,,,,,,,,,,,,,,,,709.4962,709.9755,z,1,0.475,,709.9755,709.9756,,0,322,322,314,1,315,seral,,,,,5,notharmonic,1.7,nw,z,,,,,,,
,,,,,,,,,,,Meriç Sarıkaya,001,2023-11-07_23h27.12.425,vowel_harmony,2023.2.3,Win32,144.0092166,709.9758,710.9754,,,,,,,,,,,,,,,,,,,,,,,,,,710.9754,711.3851,m,1,0.3988,,711.3851,711.3851,,0,323,323,159,1,160,vakit,3476,157.9357,3298,0.3605,5,notharmonic,1.65,word,m,,,,,,,
,,,,,,,,,,,Meriç Sarıkaya,001,2023-11-07_23h27.12.425,vowel_harmony,2023.2.3,Win32,144.0092166,711.3853,712.3851,,,,,,,,,,,,,,,,,,,,,,,,,,712.3851,712.8713,z,1,0.4766,,712.8713,712.8713,,0,324,324,266,1,267,düştön,,,,,6,harmonic,1.9,nw,z,,,,,,,
,,,,,,,,,,,Meriç Sarıkaya,001,2023-11-07_23h27.12.425,vowel_harmony,2023.2.3,Win32,144.0092166,712.8715,713.8712,,,,,,,,,,,,,,,,,,,,,,,,,,713.8712,714.2948,z,1,0.4155,,714.2949,714.2949,,0,325,325,282,1,283,taöz,,,,,4,notharmonic,1.9,nw,z,,,,,,,
,,,,,,,,,,,Meriç Sarıkaya,001,2023-11-07_23h27.12.425,vowel_harmony,2023.2.3,Win32,144.0092166,714.295,715.2949,,,,,,,,,,,,,,,,,,,,,,,,,,715.2949,715.7323,m,1,0.4315,,715.7323,715.7324,,0,326,326,126,1,127,adet,4367,198.4192,3768,0.4119,4,notharmonic,1.4,word,m,,,,,,,
,,,,,,,,,,,Meriç Sarıkaya,001,2023-11-07_23h27.12.425,vowel_harmony,2023.2.3,Win32,144.0092166,715.7325,716.7323,,,,,,,,,,,,,,,,,,,,,,,,,,716.7323,717.3296,z,1,0.5925,,717.3296,717.3296,,0,327,327,208,1,209,yayram,,,,,6,harmonic,1.85,nw,z,,,,,,,
,,,,,,,,,,,Meriç Sarıkaya,001,2023-11-07_23h27.12.425,vowel_harmony,2023.2.3,Win32,144.0092166,717.3298,718.3296,,,,,,,,,,,,,,,,,,,,,,,,,,718.3296,718.7948,m,1,0.4541,,718.7948,718.7949,,0,328,328,53,1,54,gelir,7578,344.3143,7014,0.7668,5,harmonic,1.4,word,m,,,,,,,
,,,,,,,,,,,Meriç Sarıkaya,001,2023-11-07_23h27.12.425,vowel_harmony,2023.2.3,Win32,144.0092166,718.7951,719.7948,,,,,,,,,,,,,,,,,,,,,,,,,,719.7948,720.2324,z,1,0.4332,,720.2325,720.2326,,0,329,329,352,1,353,yılden,,,,,6,notharmonic,1.8,nw,z,,,,,,,
,,,,,,,,,,,Meriç Sarıkaya,001,2023-11-07_23h27.12.425,vowel_harmony,2023.2.3,Win32,144.0092166,720.2326,721.2323,,,,,,,,,,,,,,,,,,,,,,,,,,721.2324,721.6977,m,1,0.4573,,721.6977,721.6977,,0,330,330,62,1,63,cümle,1911,86.8283,1765,0.193,5,harmonic,1.85,word,m,,,,,,,
,,,,,,,,,,,Meriç Sarıkaya,001,2023-11-07_23h27.12.425,vowel_harmony,2023.2.3,Win32,144.0092166,721.6978,722.6977,,,,,,,,,,,,,,,,,,,,,,,,,,722.6977,723.1837,m,1,0.4788,,723.1837,723.1838,,0,331,331,155,1,156,ilaç,1366,62.0656,1215,0.1328,4,notharmonic,1.75,word,m,,,,,,,
,,,,,,,,,,,Meriç Sarıkaya,001,2023-11-07_23h27.12.425,vowel_harmony,2023.2.3,Win32,144.0092166,723.184,724.1838,,,,,,,,,,,,,,,,,,,,,,,,,,724.1838,724.6698,z,1,0.4808,,724.6699,724.6699,,0,332,332,246,1,247,orkın,,,,,5,harmonic,1.9,nw,z,,,,,,,
,,,,,,,,,,,Meriç Sarıkaya,001,2023-11-07_23h27.12.425,vowel_harmony,2023.2.3,Win32,144.0092166,724.6701,725.6698,,,,,,,,,,,,,,,,,,,,,,,,,,725.6698,726.2254,z,1,0.5494,,726.2254,726.2255,,0,333,333,237,1,238,taşal,,,,,5,harmonic,1.8,nw,z,,,,,,,
,,,,,,,,,,,Meriç Sarıkaya,001,2023-11-07_23h27.12.425,vowel_harmony,2023.2.3,Win32,144.0092166,726.2257,727.2254,,,,,,,,,,,,,,,,,,,,,,,,,,727.2254,727.6421,m,1,0.4059,,727.6421,727.6422,,0,334,334,19,1,20,ödül,1063,48.2985,926,0.1012,4,harmonic,1.7,word,m,,,,,,,
,,,,,,,,,,,Meriç Sarıkaya,001,2023-11-07_23h27.12.425,vowel_harmony,2023.2.3,Win32,144.0092166,727.6423,728.6421,,,,,,,,,,,,,,,,,,,,,,,,,,728.6421,729.1213,m,1,0.4691,,729.1213,729.1213,,0,335,335,93,1,94,siyah,2944,133.7637,2527,0.2763,5,notharmonic,1.6,word,m,,,,,,,
,,,,,,,,,,,Meriç Sarıkaya,001,2023-11-07_23h27.12.425,vowel_harmony,2023.2.3,Win32,144.0092166,729.1215,730.1213,,,,,,,,,,,,,,,,,,,,,,,,,,730.1213,730.6146,z,1,0.4886,,730.6146,730.6147,,0,336,336,218,1,219,tezöl,,,,,5,harmonic,2,nw,z,,,,,,,
,,,,,,,,,,,Meriç Sarıkaya,001,2023-11-07_23h27.12.425,vowel_harmony,2023.2.3,Win32,144.0092166,730.6149,731.6143,,,,,,,,,,,,,,,,,,,,,,,,,,731.6144,732.2047,z,1,0.5798,,732.2047,732.2047,,0,337,337,219,1,220,barlum,,,,,6,harmonic,1.9,nw,z,,,,,,,
,,,,,,,,,,,Meriç Sarıkaya,001,2023-11-07_23h27.12.425,vowel_harmony,2023.2.3,Win32,144.0092166,732.2048,733.2046,,,,,,,,,,,,,,,,,,,,,,,,,,733.2047,733.6214,m,1,0.4082,,733.6214,733.6214,,0,338,338,100,1,101,düşman,1065,48.3894,962,0.1052,6,notharmonic,1.85,word,m,,,,,,,
,,,,,,,,,,,Meriç Sarıkaya,001,2023-11-07_23h27.12.425,vowel_harmony,2023.2.3,Win32,144.0092166,733.6215,734.6213,,,,,,,,,,,,,,,,,,,,,,,,,,734.6214,735.1005,z,1,0.4744,,735.1005,735.1006,,0,339,339,274,1,275,pisan,,,,,5,notharmonic,1.75,nw,z,,,,,,,
,,,,,,,,,,,Meriç Sarıkaya,001,2023-11-07_23h27.12.425,vowel_harmony,2023.2.3,Win32,144.0092166,735.1008,736.1004,,,,,,,,,,,,,,,,,,,,,,,,,,736.1005,736.6283,z,1,0.5166,,736.6283,736.6284,,0,340,340,228,1,229,haytam,,,,,6,harmonic,1.75,nw,z,,,,,,,
,,,,,,,,,,,Meriç Sarıkaya,001,2023-11-07_23h27.12.425,vowel_harmony,2023.2.3,Win32,144.0092166,736.6285,737.6283,,,,,,,,,,,,,,,,,,,,,,,,,,737.6283,738.1144,z,1,0.4761,,738.1145,738.1145,,0,341,341,188,1,189,tonık,,,,,5,harmonic,1.85,nw,z,,,,,,,
,,,,,,,,,,,Meriç Sarıkaya,001,2023-11-07_23h27.12.425,vowel_harmony,2023.2.3,Win32,144.0092166,738.1146,739.1144,,,,,,,,,,,,,,,,,,,,,,,,,,739.1144,739.531,z,1,0.4107,,739.5311,739.5311,,0,342,342,319,1,320,biho,,,,,4,notharmonic,2,nw,z,,,,,,,
,,,,,,,,,,,Meriç Sarıkaya,001,2023-11-07_23h27.12.425,vowel_harmony,2023.2.3,Win32,144.0092166,739.5313,740.5311,,,,,,,,,,,,,,,,,,,,,,,,,,740.5311,740.9547,m,1,0.4176,,740.9547,740.9547,,0,343,343,51,1,52,ilginç,2803,127.3572,2690,0.2941,6,harmonic,1.8,word,m,,,,,,,
,,,,,,,,,,,Meriç Sarıkaya,001,2023-11-07_23h27.12.425,vowel_harmony,2023.2.3,Win32,144.0092166,740.9548,741.9546,,,,,,,,,,,,,,,,,,,,,,,,,,741.9547,742.3992,z,1,0.4385,,742.3992,742.3992,,0,344,344,205,1,206,kahay,,,,,5,harmonic,1.9,nw,z,,,,,,,
,,,,,,,,,,,Meriç Sarıkaya,001,2023-11-07_23h27.12.425,vowel_harmony,2023.2.3,Win32,144.0092166,742.3993,743.3992,,,,,,,,,,,,,,,,,,,,,,,,,,743.3992,743.8992,z,1,0.493,,743.8992,743.8992,,0,345,345,340,1,341,minya,,,,,5,notharmonic,1.95,nw,z,,,,,,,
,,,,,,,,,,,Meriç Sarıkaya,001,2023-11-07_23h27.12.425,vowel_harmony,2023.2.3,Win32,144.0092166,743.8993,744.8991,,,,,,,,,,,,,,,,,,,,,,,,,,744.8991,745.3436,m,1,0.436,,745.3436,745.3436,,0,346,346,105,1,106,sahip,10887,494.6621,9847,1.0765,5,notharmonic,1.25,word,m,,,,,,,
,,,,,,,,,,,Meriç Sarıkaya,001,2023-11-07_23h27.12.425,vowel_harmony,2023.2.3,Win32,144.0092166,745.3439,746.3436,,,,,,,,,,,,,,,,,,,,,,,,,,746.3436,747.0589,z,1,0.7096,,747.0589,747.0589,,0,347,347,312,1,313,şahmin,,,,,6,notharmonic,1.8,nw,z,,,,,,,
,,,,,,,,,,,Meriç Sarıkaya,001,2023-11-07_23h27.12.425,vowel_harmony,2023.2.3,Win32,144.0092166,747.0591,748.0589,,,,,,,,,,,,,,,,,,,,,,,,,,748.0589,748.5172,z,1,0.4473,,748.5173,748.5173,,0,348,348,328,1,329,kirul,,,,,5,notharmonic,1.95,nw,z,,,,,,,
,,,,,,,,,,,Meriç Sarıkaya,001,2023-11-07_23h27.12.425,vowel_harmony,2023.2.3,Win32,144.0092166,748.5174,749.5172,,,,,,,,,,,,,,,,,,,,,,,,,,749.5173,750.0659,z,1,0.5434,,750.0659,750.0659,,0,349,349,229,1,230,tonam,,,,,5,harmonic,1.8,nw,z,,,,,,,
,,,,,,,,,,,Meriç Sarıkaya,001,2023-11-07_23h27.12.425,vowel_harmony,2023.2.3,Win32,144.0092166,750.066,751.0659,,,,,,,,,,,,,,,,,,,,,,,,,,751.0659,751.5659,m,1,0.4897,,751.5659,751.5659,,0,350,350,12,1,13,konu,5400,245.3546,5110,0.5586,4,harmonic,1,word,m,,,,,,,
,,,,,,,,,,,Meriç Sarıkaya,001,2023-11-07_23h27.12.425,vowel_harmony,2023.2.3,Win32,144.0092166,751.5661,752.5659,,,,,,,,,,,,,,,,,,,,,,,,,,752.5659,753.045,m,1,0.4678,,753.045,753.045,,0,351,351,14,1,15,yaşam,4348,197.5559,3918,0.4283,5,harmonic,1.4,word,m,,,,,,,
,,,,,,,,,,,Meriç Sarıkaya,001,2023-11-07_23h27.12.425,vowel_harmony,2023.2.3,Win32,144.0092166,753.0452,754.045,,,,,,,,,,,,,,,,,,,,,,,,,,754.045,754.4478,m,1,0.3959,,754.4478,754.4478,,0,352,352,65,1,66,fikir,2552,115.9528,2413,0.2638,5,harmonic,1.9,word,m,,,,,,,
,,,,,,,,,,,Meriç Sarıkaya,001,2023-11-07_23h27.12.425,vowel_harmony,2023.2.3,Win32,144.0092166,754.448,755.4478,,,,,,,,,,,,,,,,,,,,,,,,,,755.4478,755.9894,z,1,0.5358,,755.9895,755.9896,,0,353,353,186,1,187,habık,,,,,5,harmonic,1.9,nw,z,,,,,,,
,,,,,,,,,,,Meriç Sarıkaya,001,2023-11-07_23h27.12.425,vowel_harmony,2023.2.3,Win32,144.0092166,755.9897,756.9895,,,,,,,,,,,,,,,,,,,,,,,,,,756.9895,757.4687,m,1,0.473,,757.4687,757.4687,,0,354,354,141,1,142,madde,3793,172.3389,3389,0.3705,5,notharmonic,1.7,word,m,,,,,,,
,,,,,,,,,,,Meriç Sarıkaya,001,2023-11-07_23h27.12.425,vowel_harmony,2023.2.3,Win32,144.0092166,757.4688,758.4686,,,,,,,,,,,,,,,,,,,,,,,,,,758.4686,758.9409,z,1,0.4635,,758.9409,758.941,,0,355,355,230,1,231,bikir,,,,,5,harmonic,1.75,nw,z,,,,,,,
,,,,,,,,,,,Meriç Sarıkaya,001,2023-11-07_23h27.12.425,vowel_harmony,2023.2.3,Win32,144.0092166,758.9411,759.9409,,,,,,,,,,,,,,,,,,,,,,,,,,759.9409,760.4131,z,1,0.464,,760.4131,760.4131,,0,356,356,337,1,338,bakem,,,,,5,notharmonic,1.7,nw,z,,,,,,,
,,,,,,,,,,,Meriç Sarıkaya,001,2023-11-07_23h27.12.425,vowel_harmony,2023.2.3,Win32,144.0092166,760.4133,761.4131,,,,,,,,,,,,,,,,,,,,,,,,,,761.4131,761.8368,m,1,0.4142,,761.8368,761.8368,,0,357,357,127,1,128,şahane,1153,52.3877,1108,0.1211,6,notharmonic,1.8,word,m,,,,,,,
,,,,,,,,,,,Meriç Sarıkaya,001,2023-11-07_23h27.12.425,vowel_harmony,2023.2.3,Win32,144.0092166,761.837,762.8368,,,,,,,,,,,,,,,,,,,,,,,,,,762.8368,763.2812,z,1,0.4347,,763.2812,763.2812,,0,358,358,339,1,340,asmel,,,,,5,notharmonic,1.95,nw,z,,,,,,,
,,,,,,,,,,,Meriç Sarıkaya,001,2023-11-07_23h27.12.425,vowel_harmony,2023.2.3,Win32,144.0092166,763.2814,764.2812,,,,,,,,,,,,,,,,,,,,,,,,,,764.2812,764.6978,m,1,0.4057,,764.6979,764.6979,,0,359,359,90,1,91,tarif,2834,128.7657,2611,0.2854,5,notharmonic,1.5,word,m,,,,,,,
,,,,,,,,,,,Meriç Sarıkaya,001,2023-11-07_23h27.12.425,vowel_harmony,2023.2.3,Win32,144.0092166,,,,,,,,,,,,,,,,,,,,,,,,,,,,,,,,,,,,,,,,,,,,,,,,,,,,,,,764.6982,766.2674,space,1.5661,