Welcome_screen.started,Welcome_screen.stopped,key_respwelcome.keys,key_respwelcome.rt,key_respwelcome.duration,intro_x.thisRepN,intro_x.thisTrialN,intro_x.thisN,intro_x.thisIndex,intro_x.ran,Introduction,participant,session,date,expName,psychopyVersion,OS,frameRate,Fixation.started,Fixation.stopped,Studypractice.started,Studypractice.stopped,key_respstudy.keys,key_respstudy.corr,key_respstudy.rt,key_respstudy.duration,rt,corr,Feedback.started,Feedback.stopped,practice_loop.thisRepN,practice_loop.thisTrialN,practice_loop.thisN,practice_loop.thisIndex,practice_loop.ran,item_nr_p,target_p,isHarmonic_p,target_cond_p,CorrAns_p,Instraction.started,Instraction.stopped,key_respınstraction.keys,key_respınstraction.rt,key_respınstraction.duration,TestTrial.started,TestTrial.stopped,key_respTest.keys,key_respTest.corr,key_respTest.rt,key_respTest.duration,Pause.started,Pause.stopped,key_resp_xx.keys,test_loop.thisRepN,test_loop.thisTrialN,test_loop.thisN,test_loop.thisIndex,test_loop.ran,item_nr,target,BlogFreq_A1,BlogFreqpm_A1,BlogCD_A1,BlogCDPc_A1,WordLength_A1,isHarmonic_A1,old20,target_cond,CorrAns,key_resp_xx.rt,key_resp_xx.duration,Goodbye_screen.started,Goodbye_screen.stopped,key_respgoodbye.keys,key_respgoodbye.rt,key_respgoodbye.duration
0.0347,2.026,space,1.9012,,0,0,0,0,1,"Deneye hoş geldiniz,

Devam etmek için BOŞLUK tuşuna basınız.",sezix,001,2023-11-09_13h37.57.394,vowel_harmony,2023.2.3,Win32,12.01475412,,,,,,,,,,,,,,,,,,,,,,,,,,,,,,,,,,,,,,,,,,,,,,,,,,,,,,,,,,,
2.0265,8.0157,space,5.8783,,0,1,1,1,1,"Bu çalışma Valencia Üniversitesi kapsamında yürütülmektedir. Deneydeki göreviniz, ekrana çıkacak Türkçe sözcüklerin kelime olup olmadığını belirlemenizdir. Eğer sözcük gerçek bir kelime ise ""m"" tuşuna, değil ise ""z"" tuşuna basınız.   

Devam etmek için BOŞLUK tuşuna basınız.",sezix,001,2023-11-09_13h37.57.394,vowel_harmony,2023.2.3,Win32,12.01475412,,,,,,,,,,,,,,,,,,,,,,,,,,,,,,,,,,,,,,,,,,,,,,,,,,,,,,,,,,,
8.0159,12.1019,space,3.9695,0.0002,0,2,2,2,1,"Her sözcük için en fazla iki saniyede cevap vermeniz beklenmektedir. Aksi takdirde deney bir sonraki sözcük ile devam eder. 
Bu çalışmada oldukça hızlı ve doğru cevaplama yapmanız beklenmektedir.

Devam etmek için BOŞLUK tuşuna basınız.",sezix,001,2023-11-09_13h37.57.394,vowel_harmony,2023.2.3,Win32,12.01475412,,,,,,,,,,,,,,,,,,,,,,,,,,,,,,,,,,,,,,,,,,,,,,,,,,,,,,,,,,,
12.1021,16.5292,space,4.3049,,0,3,3,3,1,"Çalışmaya başlamadan önce ufak bir pratik yer almaktadır.
Kelimedir: ""m""
Kelime değildir: ""z""

Pratik teste başlamak için BOŞLUK tuşuna basınız. ",sezix,001,2023-11-09_13h37.57.394,vowel_harmony,2023.2.3,Win32,12.01475412,,,,,,,,,,,,,,,,,,,,,,,,,,,,,,,,,,,,,,,,,,,,,,,,,,,,,,,,,,,
,,,,,,,,,,,sezix,001,2023-11-09_13h37.57.394,vowel_harmony,2023.2.3,Win32,12.01475412,16.5374,17.4971,17.4972,19.3281,z,1,1.7289,,1.7289,1,19.3282,20.8282,0,0,0,11,1,12,geki,harmonic,nw,z,,,,,,,,,,,,,,,,,,,,,,,,,,,,,,,,,,,,,
,,,,,,,,,,,sezix,001,2023-11-09_13h37.57.394,vowel_harmony,2023.2.3,Win32,12.01475412,20.8286,21.7973,21.7974,22.6828,z,0,0.7757,,0.7757,0,22.6828,24.2006,0,1,1,6,1,7,pilot,notharmonic,word,m,,,,,,,,,,,,,,,,,,,,,,,,,,,,,,,,,,,,,
,,,,,,,,,,,sezix,001,2023-11-09_13h37.57.394,vowel_harmony,2023.2.3,Win32,12.01475412,24.2008,25.1562,25.1562,26.5576,m,1,1.2986,,1.2986,1,26.5578,28.0752,0,2,2,5,1,6,bahçe,notharmonic,word,m,,,,,,,,,,,,,,,,,,,,,,,,,,,,,,,,,,,,,
,,,,,,,,,,,sezix,001,2023-11-09_13h37.57.394,vowel_harmony,2023.2.3,Win32,12.01475412,28.0754,29.049,29.049,29.8176,m,1,0.66,,0.66,1,29.8176,31.2382,0,3,3,0,1,1,ihale,notharmonic,word,m,,,,,,,,,,,,,,,,,,,,,,,,,,,,,,,,,,,,,
,,,,,,,,,,,sezix,001,2023-11-09_13h37.57.394,vowel_harmony,2023.2.3,Win32,12.01475412,31.2384,32.1976,32.1976,33.0507,z,1,0.7455,,0.7455,1,33.0508,34.5572,0,4,4,9,1,10,orat,harmonic,nw,z,,,,,,,,,,,,,,,,,,,,,,,,,,,,,,,,,,,,,
,,,,,,,,,,,sezix,001,2023-11-09_13h37.57.394,vowel_harmony,2023.2.3,Win32,12.01475412,34.5574,35.5187,35.5188,36.296,z,1,0.6713,0.0001,0.6713,1,36.296,37.8001,0,5,5,15,1,16,mımal,harmonic,nw,z,,,,,,,,,,,,,,,,,,,,,,,,,,,,,,,,,,,,,
,,,,,,,,,,,sezix,001,2023-11-09_13h37.57.394,vowel_harmony,2023.2.3,Win32,12.01475412,37.8004,38.7737,38.7738,39.432,m,1,0.5577,,0.5577,1,39.4322,40.8566,0,6,6,7,1,8,oran,harmonic,word,m,,,,,,,,,,,,,,,,,,,,,,,,,,,,,,,,,,,,,
,,,,,,,,,,,sezix,001,2023-11-09_13h37.57.394,vowel_harmony,2023.2.3,Win32,12.01475412,40.8569,41.8156,41.8156,42.4665,m,1,0.548,,0.548,1,42.4665,43.8835,0,7,7,2,1,3,memur,notharmonic,word,m,,,,,,,,,,,,,,,,,,,,,,,,,,,,,,,,,,,,,
,,,,,,,,,,,sezix,001,2023-11-09_13h37.57.394,vowel_harmony,2023.2.3,Win32,12.01475412,43.8838,44.8467,44.8467,45.505,z,1,0.5532,,0.5532,1,45.5051,46.9459,0,8,8,13,1,14,pilar,notharmonic,nw,z,,,,,,,,,,,,,,,,,,,,,,,,,,,,,,,,,,,,,
,,,,,,,,,,,sezix,001,2023-11-09_13h37.57.394,vowel_harmony,2023.2.3,Win32,12.01475412,46.9461,47.9079,47.9079,48.5705,z,1,0.5611,,0.5611,1,48.5705,49.9868,0,9,9,14,1,15,pimer,harmonic,nw,z,,,,,,,,,,,,,,,,,,,,,,,,,,,,,,,,,,,,,
,,,,,,,,,,,sezix,001,2023-11-09_13h37.57.394,vowel_harmony,2023.2.3,Win32,12.01475412,49.9869,50.9681,50.9681,51.6345,m,1,0.5623,0,0.5623,1,51.6346,53.0666,0,10,10,1,1,2,veri,harmonic,word,m,,,,,,,,,,,,,,,,,,,,,,,,,,,,,,,,,,,,,
,,,,,,,,,,,sezix,001,2023-11-09_13h37.57.394,vowel_harmony,2023.2.3,Win32,12.01475412,53.0669,54.0617,54.0617,54.834,z,1,0.6686,0.0001,0.6686,1,54.834,56.2595,0,11,11,12,1,13,ihlot,notharmonic,nw,z,,,,,,,,,,,,,,,,,,,,,,,,,,,,,,,,,,,,,
,,,,,,,,,,,sezix,001,2023-11-09_13h37.57.394,vowel_harmony,2023.2.3,Win32,12.01475412,56.2597,57.2412,57.2412,57.9962,z,1,0.6508,,0.6508,1,57.9962,59.4984,0,12,12,8,1,9,tahip,notharmonic,nw,z,,,,,,,,,,,,,,,,,,,,,,,,,,,,,,,,,,,,,
,,,,,,,,,,,sezix,001,2023-11-09_13h37.57.394,vowel_harmony,2023.2.3,Win32,12.01475412,59.4988,60.4786,60.4786,61.1255,z,1,0.5449,,0.5449,1,61.1256,62.5809,0,13,13,10,1,11,mahne,notharmonic,nw,z,,,,,,,,,,,,,,,,,,,,,,,,,,,,,,,,,,,,,
,,,,,,,,,,,sezix,001,2023-11-09_13h37.57.394,vowel_harmony,2023.2.3,Win32,12.01475412,62.5812,63.5041,63.5041,64.0611,m,1,0.4511,,0.4511,1,64.0611,65.4985,0,14,14,4,1,5,mimar,notharmonic,word,m,,,,,,,,,,,,,,,,,,,,,,,,,,,,,,,,,,,,,
,,,,,,,,,,,sezix,001,2023-11-09_13h37.57.394,vowel_harmony,2023.2.3,Win32,12.01475412,65.4988,66.5005,66.5005,67.1639,m,1,0.5612,,0.5612,1,67.1639,68.5948,0,15,15,3,1,4,ihlal,notharmonic,word,m,,,,,,,,,,,,,,,,,,,,,,,,,,,,,,,,,,,,,
,,,,,,,,,,,sezix,001,2023-11-09_13h37.57.394,vowel_harmony,2023.2.3,Win32,12.01475412,,,,,,,,,,,,,,,,,,,,,,,68.5952,73.9886,space,5.2675,,,,,,,,,,,,,,,,,,,,,,,,,,,,,,,,,
,,,,,,,,,,,sezix,001,2023-11-09_13h37.57.394,vowel_harmony,2023.2.3,Win32,12.01475412,74.0377,75.0067,,,,,,,,,,,,,,,,,,,,,,,,,,75.0068,75.7801,z,1,0.6689,0,75.7802,75.7813,,0,0,0,282,1,283,taöz,,,,,4,notharmonic,1.9,nw,z,,,,,,,
,,,,,,,,,,,sezix,001,2023-11-09_13h37.57.394,vowel_harmony,2023.2.3,Win32,12.01475412,75.7816,76.7576,,,,,,,,,,,,,,,,,,,,,,,,,,76.7577,77.4258,m,1,0.566,,77.4258,77.4259,,0,1,1,17,1,18,yakın,7990,363.0339,7595,0.8303,5,harmonic,1.8,word,m,,,,,,,
,,,,,,,,,,,sezix,001,2023-11-09_13h37.57.394,vowel_harmony,2023.2.3,Win32,12.01475412,77.4261,78.397,,,,,,,,,,,,,,,,,,,,,,,,,,78.3971,79.1712,z,1,0.6643,,79.1712,79.1713,,0,2,2,318,1,319,yorgün,,,,,6,notharmonic,1.9,nw,z,,,,,,,
,,,,,,,,,,,sezix,001,2023-11-09_13h37.57.394,vowel_harmony,2023.2.3,Win32,12.01475412,79.1716,80.1712,,,,,,,,,,,,,,,,,,,,,,,,,,80.1712,80.7851,m,1,0.5021,,80.7852,80.7853,,0,3,3,22,1,23,anlam,1730,78.6043,1617,0.1768,5,harmonic,1.25,word,m,,,,,,,
,,,,,,,,,,,sezix,001,2023-11-09_13h37.57.394,vowel_harmony,2023.2.3,Win32,12.01475412,80.7856,81.6986,,,,,,,,,,,,,,,,,,,,,,,,,,81.6987,82.3045,z,1,0.4932,,82.3045,82.3047,,0,4,4,311,1,312,dedya,,,,,5,notharmonic,1.9,nw,z,,,,,,,
,,,,,,,,,,,sezix,001,2023-11-09_13h37.57.394,vowel_harmony,2023.2.3,Win32,12.01475412,82.3049,83.3266,,,,,,,,,,,,,,,,,,,,,,,,,,83.3266,83.9837,z,1,0.5544,,83.9838,83.9838,,0,5,5,342,1,343,kulön,,,,,5,notharmonic,1.9,nw,z,,,,,,,
,,,,,,,,,,,sezix,001,2023-11-09_13h37.57.394,vowel_harmony,2023.2.3,Win32,12.01475412,83.984,84.9639,,,,,,,,,,,,,,,,,,,,,,,,,,84.964,85.5175,m,1,0.4447,,85.5175,85.5176,,0,6,6,11,1,12,umut,1988,90.3268,1818,0.1987,4,harmonic,1.55,word,m,,,,,,,
,,,,,,,,,,,sezix,001,2023-11-09_13h37.57.394,vowel_harmony,2023.2.3,Win32,12.01475412,85.5178,86.5071,,,,,,,,,,,,,,,,,,,,,,,,,,86.5072,87.1721,m,1,0.5601,,87.1722,87.1722,,0,7,7,93,1,94,siyah,2944,133.7637,2527,0.2763,5,notharmonic,1.6,word,m,,,,,,,
,,,,,,,,,,,sezix,001,2023-11-09_13h37.57.394,vowel_harmony,2023.2.3,Win32,12.01475412,87.1725,88.1472,,,,,,,,,,,,,,,,,,,,,,,,,,88.1472,88.8177,z,1,0.5667,,88.8177,88.8178,,0,8,8,209,1,210,sapor,,,,,5,harmonic,1.8,nw,z,,,,,,,
,,,,,,,,,,,sezix,001,2023-11-09_13h37.57.394,vowel_harmony,2023.2.3,Win32,12.01475412,88.818,89.7963,,,,,,,,,,,,,,,,,,,,,,,,,,89.7964,90.3417,m,1,0.4422,,90.3417,90.3419,,0,9,9,119,1,120,kulüp,649,29.488,467,0.0511,5,notharmonic,1.4,word,m,,,,,,,
,,,,,,,,,,,sezix,001,2023-11-09_13h37.57.394,vowel_harmony,2023.2.3,Win32,12.01475412,90.3422,91.3234,,,,,,,,,,,,,,,,,,,,,,,,,,91.3234,91.8643,m,1,0.4391,,91.8643,91.8644,,0,10,10,53,1,54,gelir,7578,344.3143,7014,0.7668,5,harmonic,1.4,word,m,,,,,,,
,,,,,,,,,,,sezix,001,2023-11-09_13h37.57.394,vowel_harmony,2023.2.3,Win32,12.01475412,91.8647,92.8565,,,,,,,,,,,,,,,,,,,,,,,,,,92.8565,93.6248,z,1,0.66,,93.6249,93.6249,,0,11,11,344,1,345,barika,,,,,6,notharmonic,1.75,nw,z,,,,,,,
,,,,,,,,,,,sezix,001,2023-11-09_13h37.57.394,vowel_harmony,2023.2.3,Win32,12.01475412,93.6251,94.6033,,,,,,,,,,,,,,,,,,,,,,,,,,94.6033,95.3736,z,1,0.6637,,95.3737,95.3738,,0,12,12,224,1,225,ertre,,,,,5,harmonic,1.95,nw,z,,,,,,,
,,,,,,,,,,,sezix,001,2023-11-09_13h37.57.394,vowel_harmony,2023.2.3,Win32,12.01475412,95.374,96.3534,,,,,,,,,,,,,,,,,,,,,,,,,,96.3534,97.1304,m,1,0.6746,,97.1305,97.1305,,0,13,13,111,1,112,kahve,2634,119.6785,2283,0.2496,5,notharmonic,1.85,word,m,,,,,,,
,,,,,,,,,,,sezix,001,2023-11-09_13h37.57.394,vowel_harmony,2023.2.3,Win32,12.01475412,97.1306,98.1165,,,,,,,,,,,,,,,,,,,,,,,,,,98.1165,99.224,z,1,0.9952,,99.224,99.224,,0,14,14,267,1,268,nokuma,,,,,6,harmonic,1.75,nw,z,,,,,,,
,,,,,,,,,,,sezix,001,2023-11-09_13h37.57.394,vowel_harmony,2023.2.3,Win32,12.01475412,99.2242,100.2045,,,,,,,,,,,,,,,,,,,,,,,,,,100.2045,100.9776,m,1,0.6694,,100.9777,100.9777,,0,15,15,35,1,36,hava,4975,226.0443,4398,0.4808,4,harmonic,1,word,m,,,,,,,
,,,,,,,,,,,sezix,001,2023-11-09_13h37.57.394,vowel_harmony,2023.2.3,Win32,12.01475412,100.9779,101.9581,,,,,,,,,,,,,,,,,,,,,,,,,,101.9581,102.502,m,1,0.4403,,102.502,102.502,,0,16,16,94,1,95,final,876,39.802,778,0.0851,5,notharmonic,1,word,m,,,,,,,
,,,,,,,,,,,sezix,001,2023-11-09_13h37.57.394,vowel_harmony,2023.2.3,Win32,12.01475412,102.5023,103.4983,,,,,,,,,,,,,,,,,,,,,,,,,,103.4983,104.1649,m,1,0.5609,,104.165,104.165,,0,17,17,137,1,138,parti,2613,118.7244,2059,0.2251,5,notharmonic,1.8,word,m,,,,,,,
,,,,,,,,,,,sezix,001,2023-11-09_13h37.57.394,vowel_harmony,2023.2.3,Win32,12.01475412,104.1652,105.1503,,,,,,,,,,,,,,,,,,,,,,,,,,105.1503,105.9217,z,1,0.6664,,105.9217,105.9218,,0,18,18,208,1,209,yayram,,,,,6,harmonic,1.85,nw,z,,,,,,,
,,,,,,,,,,,sezix,001,2023-11-09_13h37.57.394,vowel_harmony,2023.2.3,Win32,12.01475412,105.9221,106.9299,,,,,,,,,,,,,,,,,,,,,,,,,,106.9299,107.607,z,1,0.5681,,107.607,107.607,,0,19,19,354,1,355,taden,,,,,5,notharmonic,1.7,nw,z,,,,,,,
,,,,,,,,,,,sezix,001,2023-11-09_13h37.57.394,vowel_harmony,2023.2.3,Win32,12.01475412,107.6072,108.5875,,,,,,,,,,,,,,,,,,,,,,,,,,108.5875,109.3736,z,1,0.6803,,109.3737,109.3737,,0,20,20,247,1,248,hafgın,,,,,6,harmonic,2,nw,z,,,,,,,
,,,,,,,,,,,sezix,001,2023-11-09_13h37.57.394,vowel_harmony,2023.2.3,Win32,12.01475412,109.3739,110.3645,,,,,,,,,,,,,,,,,,,,,,,,,,110.3645,111.1439,m,1,0.6719,,111.144,111.144,,0,21,21,54,1,55,yedek,825,37.4847,732,0.08,5,harmonic,1.65,word,m,,,,,,,
,,,,,,,,,,,sezix,001,2023-11-09_13h37.57.394,vowel_harmony,2023.2.3,Win32,12.01475412,111.1443,112.1259,,,,,,,,,,,,,,,,,,,,,,,,,,112.1259,112.8914,m,1,0.6634,,112.8914,112.8915,,0,22,22,147,1,148,işaret,1888,85.7832,1787,0.1954,6,notharmonic,1,word,m,,,,,,,
,,,,,,,,,,,sezix,001,2023-11-09_13h37.57.394,vowel_harmony,2023.2.3,Win32,12.01475412,112.8917,113.8681,,,,,,,,,,,,,,,,,,,,,,,,,,113.8681,114.5341,z,1,0.5607,,114.5341,114.5342,,0,23,23,319,1,320,biho,,,,,4,notharmonic,2,nw,z,,,,,,,
,,,,,,,,,,,sezix,001,2023-11-09_13h37.57.394,vowel_harmony,2023.2.3,Win32,12.01475412,114.5344,115.5272,,,,,,,,,,,,,,,,,,,,,,,,,,115.5272,116.1933,m,1,0.5621,,116.1933,116.1935,,0,24,24,158,1,159,klasik,1871,85.0108,1734,0.1896,6,notharmonic,2,word,m,,,,,,,
,,,,,,,,,,,sezix,001,2023-11-09_13h37.57.394,vowel_harmony,2023.2.3,Win32,12.01475412,116.1937,117.1935,,,,,,,,,,,,,,,,,,,,,,,,,,117.1935,117.8963,z,1,0.5886,,117.8963,117.8964,,0,25,25,223,1,224,kakon,,,,,5,harmonic,1.85,nw,z,,,,,,,
,,,,,,,,,,,sezix,001,2023-11-09_13h37.57.394,vowel_harmony,2023.2.3,Win32,12.01475412,117.8967,118.8844,,,,,,,,,,,,,,,,,,,,,,,,,,118.8844,119.5588,z,1,0.5658,,119.5589,119.559,,0,26,26,290,1,291,aipa,,,,,4,notharmonic,1.95,nw,z,,,,,,,
,,,,,,,,,,,sezix,001,2023-11-09_13h37.57.394,vowel_harmony,2023.2.3,Win32,12.01475412,119.5591,120.5446,,,,,,,,,,,,,,,,,,,,,,,,,,120.5446,121.2117,m,1,0.5621,,121.2117,121.2118,,0,27,27,118,1,119,meşhur,1092,49.6161,1057,0.1156,6,notharmonic,1.9,word,m,,,,,,,
,,,,,,,,,,,sezix,001,2023-11-09_13h37.57.394,vowel_harmony,2023.2.3,Win32,12.01475412,121.2121,122.1955,,,,,,,,,,,,,,,,,,,,,,,,,,122.1955,122.9908,m,1,0.6873,,122.9908,122.9908,,0,28,28,57,1,58,bölüm,1910,86.7828,1605,0.1755,5,harmonic,1.45,word,m,,,,,,,
,,,,,,,,,,,sezix,001,2023-11-09_13h37.57.394,vowel_harmony,2023.2.3,Win32,12.01475412,122.9912,123.9134,,,,,,,,,,,,,,,,,,,,,,,,,,123.9134,124.5874,z,1,0.5698,,124.5874,124.5875,,0,29,29,250,1,251,kakuk,,,,,5,harmonic,1.9,nw,z,,,,,,,
,,,,,,,,,,,sezix,001,2023-11-09_13h37.57.394,vowel_harmony,2023.2.3,Win32,12.01475412,124.5877,125.5808,,,,,,,,,,,,,,,,,,,,,,,,,,125.5808,126.2533,m,1,0.5689,,126.2534,126.2534,,0,30,30,24,1,25,yorgun,1153,52.3877,1108,0.1211,6,harmonic,1.55,word,m,,,,,,,
,,,,,,,,,,,sezix,001,2023-11-09_13h37.57.394,vowel_harmony,2023.2.3,Win32,12.01475412,126.2536,127.2624,,,,,,,,,,,,,,,,,,,,,,,,,,127.2625,127.9455,m,1,0.5794,,127.9455,127.9455,,0,31,31,34,1,35,hoca,1893,86.0104,1526,0.1668,4,harmonic,1.45,word,m,,,,,,,
,,,,,,,,,,,sezix,001,2023-11-09_13h37.57.394,vowel_harmony,2023.2.3,Win32,12.01475412,127.9457,128.8933,,,,,,,,,,,,,,,,,,,,,,,,,,128.8933,129.6426,z,1,0.6391,,129.6426,129.6427,,0,32,32,327,1,328,parkeş,,,,,6,notharmonic,1.9,nw,z,,,,,,,
,,,,,,,,,,,sezix,001,2023-11-09_13h37.57.394,vowel_harmony,2023.2.3,Win32,12.01475412,129.6429,130.5974,,,,,,,,,,,,,,,,,,,,,,,,,,130.5974,131.3662,m,1,0.6673,,131.3662,131.3663,,0,33,33,98,1,99,paket,1532,69.608,1392,0.1522,5,notharmonic,1.55,word,m,,,,,,,
,,,,,,,,,,,sezix,001,2023-11-09_13h37.57.394,vowel_harmony,2023.2.3,Win32,12.01475412,131.3665,132.3397,,,,,,,,,,,,,,,,,,,,,,,,,,132.3397,133.1213,z,1,0.6771,,133.1213,133.1214,,0,34,34,309,1,310,yorgen,,,,,6,notharmonic,1.9,nw,z,,,,,,,
,,,,,,,,,,,sezix,001,2023-11-09_13h37.57.394,vowel_harmony,2023.2.3,Win32,12.01475412,133.1216,134.128,,,,,,,,,,,,,,,,,,,,,,,,,,134.128,134.7924,m,1,0.56,,134.7924,134.7924,,0,35,35,70,1,71,yarın,3440,156.3,3222,0.3522,5,harmonic,1.85,word,m,,,,,,,
,,,,,,,,,,,sezix,001,2023-11-09_13h37.57.394,vowel_harmony,2023.2.3,Win32,12.01475412,134.7927,135.7769,,,,,,,,,,,,,,,,,,,,,,,,,,135.777,136.4331,m,1,0.5491,,136.4331,136.4332,,0,36,36,133,1,134,taze,2268,103.0489,2062,0.2254,4,notharmonic,1.65,word,m,,,,,,,
,,,,,,,,,,,sezix,001,2023-11-09_13h37.57.394,vowel_harmony,2023.2.3,Win32,12.01475412,136.4334,137.4356,,,,,,,,,,,,,,,,,,,,,,,,,,137.4357,138.1963,z,1,0.655,,138.1963,138.1963,,0,37,37,297,1,298,sapet,,,,,5,notharmonic,1.85,nw,z,,,,,,,
,,,,,,,,,,,sezix,001,2023-11-09_13h37.57.394,vowel_harmony,2023.2.3,Win32,12.01475412,138.1966,139.1351,,,,,,,,,,,,,,,,,,,,,,,,,,139.1351,139.7919,z,1,0.5529,,139.7919,139.7919,,0,38,38,270,1,271,miyaj,,,,,5,notharmonic,1.9,nw,z,,,,,,,
,,,,,,,,,,,sezix,001,2023-11-09_13h37.57.394,vowel_harmony,2023.2.3,Win32,12.01475412,139.7922,140.7823,,,,,,,,,,,,,,,,,,,,,,,,,,140.7823,141.4446,z,1,0.5584,,141.4446,141.4447,,0,39,39,191,1,192,doab,,,,,4,harmonic,2,nw,z,,,,,,,
,,,,,,,,,,,sezix,001,2023-11-09_13h37.57.394,vowel_harmony,2023.2.3,Win32,12.01475412,141.4449,142.422,,,,,,,,,,,,,,,,,,,,,,,,,,142.4221,142.978,m,1,0.4532,,142.978,142.9781,,0,40,40,43,1,44,geniş,3380,153.5738,3185,0.3482,5,harmonic,1.35,word,m,,,,,,,
,,,,,,,,,,,sezix,001,2023-11-09_13h37.57.394,vowel_harmony,2023.2.3,Win32,12.01475412,142.9784,143.9611,,,,,,,,,,,,,,,,,,,,,,,,,,143.9611,144.7468,m,1,0.6826,,144.7468,144.7468,,0,41,41,4,1,5,metre,1156,52.5241,1015,0.111,5,harmonic,1.7,word,m,,,,,,,
,,,,,,,,,,,sezix,001,2023-11-09_13h37.57.394,vowel_harmony,2023.2.3,Win32,12.01475412,144.747,145.7437,,,,,,,,,,,,,,,,,,,,,,,,,,145.7437,146.4085,z,1,0.562,,146.4085,146.4085,,0,42,42,238,1,239,kocı,,,,,4,harmonic,1.95,nw,z,,,,,,,
,,,,,,,,,,,sezix,001,2023-11-09_13h37.57.394,vowel_harmony,2023.2.3,Win32,12.01475412,146.4087,147.3893,,,,,,,,,,,,,,,,,,,,,,,,,,147.3893,148.1666,m,1,0.6623,,148.1667,148.1667,,0,43,43,37,1,38,hayvan,2363,107.3653,1894,0.2071,6,harmonic,1.5,word,m,,,,,,,
,,,,,,,,,,,sezix,001,2023-11-09_13h37.57.394,vowel_harmony,2023.2.3,Win32,12.01475412,148.1671,149.1612,,,,,,,,,,,,,,,,,,,,,,,,,,149.1612,149.8295,z,1,0.5604,,149.8295,149.8296,,0,44,44,251,1,252,oştay,,,,,5,harmonic,1.95,nw,z,,,,,,,
,,,,,,,,,,,sezix,001,2023-11-09_13h37.57.394,vowel_harmony,2023.2.3,Win32,12.01475412,149.8298,150.8055,,,,,,,,,,,,,,,,,,,,,,,,,,150.8055,151.5945,z,1,0.6835,,151.5945,151.5945,,0,45,45,341,1,342,işgan,,,,,5,notharmonic,1.95,nw,z,,,,,,,
,,,,,,,,,,,sezix,001,2023-11-09_13h37.57.394,vowel_harmony,2023.2.3,Win32,12.01475412,151.5948,152.5957,,,,,,,,,,,,,,,,,,,,,,,,,,152.5957,153.3649,z,1,0.6605,,153.365,153.3651,,0,46,46,239,1,240,şekik,,,,,5,harmonic,1.7,nw,z,,,,,,,
,,,,,,,,,,,sezix,001,2023-11-09_13h37.57.394,vowel_harmony,2023.2.3,Win32,12.01475412,153.3654,154.3774,,,,,,,,,,,,,,,,,,,,,,,,,,154.3774,155.1634,z,1,0.6767,,155.1635,155.1636,,0,47,47,228,1,229,haytam,,,,,6,harmonic,1.75,nw,z,,,,,,,
,,,,,,,,,,,sezix,001,2023-11-09_13h37.57.394,vowel_harmony,2023.2.3,Win32,12.01475412,155.1638,156.1522,,,,,,,,,,,,,,,,,,,,,,,,,,156.1523,156.8188,m,1,0.562,,156.8188,156.8188,,0,48,48,121,1,122,mesaj,1604,72.8794,1386,0.1515,5,notharmonic,1.8,word,m,,,,,,,
,,,,,,,,,,,sezix,001,2023-11-09_13h37.57.394,vowel_harmony,2023.2.3,Win32,12.01475412,156.819,157.8069,,,,,,,,,,,,,,,,,,,,,,,,,,157.8069,158.7426,z,1,0.8311,,158.7426,158.7427,,0,49,49,320,1,321,finak,,,,,5,notharmonic,1.85,nw,z,,,,,,,
,,,,,,,,,,,sezix,001,2023-11-09_13h37.57.394,vowel_harmony,2023.2.3,Win32,12.01475412,158.7428,159.7264,,,,,,,,,,,,,,,,,,,,,,,,,,159.7264,160.4946,m,1,0.6634,,160.4946,160.4947,,0,50,50,142,1,143,siyasi,2909,132.1734,2445,0.2673,6,notharmonic,1.8,word,m,,,,,,,
,,,,,,,,,,,sezix,001,2023-11-09_13h37.57.394,vowel_harmony,2023.2.3,Win32,12.01475412,160.495,161.4985,,,,,,,,,,,,,,,,,,,,,,,,,,161.4985,162.2715,m,0,0.6662,0,162.2715,162.2715,,0,51,51,295,1,296,haylin,,,,,6,notharmonic,1.8,nw,z,,,,,,,
,,,,,,,,,,,sezix,001,2023-11-09_13h37.57.394,vowel_harmony,2023.2.3,Win32,12.01475412,162.2717,163.2577,,,,,,,,,,,,,,,,,,,,,,,,,,163.2578,164.0238,m,1,0.6637,,164.0238,164.0239,,0,52,52,32,1,33,temel,4231,192.2399,3851,0.421,5,harmonic,1.55,word,m,,,,,,,
,,,,,,,,,,,sezix,001,2023-11-09_13h37.57.394,vowel_harmony,2023.2.3,Win32,12.01475412,164.024,165.0045,,,,,,,,,,,,,,,,,,,,,,,,,,165.0046,165.6781,z,0,0.5671,0,165.6782,165.6782,,0,53,53,102,1,103,esas,1965,89.2818,1795,0.1962,4,notharmonic,1.75,word,m,,,,,,,
,,,,,,,,,,,sezix,001,2023-11-09_13h37.57.394,vowel_harmony,2023.2.3,Win32,12.01475412,165.6784,166.6588,,,,,,,,,,,,,,,,,,,,,,,,,,166.6589,167.5457,z,1,0.7824,,167.5457,167.5457,,0,54,54,269,1,270,vekü,,,,,4,harmonic,2,nw,z,,,,,,,
,,,,,,,,,,,sezix,001,2023-11-09_13h37.57.394,vowel_harmony,2023.2.3,Win32,12.01475412,167.5459,168.5338,,,,,,,,,,,,,,,,,,,,,,,,,,168.5339,169.1907,m,1,0.5535,,169.1908,169.1908,,0,55,55,6,1,7,hayal,4498,204.3713,4079,0.4459,5,harmonic,1.45,word,m,,,,,,,
,,,,,,,,,,,sezix,001,2023-11-09_13h37.57.394,vowel_harmony,2023.2.3,Win32,12.01475412,169.191,170.1823,,,,,,,,,,,,,,,,,,,,,,,,,,170.1824,170.8567,m,1,0.5704,,170.8567,170.8567,,0,56,56,40,1,41,tepki,1695,77.0141,1578,0.1725,5,harmonic,1.55,word,m,,,,,,,
,,,,,,,,,,,sezix,001,2023-11-09_13h37.57.394,vowel_harmony,2023.2.3,Win32,12.01475412,170.857,171.845,,,,,,,,,,,,,,,,,,,,,,,,,,171.845,172.5244,z,1,0.5752,,172.5244,172.5245,,0,57,57,286,1,287,cedan,,,,,5,notharmonic,1.8,nw,z,,,,,,,
,,,,,,,,,,,sezix,001,2023-11-09_13h37.57.394,vowel_harmony,2023.2.3,Win32,12.01475412,172.5247,173.5084,,,,,,,,,,,,,,,,,,,,,,,,,,173.5085,174.3016,z,1,0.6893,,174.3016,174.3017,,0,58,58,181,1,182,rapkı,,,,,5,harmonic,1.85,nw,z,,,,,,,
,,,,,,,,,,,sezix,001,2023-11-09_13h37.57.394,vowel_harmony,2023.2.3,Win32,12.01475412,174.302,175.323,,,,,,,,,,,,,,,,,,,,,,,,,,175.323,175.976,z,1,0.5491,,175.9761,175.9761,,0,59,59,315,1,316,takep,,,,,5,notharmonic,1.85,nw,z,,,,,,,
,,,,,,,,,,,sezix,001,2023-11-09_13h37.57.394,vowel_harmony,2023.2.3,Win32,12.01475412,175.9764,176.9629,,,,,,,,,,,,,,,,,,,,,,,,,,176.9629,177.632,m,1,0.5588,9.99999E-05,177.6321,177.6321,,0,60,60,103,1,104,tane,5623,255.4868,5075,0.5548,4,notharmonic,1.3,word,m,,,,,,,
,,,,,,,,,,,sezix,001,2023-11-09_13h37.57.394,vowel_harmony,2023.2.3,Win32,12.01475412,177.6323,178.6152,,,,,,,,,,,,,,,,,,,,,,,,,,178.6152,179.3108,m,1,0.5918,0.0001,179.3108,179.3108,,0,61,61,91,1,92,ifade,6177,280.6584,5726,0.626,5,notharmonic,1.7,word,m,,,,,,,
,,,,,,,,,,,sezix,001,2023-11-09_13h37.57.394,vowel_harmony,2023.2.3,Win32,12.01475412,179.3111,180.2415,,,,,,,,,,,,,,,,,,,,,,,,,,180.2415,180.9047,z,1,0.5604,,180.9048,180.9048,,0,62,62,244,1,245,kaof,,,,,4,harmonic,1.9,nw,z,,,,,,,
,,,,,,,,,,,sezix,001,2023-11-09_13h37.57.394,vowel_harmony,2023.2.3,Win32,12.01475412,180.905,181.8932,,,,,,,,,,,,,,,,,,,,,,,,,,181.8932,182.8067,m,1,0.8077,0.0001,182.8068,182.8068,,0,63,63,9,1,10,karar,8108,368.3954,7436,0.8129,5,harmonic,1.6,word,m,,,,,,,
,,,,,,,,,,,sezix,001,2023-11-09_13h37.57.394,vowel_harmony,2023.2.3,Win32,12.01475412,182.807,183.737,,,,,,,,,,,,,,,,,,,,,,,,,,183.737,184.6406,z,1,0.7944,,184.6406,184.6407,,0,64,64,217,1,218,sanfız,,,,,6,harmonic,1.85,nw,z,,,,,,,
,,,,,,,,,,,sezix,001,2023-11-09_13h37.57.394,vowel_harmony,2023.2.3,Win32,12.01475412,184.641,185.6293,,,,,,,,,,,,,,,,,,,,,,,,,,185.6294,186.6231,z,1,0.8887,,186.6231,186.6231,,0,65,65,195,1,196,netüm,,,,,5,harmonic,1.95,nw,z,,,,,,,
,,,,,,,,,,,sezix,001,2023-11-09_13h37.57.394,vowel_harmony,2023.2.3,Win32,12.01475412,186.6233,187.6236,,,,,,,,,,,,,,,,,,,,,,,,,,187.6236,188.2924,m,1,0.5654,,188.2924,188.2924,,0,66,66,99,1,100,ilave,3173,144.1685,2619,0.2863,5,notharmonic,1.85,word,m,,,,,,,
,,,,,,,,,,,sezix,001,2023-11-09_13h37.57.394,vowel_harmony,2023.2.3,Win32,12.01475412,188.2927,189.2776,,,,,,,,,,,,,,,,,,,,,,,,,,189.2777,190.1618,m,1,0.7798,,190.1618,190.1619,,0,67,67,173,1,174,sade,1193,54.2052,1114,0.1218,4,notharmonic,1.55,word,m,,,,,,,
,,,,,,,,,,,sezix,001,2023-11-09_13h37.57.394,vowel_harmony,2023.2.3,Win32,12.01475412,190.1622,191.1546,,,,,,,,,,,,,,,,,,,,,,,,,,191.1547,191.8242,m,1,0.5651,,191.8243,191.8243,,0,68,68,27,1,28,bölge,1283,58.2944,1123,0.1228,5,harmonic,1.65,word,m,,,,,,,
,,,,,,,,,,,sezix,001,2023-11-09_13h37.57.394,vowel_harmony,2023.2.3,Win32,12.01475412,191.8245,192.8153,,,,,,,,,,,,,,,,,,,,,,,,,,192.8153,193.4846,z,1,0.5668,,193.4846,193.4846,,0,69,69,187,1,188,remrin,,,,,6,harmonic,1.9,nw,z,,,,,,,
,,,,,,,,,,,sezix,001,2023-11-09_13h37.57.394,vowel_harmony,2023.2.3,Win32,12.01475412,193.4849,194.4807,,,,,,,,,,,,,,,,,,,,,,,,,,194.4807,195.2613,z,1,0.6771,0.0001,195.2614,195.2615,,0,70,70,335,1,336,lilo,,,,,4,notharmonic,1.8,nw,z,,,,,,,
,,,,,,,,,,,sezix,001,2023-11-09_13h37.57.394,vowel_harmony,2023.2.3,Win32,12.01475412,195.2616,196.2737,,,,,,,,,,,,,,,,,,,,,,,,,,196.2737,197.16,m,1,0.7805,,197.16,197.16,,0,71,71,160,1,161,hakem,603,27.3979,473,0.0517,5,notharmonic,1.3,word,m,,,,,,,
,,,,,,,,,,,sezix,001,2023-11-09_13h37.57.394,vowel_harmony,2023.2.3,Win32,12.01475412,197.1602,198.1611,,,,,,,,,,,,,,,,,,,,,,,,,,198.1612,199.0504,z,1,0.7787,9.99999E-05,199.0505,199.0505,,0,72,72,275,1,276,tahçe,,,,,5,notharmonic,1.95,nw,z,,,,,,,
,,,,,,,,,,,sezix,001,2023-11-09_13h37.57.394,vowel_harmony,2023.2.3,Win32,12.01475412,199.0507,200.0407,,,,,,,,,,,,,,,,,,,,,,,,,,200.0408,200.8217,z,1,0.6713,,200.8217,200.8217,,0,73,73,243,1,244,korguf,,,,,6,harmonic,2,nw,z,,,,,,,
,,,,,,,,,,,sezix,001,2023-11-09_13h37.57.394,vowel_harmony,2023.2.3,Win32,12.01475412,200.822,201.806,,,,,,,,,,,,,,,,,,,,,,,,,,201.806,202.4595,z,1,0.5494,,202.4595,202.4596,,0,74,74,261,1,262,kardok,,,,,6,harmonic,1.95,nw,z,,,,,,,
,,,,,,,,,,,sezix,001,2023-11-09_13h37.57.394,vowel_harmony,2023.2.3,Win32,12.01475412,202.4598,203.4544,,,,,,,,,,,,,,,,,,,,,,,,,,203.4545,204.3298,z,1,0.7723,9.99999E-05,204.3298,204.3298,,0,75,75,307,1,308,merbat,,,,,6,notharmonic,1.95,nw,z,,,,,,,
,,,,,,,,,,,sezix,001,2023-11-09_13h37.57.394,vowel_harmony,2023.2.3,Win32,12.01475412,204.3301,205.3071,,,,,,,,,,,,,,,,,,,,,,,,,,205.3072,206.0762,m,1,0.665,,206.0762,206.0762,,0,76,76,120,1,121,ihmal,1002,45.5269,977,0.1068,5,notharmonic,1.65,word,m,,,,,,,
,,,,,,,,,,,sezix,001,2023-11-09_13h37.57.394,vowel_harmony,2023.2.3,Win32,12.01475412,206.0764,207.0686,,,,,,,,,,,,,,,,,,,,,,,,,,207.0686,208.0577,z,1,0.8834,,208.0577,208.0577,,0,77,77,190,1,191,reklen,,,,,6,harmonic,1.8,nw,z,,,,,,,
,,,,,,,,,,,sezix,001,2023-11-09_13h37.57.394,vowel_harmony,2023.2.3,Win32,12.01475412,208.0579,209.0469,,,,,,,,,,,,,,,,,,,,,,,,,,209.0469,209.8094,z,1,0.6596,,209.8094,209.8095,,0,78,78,258,1,259,karıha,,,,,6,harmonic,1.75,nw,z,,,,,,,
,,,,,,,,,,,sezix,001,2023-11-09_13h37.57.394,vowel_harmony,2023.2.3,Win32,12.01475412,209.8097,210.8106,,,,,,,,,,,,,,,,,,,,,,,,,,210.8106,211.5742,m,1,0.6598,,211.5743,211.5744,,0,79,79,124,1,125,ilan,1579,71.7435,1499,0.1639,4,notharmonic,1,word,m,,,,,,,
,,,,,,,,,,,sezix,001,2023-11-09_13h37.57.394,vowel_harmony,2023.2.3,Win32,12.01475412,211.5745,212.5489,,,,,,,,,,,,,,,,,,,,,,,,,,212.5489,213.2361,z,1,0.5837,,213.2361,213.2362,,0,80,80,343,1,344,tarne,,,,,5,notharmonic,1.85,nw,z,,,,,,,
,,,,,,,,,,,sezix,001,2023-11-09_13h37.57.394,vowel_harmony,2023.2.3,Win32,12.01475412,213.2365,214.2231,,,,,,,,,,,,,,,,,,,,,,,,,,214.2231,215.0164,m,1,0.6897,,215.0165,215.0166,,0,81,81,48,1,49,teşvik,932,42.3464,867,0.0948,6,harmonic,1.8,word,m,,,,,,,
,,,,,,,,,,,sezix,001,2023-11-09_13h37.57.394,vowel_harmony,2023.2.3,Win32,12.01475412,215.0169,216.011,,,,,,,,,,,,,,,,,,,,,,,,,,216.011,216.8865,z,1,0.7705,,216.8865,216.8866,,0,82,82,352,1,353,yılden,,,,,6,notharmonic,1.8,nw,z,,,,,,,
,,,,,,,,,,,sezix,001,2023-11-09_13h37.57.394,vowel_harmony,2023.2.3,Win32,12.01475412,216.8868,217.8682,,,,,,,,,,,,,,,,,,,,,,,,,,217.8682,218.6502,m,1,0.6784,,218.6502,218.6503,,0,83,83,5,1,6,bebek,3301,149.9843,2794,0.3054,5,harmonic,1.6,word,m,,,,,,,
,,,,,,,,,,,sezix,001,2023-11-09_13h37.57.394,vowel_harmony,2023.2.3,Win32,12.01475412,218.6505,219.642,,,,,,,,,,,,,,,,,,,,,,,,,,219.642,220.4071,z,1,0.6591,,220.4072,220.4072,,0,84,84,264,1,265,vepü,,,,,4,harmonic,2,nw,z,,,,,,,
,,,,,,,,,,,sezix,001,2023-11-09_13h37.57.394,vowel_harmony,2023.2.3,Win32,12.01475412,220.4074,221.3838,,,,,,,,,,,,,,,,,,,,,,,,,,221.3838,222.053,z,1,0.566,,222.053,222.053,,0,85,85,213,1,214,kaun,,,,,4,harmonic,1.7,nw,z,,,,,,,
,,,,,,,,,,,sezix,001,2023-11-09_13h37.57.394,vowel_harmony,2023.2.3,Win32,12.01475412,222.0533,223.0474,,,,,,,,,,,,,,,,,,,,,,,,,,223.0474,223.8097,m,1,0.6579,,223.8097,223.8097,,0,86,86,161,1,162,komik,1617,73.4701,1506,0.1646,5,notharmonic,1.75,word,m,,,,,,,
,,,,,,,,,,,sezix,001,2023-11-09_13h37.57.394,vowel_harmony,2023.2.3,Win32,12.01475412,223.81,224.7939,,,,,,,,,,,,,,,,,,,,,,,,,,224.7939,225.5573,m,1,0.6584,,225.5573,225.5573,,0,87,87,135,1,136,hafif,3355,152.4379,3101,0.339,5,notharmonic,1.75,word,m,,,,,,,
,,,,,,,,,,,sezix,001,2023-11-09_13h37.57.394,vowel_harmony,2023.2.3,Win32,12.01475412,225.5576,226.5429,,,,,,,,,,,,,,,,,,,,,,,,,,226.5429,227.2099,z,1,0.5577,,227.21,227.2101,,0,88,88,359,1,360,kardez,,,,,6,notharmonic,1.95,nw,z,,,,,,,
,,,,,,,,,,,sezix,001,2023-11-09_13h37.57.394,vowel_harmony,2023.2.3,Win32,12.01475412,227.2102,228.199,,,,,,,,,,,,,,,,,,,,,,,,,,228.199,229.065,z,1,0.7634,,229.065,229.065,,0,89,89,288,1,289,molit,,,,,5,notharmonic,1.95,nw,z,,,,,,,
,,,,,,,,,,,sezix,001,2023-11-09_13h37.57.394,vowel_harmony,2023.2.3,Win32,12.01475412,229.0652,230.0498,,,,,,,,,,,,,,,,,,,,,,,,,,230.0498,230.7159,z,1,0.5562,,230.7159,230.7159,,0,90,90,292,1,293,kinam,,,,,5,notharmonic,1.85,nw,z,,,,,,,
,,,,,,,,,,,sezix,001,2023-11-09_13h37.57.394,vowel_harmony,2023.2.3,Win32,12.01475412,230.7161,231.7058,,,,,,,,,,,,,,,,,,,,,,,,,,231.7058,232.369,z,1,0.5595,,232.369,232.3692,,0,91,91,220,1,221,denbi,,,,,5,harmonic,1.75,nw,z,,,,,,,
,,,,,,,,,,,sezix,001,2023-11-09_13h37.57.394,vowel_harmony,2023.2.3,Win32,12.01475412,232.3693,233.3566,,,,,,,,,,,,,,,,,,,,,,,,,,233.3567,234.01,m,1,0.5481,,234.01,234.01,,0,92,92,144,1,145,garip,2567,116.6343,2355,0.2574,5,notharmonic,1.65,word,m,,,,,,,
,,,,,,,,,,,sezix,001,2023-11-09_13h37.57.394,vowel_harmony,2023.2.3,Win32,12.01475412,234.0103,235.0112,,,,,,,,,,,,,,,,,,,,,,,,,,235.0112,236.0072,m,1,0.8873,,236.0072,236.0073,,0,93,93,123,1,124,haber,4559,207.1429,4151,0.4538,5,notharmonic,1.85,word,m,,,,,,,
,,,,,,,,,,,sezix,001,2023-11-09_13h37.57.394,vowel_harmony,2023.2.3,Win32,12.01475412,236.0076,236.9929,,,,,,,,,,,,,,,,,,,,,,,,,,236.9929,237.7645,z,1,0.6664,,237.7646,237.7646,,0,94,94,330,1,331,vahçe,,,,,5,notharmonic,1.9,nw,z,,,,,,,
,,,,,,,,,,,sezix,001,2023-11-09_13h37.57.394,vowel_harmony,2023.2.3,Win32,12.01475412,237.7648,238.7563,,,,,,,,,,,,,,,,,,,,,,,,,,238.7563,240.1923,z,1,1.3327,,240.1924,240.1924,,0,95,95,358,1,359,yangin,,,,,6,notharmonic,1.9,nw,z,,,,,,,
,,,,,,,,,,,sezix,001,2023-11-09_13h37.57.394,vowel_harmony,2023.2.3,Win32,12.01475412,240.1926,241.1855,,,,,,,,,,,,,,,,,,,,,,,,,,241.1855,241.9608,z,1,0.6698,,241.9608,241.961,,0,96,96,263,1,264,duzur,,,,,5,harmonic,1.8,nw,z,,,,,,,
,,,,,,,,,,,sezix,001,2023-11-09_13h37.57.394,vowel_harmony,2023.2.3,Win32,12.01475412,241.9611,242.8856,,,,,,,,,,,,,,,,,,,,,,,,,,242.8857,243.5973,z,1,0.6047,,243.5973,243.5974,,0,97,97,235,1,236,oşup,,,,,4,harmonic,1.75,nw,z,,,,,,,
,,,,,,,,,,,sezix,001,2023-11-09_13h37.57.394,vowel_harmony,2023.2.3,Win32,12.01475412,243.5976,244.586,,,,,,,,,,,,,,,,,,,,,,,,,,244.586,245.2477,m,1,0.5582,,245.2477,245.2477,,0,98,98,169,1,170,hikaye,1555,70.653,1405,0.1536,6,notharmonic,1.8,word,m,,,,,,,
,,,,,,,,,,,sezix,001,2023-11-09_13h37.57.394,vowel_harmony,2023.2.3,Win32,12.01475412,245.248,246.2486,,,,,,,,,,,,,,,,,,,,,,,,,,246.2486,247.0165,m,1,0.6642,,247.0166,247.0166,,0,99,99,113,1,114,model,1200,54.5232,1082,0.1183,5,notharmonic,1.75,word,m,,,,,,,
,,,,,,,,,,,sezix,001,2023-11-09_13h37.57.394,vowel_harmony,2023.2.3,Win32,12.01475412,247.0168,248.0044,,,,,,,,,,,,,,,,,,,,,,,,,,248.0044,248.6579,m,1,0.5499,,248.658,248.658,,0,100,100,82,1,83,aday,1028,46.7082,873,0.0954,4,harmonic,1.45,word,m,,,,,,,
,,,,,,,,,,,sezix,001,2023-11-09_13h37.57.394,vowel_harmony,2023.2.3,Win32,12.01475412,248.6582,249.6762,,,,,,,,,,,,,,,,,,,,,,,,,,249.6762,250.3519,m,1,0.5718,,250.3519,250.3519,,0,101,101,30,1,31,çevre,1662,75.5147,1409,0.154,5,harmonic,1.55,word,m,,,,,,,
,,,,,,,,,,,sezix,001,2023-11-09_13h37.57.394,vowel_harmony,2023.2.3,Win32,12.01475412,250.3522,251.3423,,,,,,,,,,,,,,,,,,,,,,,,,,251.3423,252.1047,m,1,0.659,,252.1047,252.1047,,0,102,102,1,1,2,erkek,6188,281.1582,5195,0.5679,5,harmonic,1.65,word,m,,,,,,,
,,,,,,,,,,,sezix,001,2023-11-09_13h37.57.394,vowel_harmony,2023.2.3,Win32,12.01475412,252.105,253.09,,,,,,,,,,,,,,,,,,,,,,,,,,253.09,253.9635,z,1,0.7699,,253.9635,253.9636,,0,103,103,221,1,222,yaypın,,,,,6,harmonic,1.75,nw,z,,,,,,,
,,,,,,,,,,,sezix,001,2023-11-09_13h37.57.394,vowel_harmony,2023.2.3,Win32,12.01475412,253.9638,254.9469,,,,,,,,,,,,,,,,,,,,,,,,,,254.9469,255.6111,z,1,0.5582,,255.6111,255.6111,,0,104,104,222,1,223,gelü,,,,,4,harmonic,1.75,nw,z,,,,,,,
,,,,,,,,,,,sezix,001,2023-11-09_13h37.57.394,vowel_harmony,2023.2.3,Win32,12.01475412,255.6114,256.6003,,,,,,,,,,,,,,,,,,,,,,,,,,256.6003,257.2641,m,1,0.5603,,257.2641,257.2642,,0,105,105,62,1,63,cümle,1911,86.8283,1765,0.193,5,harmonic,1.85,word,m,,,,,,,
,,,,,,,,,,,sezix,001,2023-11-09_13h37.57.394,vowel_harmony,2023.2.3,Win32,12.01475412,257.2644,258.2628,,,,,,,,,,,,,,,,,,,,,,,,,,258.2628,259.0315,m,1,0.6638,,259.0315,259.0316,,0,106,106,153,1,154,inşaat,432,19.6284,376,0.0411,6,notharmonic,1.6,word,m,,,,,,,
,,,,,,,,,,,sezix,001,2023-11-09_13h37.57.394,vowel_harmony,2023.2.3,Win32,12.01475412,259.0318,260.0237,,,,,,,,,,,,,,,,,,,,,,,,,,260.0237,260.6923,z,1,0.5521,,260.6924,260.6925,,0,107,107,277,1,278,balsin,,,,,6,notharmonic,1.85,nw,z,,,,,,,
,,,,,,,,,,,sezix,001,2023-11-09_13h37.57.394,vowel_harmony,2023.2.3,Win32,12.01475412,260.6927,261.6691,,,,,,,,,,,,,,,,,,,,,,,,,,261.6692,262.4475,m,1,0.6679,,262.4475,262.4476,,0,108,108,63,1,64,sultan,1756,79.7857,1368,0.1496,6,harmonic,1.55,word,m,,,,,,,
,,,,,,,,,,,sezix,001,2023-11-09_13h37.57.394,vowel_harmony,2023.2.3,Win32,12.01475412,262.4478,263.4298,,,,,,,,,,,,,,,,,,,,,,,,,,263.4298,264.0933,m,1,0.5601,,264.0933,264.0933,,0,109,109,56,1,57,sağlam,1818,82.6027,1720,0.188,6,harmonic,1.6,word,m,,,,,,,
,,,,,,,,,,,sezix,001,2023-11-09_13h37.57.394,vowel_harmony,2023.2.3,Win32,12.01475412,264.0936,265.0847,,,,,,,,,,,,,,,,,,,,,,,,,,265.0847,265.7483,m,1,0.5571,,265.7483,265.7483,,0,110,110,101,1,102,imza,1358,61.7021,1253,0.137,4,notharmonic,1.65,word,m,,,,,,,
,,,,,,,,,,,sezix,001,2023-11-09_13h37.57.394,vowel_harmony,2023.2.3,Win32,12.01475412,265.7486,266.7308,,,,,,,,,,,,,,,,,,,,,,,,,,266.7308,267.5026,z,1,0.666,,267.5026,267.5027,,0,111,111,337,1,338,bakem,,,,,5,notharmonic,1.7,nw,z,,,,,,,
,,,,,,,,,,,sezix,001,2023-11-09_13h37.57.394,vowel_harmony,2023.2.3,Win32,12.01475412,267.5028,268.4872,,,,,,,,,,,,,,,,,,,,,,,,,,268.4872,269.2572,m,0,0.6669,0,269.2572,269.2572,,0,112,112,198,1,199,yarbız,,,,,6,harmonic,1.95,nw,z,,,,,,,
,,,,,,,,,,,sezix,001,2023-11-09_13h37.57.394,vowel_harmony,2023.2.3,Win32,12.01475412,269.2574,270.2557,,,,,,,,,,,,,,,,,,,,,,,,,,270.2557,271.1572,z,1,0.7961,,271.1572,271.1573,,0,113,113,260,1,261,yarlam,,,,,6,harmonic,1.75,nw,z,,,,,,,
,,,,,,,,,,,sezix,001,2023-11-09_13h37.57.394,vowel_harmony,2023.2.3,Win32,12.01475412,271.1575,272.1592,,,,,,,,,,,,,,,,,,,,,,,,,,272.1592,272.8324,z,1,0.5696,,272.8324,272.8324,,0,114,114,353,1,354,ikno,,,,,4,notharmonic,1.95,nw,z,,,,,,,
,,,,,,,,,,,sezix,001,2023-11-09_13h37.57.394,vowel_harmony,2023.2.3,Win32,12.01475412,272.8327,273.816,,,,,,,,,,,,,,,,,,,,,,,,,,273.8161,274.5831,z,1,0.662,,274.5832,274.5836,,0,115,115,242,1,243,kahon,,,,,5,harmonic,1.85,nw,z,,,,,,,
,,,,,,,,,,,sezix,001,2023-11-09_13h37.57.394,vowel_harmony,2023.2.3,Win32,12.01475412,274.5837,275.5681,,,,,,,,,,,,,,,,,,,,,,,,,,275.5681,276.339,z,1,0.6657,,276.339,276.339,,0,116,116,293,1,294,esnan,,,,,5,notharmonic,1.85,nw,z,,,,,,,
,,,,,,,,,,,sezix,001,2023-11-09_13h37.57.394,vowel_harmony,2023.2.3,Win32,12.01475412,276.3392,277.3262,,,,,,,,,,,,,,,,,,,,,,,,,,277.3262,278.1156,m,1,0.6874,,278.1156,278.1156,,0,117,117,168,1,169,kilo,3389,153.9827,2646,0.2893,4,notharmonic,1.65,word,m,,,,,,,
,,,,,,,,,,,sezix,001,2023-11-09_13h37.57.394,vowel_harmony,2023.2.3,Win32,12.01475412,278.1158,279.1162,,,,,,,,,,,,,,,,,,,,,,,,,,279.1162,279.6945,m,1,0.4756,,279.6945,279.6945,,0,118,118,110,1,111,rüya,1062,48.2531,937,0.1024,4,notharmonic,1.75,word,m,,,,,,,
,,,,,,,,,,,sezix,001,2023-11-09_13h37.57.394,vowel_harmony,2023.2.3,Win32,12.01475412,279.6947,280.7175,,,,,,,,,,,,,,,,,,,,,,,,,,280.7175,281.3815,m,1,0.5562,,281.3815,281.3816,,0,119,119,19,1,20,ödül,1063,48.2985,926,0.1012,4,harmonic,1.7,word,m,,,,,,,
,,,,,,,,,,,sezix,001,2023-11-09_13h37.57.394,vowel_harmony,2023.2.3,Win32,12.01475412,281.3818,282.365,,,,,,,,,,,,,,,,,,,,,,,,,,282.3651,283.0267,m,1,0.5587,,283.0267,299.7253,space,0,120,120,76,1,77,ilişki,1675,76.1054,1524,0.1666,6,harmonic,1.8,word,m,16.5822,,,,,,
,,,,,,,,,,,sezix,001,2023-11-09_13h37.57.394,vowel_harmony,2023.2.3,Win32,12.01475412,299.7352,300.7144,,,,,,,,,,,,,,,,,,,,,,,,,,300.7144,301.3807,m,1,0.5626,0.0001,301.3808,301.3809,,0,121,121,10,1,11,bardak,1728,78.5135,1569,0.1715,6,harmonic,1.6,word,m,,,,,,,
,,,,,,,,,,,sezix,001,2023-11-09_13h37.57.394,vowel_harmony,2023.2.3,Win32,12.01475412,301.381,302.3742,,,,,,,,,,,,,,,,,,,,,,,,,,302.3743,303.181,z,1,0.7038,,303.181,303.1811,,0,122,122,216,1,217,çeyret,,,,,6,harmonic,1.9,nw,z,,,,,,,
,,,,,,,,,,,sezix,001,2023-11-09_13h37.57.394,vowel_harmony,2023.2.3,Win32,12.01475412,303.1813,304.1949,,,,,,,,,,,,,,,,,,,,,,,,,,304.1949,304.8637,m,1,0.5628,,304.8637,304.8638,,0,123,123,122,1,123,devam,17666,802.673,16284,1.7802,5,notharmonic,1.55,word,m,,,,,,,
,,,,,,,,,,,sezix,001,2023-11-09_13h37.57.394,vowel_harmony,2023.2.3,Win32,12.01475412,304.864,305.8669,,,,,,,,,,,,,,,,,,,,,,,,,,305.8669,306.5456,m,1,0.5735,,306.5456,306.5456,,0,124,124,134,1,135,iptal,793,36.0308,725,0.0793,5,notharmonic,1.35,word,m,,,,,,,
,,,,,,,,,,,sezix,001,2023-11-09_13h37.57.394,vowel_harmony,2023.2.3,Win32,12.01475412,306.5459,307.5399,,,,,,,,,,,,,,,,,,,,,,,,,,307.5399,308.1996,m,1,0.5565,,308.1996,308.1996,,0,125,125,171,1,172,reklam,1565,71.1074,1244,0.136,6,notharmonic,1.9,word,m,,,,,,,
,,,,,,,,,,,sezix,001,2023-11-09_13h37.57.394,vowel_harmony,2023.2.3,Win32,12.01475412,308.1999,309.1887,,,,,,,,,,,,,,,,,,,,,,,,,,309.1887,309.9628,m,1,0.6695,,309.9628,309.9628,,0,126,126,141,1,142,madde,3793,172.3389,3389,0.3705,5,notharmonic,1.7,word,m,,,,,,,
,,,,,,,,,,,sezix,001,2023-11-09_13h37.57.394,vowel_harmony,2023.2.3,Win32,12.01475412,309.963,310.9793,,,,,,,,,,,,,,,,,,,,,,,,,,310.9793,311.7554,z,1,0.6659,,311.7554,311.7555,,0,127,127,253,1,254,meslet,,,,,6,harmonic,1.85,nw,z,,,,,,,
,,,,,,,,,,,sezix,001,2023-11-09_13h37.57.394,vowel_harmony,2023.2.3,Win32,12.01475412,311.7557,312.766,,,,,,,,,,,,,,,,,,,,,,,,,,312.766,313.4272,m,1,0.5572,,313.4273,313.4273,,0,128,128,73,1,74,millet,1658,75.3329,1508,0.1649,6,harmonic,1.7,word,m,,,,,,,
,,,,,,,,,,,sezix,001,2023-11-09_13h37.57.394,vowel_harmony,2023.2.3,Win32,12.01475412,313.4275,314.4132,,,,,,,,,,,,,,,,,,,,,,,,,,314.4132,315.0867,m,1,0.5633,,315.0867,315.0868,,0,129,129,13,1,14,nokta,2085,94.7341,1939,0.212,5,harmonic,1.5,word,m,,,,,,,
,,,,,,,,,,,sezix,001,2023-11-09_13h37.57.394,vowel_harmony,2023.2.3,Win32,12.01475412,315.087,316.0711,,,,,,,,,,,,,,,,,,,,,,,,,,316.0711,316.8395,z,1,0.6653,,316.8395,316.8395,,0,130,130,252,1,253,anlgı,,,,,5,harmonic,1.9,nw,z,,,,,,,
,,,,,,,,,,,sezix,001,2023-11-09_13h37.57.394,vowel_harmony,2023.2.3,Win32,12.01475412,316.8398,317.8233,,,,,,,,,,,,,,,,,,,,,,,,,,317.8234,318.4818,m,1,0.5546,,318.4818,318.4819,,0,131,131,148,1,149,selam,1868,84.8745,1764,0.1928,5,notharmonic,1.35,word,m,,,,,,,
,,,,,,,,,,,sezix,001,2023-11-09_13h37.57.394,vowel_harmony,2023.2.3,Win32,12.01475412,318.4821,319.4815,,,,,,,,,,,,,,,,,,,,,,,,,,319.4816,320.0344,m,1,0.4463,,320.0344,320.0345,,0,132,132,15,1,16,hayat,7922,359.9443,7314,0.7996,5,harmonic,1.9,word,m,,,,,,,
,,,,,,,,,,,sezix,001,2023-11-09_13h37.57.394,vowel_harmony,2023.2.3,Win32,12.01475412,320.0347,321.0243,,,,,,,,,,,,,,,,,,,,,,,,,,321.0244,321.6899,m,1,0.5607,,321.69,321.6901,,0,133,133,105,1,106,sahip,10887,494.6621,9847,1.0765,5,notharmonic,1.25,word,m,,,,,,,
,,,,,,,,,,,sezix,001,2023-11-09_13h37.57.394,vowel_harmony,2023.2.3,Win32,12.01475412,321.6902,322.6758,,,,,,,,,,,,,,,,,,,,,,,,,,322.6758,323.3402,z,1,0.56,,323.3403,323.3403,,0,134,134,215,1,216,aydo,,,,,4,harmonic,1.9,nw,z,,,,,,,
,,,,,,,,,,,sezix,001,2023-11-09_13h37.57.394,vowel_harmony,2023.2.3,Win32,12.01475412,323.3406,324.3381,,,,,,,,,,,,,,,,,,,,,,,,,,324.3381,325.1051,z,1,0.6616,,325.1051,325.1051,,0,135,135,321,1,322,makih,,,,,5,notharmonic,1.8,nw,z,,,,,,,
,,,,,,,,,,,sezix,001,2023-11-09_13h37.57.394,vowel_harmony,2023.2.3,Win32,12.01475412,325.1054,326.1029,,,,,,,,,,,,,,,,,,,,,,,,,,326.1029,326.8785,m,1,0.6722,0,326.8786,326.8786,,0,136,136,132,1,133,modern,2326,105.6842,2031,0.222,6,notharmonic,1.85,word,m,,,,,,,
,,,,,,,,,,,sezix,001,2023-11-09_13h37.57.394,vowel_harmony,2023.2.3,Win32,12.01475412,326.8788,327.8654,,,,,,,,,,,,,,,,,,,,,,,,,,327.8654,328.6416,m,1,0.6704,,328.6416,328.6417,,0,137,137,64,1,65,lise,888,40.3472,816,0.0892,4,harmonic,1.5,word,m,,,,,,,
,,,,,,,,,,,sezix,001,2023-11-09_13h37.57.394,vowel_harmony,2023.2.3,Win32,12.01475412,328.6419,329.6195,,,,,,,,,,,,,,,,,,,,,,,,,,329.6195,330.2828,z,1,0.5589,,330.2828,330.2828,,0,138,138,262,1,263,sauk,,,,,4,harmonic,1.85,nw,z,,,,,,,
,,,,,,,,,,,sezix,001,2023-11-09_13h37.57.394,vowel_harmony,2023.2.3,Win32,12.01475412,330.283,331.2688,,,,,,,,,,,,,,,,,,,,,,,,,,331.2688,332.2646,z,1,0.8909,9.99999E-05,332.2646,332.2647,,0,139,139,202,1,203,güvin,,,,,5,harmonic,1.95,nw,z,,,,,,,
,,,,,,,,,,,sezix,001,2023-11-09_13h37.57.394,vowel_harmony,2023.2.3,Win32,12.01475412,332.2649,333.2527,,,,,,,,,,,,,,,,,,,,,,,,,,333.2527,334.0246,z,1,0.6623,,334.0246,334.0247,,0,140,140,338,1,339,pardön,,,,,6,notharmonic,1.95,nw,z,,,,,,,
,,,,,,,,,,,sezix,001,2023-11-09_13h37.57.394,vowel_harmony,2023.2.3,Win32,12.01475412,334.0248,335.0052,,,,,,,,,,,,,,,,,,,,,,,,,,335.0052,335.7719,z,1,0.6627,,335.7719,335.772,,0,141,141,229,1,230,tonam,,,,,5,harmonic,1.8,nw,z,,,,,,,
,,,,,,,,,,,sezix,001,2023-11-09_13h37.57.394,vowel_harmony,2023.2.3,Win32,12.01475412,335.7722,336.7607,,,,,,,,,,,,,,,,,,,,,,,,,,336.7607,337.5295,z,1,0.6574,,337.5295,337.5297,,0,142,142,254,1,255,millek,,,,,6,harmonic,1.8,nw,z,,,,,,,
,,,,,,,,,,,sezix,001,2023-11-09_13h37.57.394,vowel_harmony,2023.2.3,Win32,12.01475412,337.5299,338.5106,,,,,,,,,,,,,,,,,,,,,,,,,,338.5107,339.168,m,1,0.5538,,339.168,339.1681,,0,143,143,126,1,127,adet,4367,198.4192,3768,0.4119,4,notharmonic,1.4,word,m,,,,,,,
,,,,,,,,,,,sezix,001,2023-11-09_13h37.57.394,vowel_harmony,2023.2.3,Win32,12.01475412,339.1682,340.1474,,,,,,,,,,,,,,,,,,,,,,,,,,340.1474,340.6931,m,1,0.4423,,340.6932,340.6932,,0,144,144,176,1,177,harika,4682,212.7315,4422,0.4834,6,notharmonic,1.9,word,m,,,,,,,
,,,,,,,,,,,sezix,001,2023-11-09_13h37.57.394,vowel_harmony,2023.2.3,Win32,12.01475412,340.6934,341.6723,,,,,,,,,,,,,,,,,,,,,,,,,,341.6723,342.3299,z,1,0.5541,,342.3299,342.3299,,0,145,145,241,1,242,porlam,,,,,6,harmonic,2,nw,z,,,,,,,
,,,,,,,,,,,sezix,001,2023-11-09_13h37.57.394,vowel_harmony,2023.2.3,Win32,12.01475412,342.3301,343.3212,,,,,,,,,,,,,,,,,,,,,,,,,,343.3212,343.9879,m,1,0.5626,,343.9879,343.988,,0,146,146,14,1,15,yaşam,4348,197.5559,3918,0.4283,5,harmonic,1.4,word,m,,,,,,,
,,,,,,,,,,,sezix,001,2023-11-09_13h37.57.394,vowel_harmony,2023.2.3,Win32,12.01475412,343.9881,344.9745,,,,,,,,,,,,,,,,,,,,,,,,,,344.9745,345.6438,z,1,0.5658,,345.6438,345.644,,0,147,147,291,1,292,mepan,,,,,5,notharmonic,1.75,nw,z,,,,,,,
,,,,,,,,,,,sezix,001,2023-11-09_13h37.57.394,vowel_harmony,2023.2.3,Win32,12.01475412,345.6441,346.6256,,,,,,,,,,,,,,,,,,,,,,,,,,346.6257,347.2812,m,1,0.5518,,347.2812,347.2812,,0,148,148,151,1,152,ateş,2108,95.7792,1803,0.1971,4,notharmonic,1.65,word,m,,,,,,,
,,,,,,,,,,,sezix,001,2023-11-09_13h37.57.394,vowel_harmony,2023.2.3,Win32,12.01475412,347.2814,348.2749,,,,,,,,,,,,,,,,,,,,,,,,,,348.2749,348.9323,m,1,0.5536,,348.9323,348.9323,,0,149,149,20,1,21,nefes,2871,130.4469,2553,0.2791,5,harmonic,1.8,word,m,,,,,,,
,,,,,,,,,,,sezix,001,2023-11-09_13h37.57.394,vowel_harmony,2023.2.3,Win32,12.01475412,348.9326,349.9402,,,,,,,,,,,,,,,,,,,,,,,,,,349.9402,350.5978,z,1,0.5503,,350.5978,350.5978,,0,150,150,356,1,357,mergun,,,,,6,notharmonic,1.95,nw,z,,,,,,,
,,,,,,,,,,,sezix,001,2023-11-09_13h37.57.394,vowel_harmony,2023.2.3,Win32,12.01475412,350.598,351.5851,,,,,,,,,,,,,,,,,,,,,,,,,,351.5851,352.2359,m,1,0.5472,,352.2359,352.236,,0,151,151,116,1,117,daire,621,28.2158,503,0.055,5,notharmonic,1,word,m,,,,,,,
,,,,,,,,,,,sezix,001,2023-11-09_13h37.57.394,vowel_harmony,2023.2.3,Win32,12.01475412,352.2362,353.2304,,,,,,,,,,,,,,,,,,,,,,,,,,353.2305,353.9992,z,1,0.6654,,353.9992,353.9993,,0,152,152,205,1,206,kahay,,,,,5,harmonic,1.9,nw,z,,,,,,,
,,,,,,,,,,,sezix,001,2023-11-09_13h37.57.394,vowel_harmony,2023.2.3,Win32,12.01475412,353.9995,354.9782,,,,,,,,,,,,,,,,,,,,,,,,,,354.9783,355.7688,m,1,0.672,,355.7688,355.7689,,0,153,153,69,1,70,forma,719,32.6685,597,0.0653,5,harmonic,1.8,word,m,,,,,,,
,,,,,,,,,,,sezix,001,2023-11-09_13h37.57.394,vowel_harmony,2023.2.3,Win32,12.01475412,355.7691,356.7498,,,,,,,,,,,,,,,,,,,,,,,,,,356.7499,357.4031,m,1,0.5494,,357.4031,357.4031,,0,154,154,77,1,78,ufak,3252,147.758,2980,0.3258,4,harmonic,1.5,word,m,,,,,,,
,,,,,,,,,,,sezix,001,2023-11-09_13h37.57.394,vowel_harmony,2023.2.3,Win32,12.01475412,357.4034,358.3997,,,,,,,,,,,,,,,,,,,,,,,,,,358.3997,359.0634,z,1,0.5582,,359.0634,359.0634,,0,155,155,255,1,256,yokın,,,,,5,harmonic,1.85,nw,z,,,,,,,
,,,,,,,,,,,sezix,001,2023-11-09_13h37.57.394,vowel_harmony,2023.2.3,Win32,12.01475412,359.0636,360.0495,,,,,,,,,,,,,,,,,,,,,,,,,,360.0495,360.9434,z,1,0.7861,,360.9435,360.9435,,0,156,156,336,1,337,diyam,,,,,5,notharmonic,1.85,nw,z,,,,,,,
,,,,,,,,,,,sezix,001,2023-11-09_13h37.57.394,vowel_harmony,2023.2.3,Win32,12.01475412,360.9437,361.9447,,,,,,,,,,,,,,,,,,,,,,,,,,361.9447,362.6067,z,1,0.5579,,362.6068,362.6068,,0,157,157,227,1,228,zekö,,,,,4,harmonic,1.9,nw,z,,,,,,,
,,,,,,,,,,,sezix,001,2023-11-09_13h37.57.394,vowel_harmony,2023.2.3,Win32,12.01475412,362.6071,363.5365,,,,,,,,,,,,,,,,,,,,,,,,,,363.5366,364.1997,m,1,0.5568,,364.1997,364.1998,,0,158,158,164,1,165,sinema,1575,71.5618,1304,0.1426,6,notharmonic,1.8,word,m,,,,,,,
,,,,,,,,,,,sezix,001,2023-11-09_13h37.57.394,vowel_harmony,2023.2.3,Win32,12.01475412,364.2,365.1915,,,,,,,,,,,,,,,,,,,,,,,,,,365.1915,365.8533,m,1,0.5598,,365.8533,365.8533,,0,159,159,149,1,150,ceza,2611,118.6335,2169,0.2371,4,notharmonic,1.5,word,m,,,,,,,
,,,,,,,,,,,sezix,001,2023-11-09_13h37.57.394,vowel_harmony,2023.2.3,Win32,12.01475412,365.8535,366.8476,,,,,,,,,,,,,,,,,,,,,,,,,,366.8476,367.5112,z,1,0.5604,,367.5112,367.5113,,0,160,160,303,1,304,fisor,,,,,5,notharmonic,1.9,nw,z,,,,,,,
,,,,,,,,,,,sezix,001,2023-11-09_13h37.57.394,vowel_harmony,2023.2.3,Win32,12.01475412,367.5116,368.4995,,,,,,,,,,,,,,,,,,,,,,,,,,368.4995,369.165,m,1,0.5569,,369.165,369.1651,,0,161,161,71,1,72,örnek,3463,157.345,3266,0.357,5,harmonic,1.85,word,m,,,,,,,
,,,,,,,,,,,sezix,001,2023-11-09_13h37.57.394,vowel_harmony,2023.2.3,Win32,12.01475412,369.1652,370.1681,,,,,,,,,,,,,,,,,,,,,,,,,,370.1682,370.8317,z,1,0.5535,,370.8317,370.8318,,0,162,162,230,1,231,bikir,,,,,5,harmonic,1.75,nw,z,,,,,,,
,,,,,,,,,,,sezix,001,2023-11-09_13h37.57.394,vowel_harmony,2023.2.3,Win32,12.01475412,370.832,371.8316,,,,,,,,,,,,,,,,,,,,,,,,,,371.8316,372.5039,z,1,0.5635,,372.5039,372.504,,0,163,163,266,1,267,düştön,,,,,6,harmonic,1.9,nw,z,,,,,,,
,,,,,,,,,,,sezix,001,2023-11-09_13h37.57.394,vowel_harmony,2023.2.3,Win32,12.01475412,372.5042,373.4954,,,,,,,,,,,,,,,,,,,,,,,,,,373.4954,374.0493,m,1,0.4462,,374.0493,374.0493,,0,164,164,143,1,144,kitap,8359,379.7998,6786,0.7418,5,notharmonic,1.9,word,m,,,,,,,
,,,,,,,,,,,sezix,001,2023-11-09_13h37.57.394,vowel_harmony,2023.2.3,Win32,12.01475412,374.0496,375.0648,,,,,,,,,,,,,,,,,,,,,,,,,,375.0648,375.9479,m,1,0.7756,,375.948,375.948,,0,165,165,52,1,53,resim,2506,113.8627,2188,0.2392,5,harmonic,1.4,word,m,,,,,,,
,,,,,,,,,,,sezix,001,2023-11-09_13h37.57.394,vowel_harmony,2023.2.3,Win32,12.01475412,375.9482,376.934,,,,,,,,,,,,,,,,,,,,,,,,,,376.9341,377.6105,z,1,0.5693,,377.6105,377.6105,,0,166,166,300,1,301,nilgi,,,,,5,notharmonic,1.85,nw,z,,,,,,,
,,,,,,,,,,,sezix,001,2023-11-09_13h37.57.394,vowel_harmony,2023.2.3,Win32,12.01475412,377.6107,378.618,,,,,,,,,,,,,,,,,,,,,,,,,,378.6181,379.3882,m,1,0.6683,,379.3882,379.3883,,0,167,167,112,1,113,sezon,2315,105.1844,1917,0.2096,5,notharmonic,1.8,word,m,,,,,,,
,,,,,,,,,,,sezix,001,2023-11-09_13h37.57.394,vowel_harmony,2023.2.3,Win32,12.01475412,379.3884,380.3769,,,,,,,,,,,,,,,,,,,,,,,,,,380.3769,381.2517,z,1,0.7709,,381.2517,381.2518,,0,168,168,304,1,305,annö,,,,,4,notharmonic,1.95,nw,z,,,,,,,
,,,,,,,,,,,sezix,001,2023-11-09_13h37.57.394,vowel_harmony,2023.2.3,Win32,12.01475412,381.252,382.1657,,,,,,,,,,,,,,,,,,,,,,,,,,382.1657,382.9328,z,1,0.6562,,382.9329,382.9329,,0,169,169,346,1,347,kidan,,,,,5,notharmonic,1.8,nw,z,,,,,,,
,,,,,,,,,,,sezix,001,2023-11-09_13h37.57.394,vowel_harmony,2023.2.3,Win32,12.01475412,382.9332,383.9309,,,,,,,,,,,,,,,,,,,,,,,,,,383.9309,384.6015,m,1,0.5635,,384.6016,384.6016,,0,170,170,2,1,3,radyo,763,34.6677,636,0.0695,5,harmonic,1.85,word,m,,,,,,,
,,,,,,,,,,,sezix,001,2023-11-09_13h37.57.394,vowel_harmony,2023.2.3,Win32,12.01475412,384.6018,385.5902,,,,,,,,,,,,,,,,,,,,,,,,,,385.5902,386.3599,z,0,0.667,,386.3599,386.3599,,0,171,171,172,1,173,milyar,1496,67.9723,1078,0.1178,6,notharmonic,1.85,word,m,,,,,,,
,,,,,,,,,,,sezix,001,2023-11-09_13h37.57.394,vowel_harmony,2023.2.3,Win32,12.01475412,386.3601,387.3407,,,,,,,,,,,,,,,,,,,,,,,,,,387.3407,388.1189,z,1,0.674,,388.1189,388.119,,0,172,172,249,1,250,hurıt,,,,,5,harmonic,1.95,nw,z,,,,,,,
,,,,,,,,,,,sezix,001,2023-11-09_13h37.57.394,vowel_harmony,2023.2.3,Win32,12.01475412,388.1191,389.1024,,,,,,,,,,,,,,,,,,,,,,,,,,389.1025,389.7548,m,1,0.5471,,389.7548,389.7548,,0,173,173,139,1,140,lira,1253,56.9314,947,0.1035,4,notharmonic,1.4,word,m,,,,,,,
,,,,,,,,,,,sezix,001,2023-11-09_13h37.57.394,vowel_harmony,2023.2.3,Win32,12.01475412,389.7551,390.7399,,,,,,,,,,,,,,,,,,,,,,,,,,390.7399,391.7321,m,1,0.8868,,391.7321,391.7321,,0,174,174,88,1,89,yalnız,5891,267.6637,5440,0.5947,6,harmonic,1.6,word,m,,,,,,,
,,,,,,,,,,,sezix,001,2023-11-09_13h37.57.394,vowel_harmony,2023.2.3,Win32,12.01475412,391.7324,392.7406,,,,,,,,,,,,,,,,,,,,,,,,,,392.7407,393.4124,m,1,0.5679,,393.4125,393.4125,,0,175,175,150,1,151,sabit,1046,47.5261,915,0.1,5,notharmonic,1.75,word,m,,,,,,,
,,,,,,,,,,,sezix,001,2023-11-09_13h37.57.394,vowel_harmony,2023.2.3,Win32,12.01475412,393.4127,394.4013,,,,,,,,,,,,,,,,,,,,,,,,,,394.4013,395.1887,z,1,0.6719,,395.1887,395.1888,,0,176,176,210,1,211,şevci,,,,,5,harmonic,1.75,nw,z,,,,,,,
,,,,,,,,,,,sezix,001,2023-11-09_13h37.57.394,vowel_harmony,2023.2.3,Win32,12.01475412,395.1889,396.1918,,,,,,,,,,,,,,,,,,,,,,,,,,396.1918,396.8526,z,1,0.5571,,396.8526,396.8526,,0,177,177,257,1,258,zerü,,,,,4,harmonic,1.8,nw,z,,,,,,,
,,,,,,,,,,,sezix,001,2023-11-09_13h37.57.394,vowel_harmony,2023.2.3,Win32,12.01475412,396.8528,397.8376,,,,,,,,,,,,,,,,,,,,,,,,,,397.8376,398.5062,m,1,0.5634,,398.5062,398.5063,,0,178,178,41,1,42,zengin,2193,99.6412,2015,0.2203,6,harmonic,1.65,word,m,,,,,,,
,,,,,,,,,,,sezix,001,2023-11-09_13h37.57.394,vowel_harmony,2023.2.3,Win32,12.01475412,398.5065,399.4875,,,,,,,,,,,,,,,,,,,,,,,,,,399.4875,400.1478,m,1,0.5541,0,400.1478,400.1479,,0,179,179,55,1,56,akıl,2208,100.3228,2004,0.2191,4,harmonic,1,word,m,,,,,,,
,,,,,,,,,,,sezix,001,2023-11-09_13h37.57.394,vowel_harmony,2023.2.3,Win32,12.01475412,400.148,401.1573,,,,,,,,,,,,,,,,,,,,,,,,,,401.1573,401.8166,m,1,0.5569,,401.8167,401.8167,,0,180,180,45,1,46,bilgi,5981,271.7529,5353,0.5852,5,harmonic,1.5,word,m,,,,,,,
,,,,,,,,,,,sezix,001,2023-11-09_13h37.57.394,vowel_harmony,2023.2.3,Win32,12.01475412,401.8169,402.8121,,,,,,,,,,,,,,,,,,,,,,,,,,402.8122,403.4804,m,1,0.5654,,403.4804,403.4804,,0,181,181,109,1,110,milyon,3936,178.8362,2958,0.3234,6,notharmonic,1.75,word,m,,,,,,,
,,,,,,,,,,,sezix,001,2023-11-09_13h37.57.394,vowel_harmony,2023.2.3,Win32,12.01475412,403.4806,404.473,,,,,,,,,,,,,,,,,,,,,,,,,,404.473,405.1489,m,1,0.5713,,405.1489,405.149,,0,182,182,12,1,13,konu,5400,245.3546,5110,0.5586,4,harmonic,1,word,m,,,,,,,
,,,,,,,,,,,sezix,001,2023-11-09_13h37.57.394,vowel_harmony,2023.2.3,Win32,12.01475412,405.1494,406.0957,,,,,,,,,,,,,,,,,,,,,,,,,,406.0957,406.7638,z,1,0.5638,,406.7638,406.7638,,0,183,183,268,1,269,haldum,,,,,6,harmonic,2,nw,z,,,,,,,
,,,,,,,,,,,sezix,001,2023-11-09_13h37.57.394,vowel_harmony,2023.2.3,Win32,12.01475412,406.7641,407.7485,,,,,,,,,,,,,,,,,,,,,,,,,,407.7486,408.4119,z,1,0.5582,,408.4119,408.412,,0,184,184,265,1,266,parula,,,,,6,harmonic,1.75,nw,z,,,,,,,
,,,,,,,,,,,sezix,001,2023-11-09_13h37.57.394,vowel_harmony,2023.2.3,Win32,12.01475412,408.4122,409.3957,,,,,,,,,,,,,,,,,,,,,,,,,,409.3957,410.2682,z,1,0.7689,,410.2682,410.2682,,0,185,185,284,1,285,deval,,,,,5,notharmonic,1.75,nw,z,,,,,,,
,,,,,,,,,,,sezix,001,2023-11-09_13h37.57.394,vowel_harmony,2023.2.3,Win32,12.01475412,410.2684,411.2511,,,,,,,,,,,,,,,,,,,,,,,,,,411.2512,412.0206,m,1,0.6661,,412.0206,412.0207,,0,186,186,159,1,160,vakit,3476,157.9357,3298,0.3605,5,notharmonic,1.65,word,m,,,,,,,
,,,,,,,,,,,sezix,001,2023-11-09_13h37.57.394,vowel_harmony,2023.2.3,Win32,12.01475412,412.0209,413.0149,,,,,,,,,,,,,,,,,,,,,,,,,,413.0149,413.6751,m,1,0.5498,,413.6751,413.6752,,0,187,187,49,1,50,şeker,4708,213.9128,4170,0.4559,5,harmonic,1.6,word,m,,,,,,,
,,,,,,,,,,,sezix,001,2023-11-09_13h37.57.394,vowel_harmony,2023.2.3,Win32,12.01475412,413.6754,414.671,,,,,,,,,,,,,,,,,,,,,,,,,,414.671,415.4337,z,1,0.6562,,415.4337,415.4337,,0,188,188,332,1,333,tahane,,,,,6,notharmonic,1.85,nw,z,,,,,,,
,,,,,,,,,,,sezix,001,2023-11-09_13h37.57.394,vowel_harmony,2023.2.3,Win32,12.01475412,415.4339,416.4337,,,,,,,,,,,,,,,,,,,,,,,,,,416.4338,417.0969,z,1,0.5587,,417.0969,417.0969,,0,189,189,272,1,273,daken,,,,,5,notharmonic,1.8,nw,z,,,,,,,
,,,,,,,,,,,sezix,001,2023-11-09_13h37.57.394,vowel_harmony,2023.2.3,Win32,12.01475412,417.0972,418.0966,,,,,,,,,,,,,,,,,,,,,,,,,,418.0966,418.8783,m,1,0.6777,,418.8784,418.8784,,0,190,190,29,1,30,huzur,1911,86.8283,1799,0.1967,5,harmonic,1.8,word,m,,,,,,,
,,,,,,,,,,,sezix,001,2023-11-09_13h37.57.394,vowel_harmony,2023.2.3,Win32,12.01475412,418.8786,419.8779,,,,,,,,,,,,,,,,,,,,,,,,,,419.8779,420.6411,m,1,0.6591,,420.6411,420.6411,,0,191,191,96,1,97,dahil,3189,144.8955,3060,0.3345,5,notharmonic,1.7,word,m,,,,,,,
,,,,,,,,,,,sezix,001,2023-11-09_13h37.57.394,vowel_harmony,2023.2.3,Win32,12.01475412,420.6413,421.6303,,,,,,,,,,,,,,,,,,,,,,,,,,421.6303,422.2945,z,1,0.5615,,422.2945,422.2946,,0,192,192,197,1,198,ranar,,,,,5,harmonic,1.75,nw,z,,,,,,,
,,,,,,,,,,,sezix,001,2023-11-09_13h37.57.394,vowel_harmony,2023.2.3,Win32,12.01475412,422.2949,423.323,,,,,,,,,,,,,,,,,,,,,,,,,,423.323,424,z,1,0.5623,,424.0001,424.0001,,0,193,193,312,1,313,şahmin,,,,,6,notharmonic,1.8,nw,z,,,,,,,
,,,,,,,,,,,sezix,001,2023-11-09_13h37.57.394,vowel_harmony,2023.2.3,Win32,12.01475412,424.0004,424.9843,,,,,,,,,,,,,,,,,,,,,,,,,,424.9843,425.6474,m,1,0.5576,,425.6474,425.6474,,0,194,194,130,1,131,hamile,1075,48.8437,877,0.0959,6,notharmonic,1.5,word,m,,,,,,,
,,,,,,,,,,,sezix,001,2023-11-09_13h37.57.394,vowel_harmony,2023.2.3,Win32,12.01475412,425.6477,426.6496,,,,,,,,,,,,,,,,,,,,,,,,,,426.6496,427.4164,z,1,0.6626,,427.4165,427.4165,,0,195,195,233,1,234,devpi,,,,,5,harmonic,1.8,nw,z,,,,,,,
,,,,,,,,,,,sezix,001,2023-11-09_13h37.57.394,vowel_harmony,2023.2.3,Win32,12.01475412,427.4167,428.4056,,,,,,,,,,,,,,,,,,,,,,,,,,428.4057,429.062,z,1,0.5492,,429.062,429.062,,0,196,196,189,1,190,düvre,,,,,5,harmonic,1.85,nw,z,,,,,,,
,,,,,,,,,,,sezix,001,2023-11-09_13h37.57.394,vowel_harmony,2023.2.3,Win32,12.01475412,429.0623,430.0849,,,,,,,,,,,,,,,,,,,,,,,,,,430.0849,430.8167,m,1,0.5982,,430.8168,430.8168,,0,197,197,68,1,69,ücret,734,33.35,634,0.0693,5,harmonic,1.85,word,m,,,,,,,
,,,,,,,,,,,sezix,001,2023-11-09_13h37.57.394,vowel_harmony,2023.2.3,Win32,12.01475412,430.817,431.8055,,,,,,,,,,,,,,,,,,,,,,,,,,431.8055,432.5297,z,1,0.6158,,432.5298,432.5299,,0,198,198,206,1,207,bevek,,,,,5,harmonic,1.75,nw,z,,,,,,,
,,,,,,,,,,,sezix,001,2023-11-09_13h37.57.394,vowel_harmony,2023.2.3,Win32,12.01475412,432.5302,433.5087,,,,,,,,,,,,,,,,,,,,,,,,,,433.5088,434.2996,z,1,0.6671,,434.2996,434.2997,,0,199,199,340,1,341,minya,,,,,5,notharmonic,1.95,nw,z,,,,,,,
,,,,,,,,,,,sezix,001,2023-11-09_13h37.57.394,vowel_harmony,2023.2.3,Win32,12.01475412,434.3,435.2859,,,,,,,,,,,,,,,,,,,,,,,,,,435.2859,436.1693,z,1,0.7752,,436.1694,436.1694,,0,200,200,357,1,358,işarek,,,,,6,notharmonic,1.95,nw,z,,,,,,,
,,,,,,,,,,,sezix,001,2023-11-09_13h37.57.394,vowel_harmony,2023.2.3,Win32,12.01475412,436.1697,437.1535,,,,,,,,,,,,,,,,,,,,,,,,,,437.1536,437.8219,z,1,0.5615,,437.8219,437.8219,,0,201,201,207,1,208,örtre,,,,,5,harmonic,1.85,nw,z,,,,,,,
,,,,,,,,,,,sezix,001,2023-11-09_13h37.57.394,vowel_harmony,2023.2.3,Win32,12.01475412,437.8221,438.8148,,,,,,,,,,,,,,,,,,,,,,,,,,438.8149,439.4891,z,1,0.5653,,439.4891,439.4891,,0,202,202,214,1,215,vecü,,,,,4,harmonic,1.95,nw,z,,,,,,,
,,,,,,,,,,,sezix,001,2023-11-09_13h37.57.394,vowel_harmony,2023.2.3,Win32,12.01475412,439.4893,440.4978,,,,,,,,,,,,,,,,,,,,,,,,,,440.4978,441.2671,z,1,0.6656,,441.2671,441.2671,,0,203,203,211,1,212,yarum,,,,,5,harmonic,1.75,nw,z,,,,,,,
,,,,,,,,,,,sezix,001,2023-11-09_13h37.57.394,vowel_harmony,2023.2.3,Win32,12.01475412,441.2673,442.2592,,,,,,,,,,,,,,,,,,,,,,,,,,442.2592,442.8123,m,1,0.4437,,442.8123,442.8123,,0,204,204,74,1,75,başarı,1398,63.5196,1300,0.1421,6,harmonic,1.2,word,m,,,,,,,
,,,,,,,,,,,sezix,001,2023-11-09_13h37.57.394,vowel_harmony,2023.2.3,Win32,12.01475412,442.8126,443.8062,,,,,,,,,,,,,,,,,,,,,,,,,,443.8062,444.4757,z,1,0.5665,,444.4757,444.4758,,0,205,205,333,1,334,heyran,,,,,6,notharmonic,1.85,nw,z,,,,,,,
,,,,,,,,,,,sezix,001,2023-11-09_13h37.57.394,vowel_harmony,2023.2.3,Win32,12.01475412,444.476,445.4846,,,,,,,,,,,,,,,,,,,,,,,,,,445.4846,446.1509,z,1,0.5632,,446.1509,446.151,,0,206,206,237,1,238,taşal,,,,,5,harmonic,1.8,nw,z,,,,,,,
,,,,,,,,,,,sezix,001,2023-11-09_13h37.57.394,vowel_harmony,2023.2.3,Win32,12.01475412,446.1512,447.1374,,,,,,,,,,,,,,,,,,,,,,,,,,447.1375,447.7972,z,1,0.5556,,447.7972,447.7972,,0,207,207,349,1,350,harten,,,,,6,notharmonic,1.85,nw,z,,,,,,,
,,,,,,,,,,,sezix,001,2023-11-09_13h37.57.394,vowel_harmony,2023.2.3,Win32,12.01475412,447.7975,448.7838,,,,,,,,,,,,,,,,,,,,,,,,,,448.7838,449.5625,m,1,0.6736,,449.5625,449.5626,,0,208,208,79,1,80,durum,6783,308.1926,6431,0.703,5,harmonic,1.7,word,m,,,,,,,
,,,,,,,,,,,sezix,001,2023-11-09_13h37.57.394,vowel_harmony,2023.2.3,Win32,12.01475412,449.5628,450.5459,,,,,,,,,,,,,,,,,,,,,,,,,,450.546,451.3101,z,1,0.6595,,451.3102,451.3102,,0,209,209,339,1,340,asmel,,,,,5,notharmonic,1.95,nw,z,,,,,,,
,,,,,,,,,,,sezix,001,2023-11-09_13h37.57.394,vowel_harmony,2023.2.3,Win32,12.01475412,451.3104,452.3061,,,,,,,,,,,,,,,,,,,,,,,,,,452.3061,452.971,m,1,0.5613,,452.971,452.9711,,0,210,210,97,1,98,mevcut,3007,136.6262,2842,0.3107,6,notharmonic,1.95,word,m,,,,,,,
,,,,,,,,,,,sezix,001,2023-11-09_13h37.57.394,vowel_harmony,2023.2.3,Win32,12.01475412,452.9713,453.977,,,,,,,,,,,,,,,,,,,,,,,,,,453.9771,454.644,z,1,0.5507,,454.644,454.6441,,0,211,211,219,1,220,barlum,,,,,6,harmonic,1.9,nw,z,,,,,,,
,,,,,,,,,,,sezix,001,2023-11-09_13h37.57.394,vowel_harmony,2023.2.3,Win32,12.01475412,454.6443,455.6371,,,,,,,,,,,,,,,,,,,,,,,,,,455.6371,456.4151,m,1,0.6729,,456.4151,456.4152,,0,212,212,179,1,180,dakika,5891,267.6637,5207,0.5692,6,notharmonic,1.75,word,m,,,,,,,
,,,,,,,,,,,sezix,001,2023-11-09_13h37.57.394,vowel_harmony,2023.2.3,Win32,12.01475412,456.4154,457.4184,,,,,,,,,,,,,,,,,,,,,,,,,,457.4184,458.1869,m,1,0.6616,,458.187,458.1871,,0,213,213,38,1,39,dönem,2820,128.1296,2437,0.2664,5,harmonic,1.4,word,m,,,,,,,
,,,,,,,,,,,sezix,001,2023-11-09_13h37.57.394,vowel_harmony,2023.2.3,Win32,12.01475412,458.1874,459.1677,,,,,,,,,,,,,,,,,,,,,,,,,,459.1677,459.9364,z,1,0.663,,459.9364,459.9364,,0,214,214,248,1,249,şegim,,,,,5,harmonic,1.9,nw,z,,,,,,,
,,,,,,,,,,,sezix,001,2023-11-09_13h37.57.394,vowel_harmony,2023.2.3,Win32,12.01475412,459.9366,460.936,,,,,,,,,,,,,,,,,,,,,,,,,,460.936,461.6079,m,1,0.5649,,461.608,461.608,,0,215,215,86,1,87,gerçek,8983,408.1519,8058,0.8809,6,harmonic,1.7,word,m,,,,,,,
,,,,,,,,,,,sezix,001,2023-11-09_13h37.57.394,vowel_harmony,2023.2.3,Win32,12.01475412,461.6082,462.6025,,,,,,,,,,,,,,,,,,,,,,,,,,462.6025,463.3801,z,1,0.6725,,463.3801,463.3801,,0,216,216,345,1,346,bardeş,,,,,6,notharmonic,1.95,nw,z,,,,,,,
,,,,,,,,,,,sezix,001,2023-11-09_13h37.57.394,vowel_harmony,2023.2.3,Win32,12.01475412,463.3804,464.3718,,,,,,,,,,,,,,,,,,,,,,,,,,464.3718,465.1537,m,1,0.6776,,465.1537,465.1538,,0,217,217,128,1,129,tatil,2152,97.7783,1865,0.2039,5,notharmonic,1.7,word,m,,,,,,,
,,,,,,,,,,,sezix,001,2023-11-09_13h37.57.394,vowel_harmony,2023.2.3,Win32,12.01475412,465.1541,466.1514,,,,,,,,,,,,,,,,,,,,,,,,,,466.1515,467.0341,z,1,0.7779,,467.0341,467.0342,,0,218,218,276,1,277,iptap,,,,,5,notharmonic,1.95,nw,z,,,,,,,
,,,,,,,,,,,sezix,001,2023-11-09_13h37.57.394,vowel_harmony,2023.2.3,Win32,12.01475412,467.0345,468.0508,,,,,,,,,,,,,,,,,,,,,,,,,,468.0508,468.8322,z,1,0.6758,,468.8323,468.8323,,0,219,219,256,1,257,yaruza,,,,,6,harmonic,1.9,nw,z,,,,,,,
,,,,,,,,,,,sezix,001,2023-11-09_13h37.57.394,vowel_harmony,2023.2.3,Win32,12.01475412,468.8325,469.8141,,,,,,,,,,,,,,,,,,,,,,,,,,469.8141,470.5884,z,1,0.6672,,470.5885,470.5886,,0,220,220,351,1,352,seğlık,,,,,6,notharmonic,1.9,nw,z,,,,,,,
,,,,,,,,,,,sezix,001,2023-11-09_13h37.57.394,vowel_harmony,2023.2.3,Win32,12.01475412,470.5888,471.6023,,,,,,,,,,,,,,,,,,,,,,,,,,471.6023,472.2646,m,1,0.5552,,472.2646,472.2647,,0,221,221,83,1,84,küçük,14048,638.2854,12467,1.3629,5,harmonic,1.75,word,m,,,,,,,
,,,,,,,,,,,sezix,001,2023-11-09_13h37.57.394,vowel_harmony,2023.2.3,Win32,12.01475412,472.2649,473.2578,,,,,,,,,,,,,,,,,,,,,,,,,,473.2578,474.143,m,1,0.78,,474.1431,474.1432,,0,222,222,16,1,17,yavaş,5087,231.1331,2886,0.3155,5,harmonic,1.6,word,m,,,,,,,
,,,,,,,,,,,sezix,001,2023-11-09_13h37.57.394,vowel_harmony,2023.2.3,Win32,12.01475412,474.1434,475.1539,,,,,,,,,,,,,,,,,,,,,,,,,,475.1539,475.8121,m,1,0.553,,475.8122,475.8122,,0,223,223,0,1,1,sanat,3121,141.8059,2485,0.2717,5,harmonic,1.4,word,m,,,,,,,
,,,,,,,,,,,sezix,001,2023-11-09_13h37.57.394,vowel_harmony,2023.2.3,Win32,12.01475412,475.8124,476.8095,,,,,,,,,,,,,,,,,,,,,,,,,,476.8095,477.472,m,1,0.5578,,477.472,477.4721,,0,224,224,25,1,26,rapor,703,31.9415,617,0.0675,5,harmonic,1.8,word,m,,,,,,,
,,,,,,,,,,,sezix,001,2023-11-09_13h37.57.394,vowel_harmony,2023.2.3,Win32,12.01475412,477.4723,478.4626,,,,,,,,,,,,,,,,,,,,,,,,,,478.4626,479.2327,m,1,0.6674,,479.2328,479.2328,,0,225,225,125,1,126,ikna,1276,57.9764,1173,0.1282,4,notharmonic,1.85,word,m,,,,,,,
,,,,,,,,,,,sezix,001,2023-11-09_13h37.57.394,vowel_harmony,2023.2.3,Win32,12.01475412,479.2331,480.2218,,,,,,,,,,,,,,,,,,,,,,,,,,480.2218,481.1018,z,1,0.7698,,481.1018,481.1019,,0,226,226,302,1,303,işgar,,,,,5,notharmonic,1.9,nw,z,,,,,,,
,,,,,,,,,,,sezix,001,2023-11-09_13h37.57.394,vowel_harmony,2023.2.3,Win32,12.01475412,481.1022,482.0155,,,,,,,,,,,,,,,,,,,,,,,,,,482.0155,482.6653,m,1,0.5212,,482.6653,482.6654,,0,227,227,129,1,130,tahmin,2353,106.911,2273,0.2485,6,notharmonic,1.6,word,m,,,,,,,
,,,,,,,,,,,sezix,001,2023-11-09_13h37.57.394,vowel_harmony,2023.2.3,Win32,12.01475412,482.6658,483.676,,,,,,,,,,,,,,,,,,,,,,,,,,483.676,484.3416,m,1,0.5553,,484.3417,484.3417,,0,228,228,21,1,22,duygu,1877,85.2834,1760,0.1924,5,harmonic,1.8,word,m,,,,,,,
,,,,,,,,,,,sezix,001,2023-11-09_13h37.57.394,vowel_harmony,2023.2.3,Win32,12.01475412,484.342,485.3365,,,,,,,,,,,,,,,,,,,,,,,,,,485.3365,486.2138,z,1,0.7736,,486.2138,486.2138,,0,229,229,279,1,280,tadde,,,,,5,notharmonic,1.8,nw,z,,,,,,,
,,,,,,,,,,,sezix,001,2023-11-09_13h37.57.394,vowel_harmony,2023.2.3,Win32,12.01475412,486.2141,487.2146,,,,,,,,,,,,,,,,,,,,,,,,,,487.2146,487.8765,m,1,0.5565,,487.8765,487.8766,,0,230,230,178,1,179,dikkat,6230,283.0665,5888,0.6437,6,notharmonic,2.05,word,m,,,,,,,
,,,,,,,,,,,sezix,001,2023-11-09_13h37.57.394,vowel_harmony,2023.2.3,Win32,12.01475412,487.8767,488.8694,,,,,,,,,,,,,,,,,,,,,,,,,,488.8694,489.5425,m,1,0.567,,489.5425,489.5426,,0,231,231,145,1,146,iddia,2430,110.4096,2295,0.2509,5,notharmonic,1.85,word,m,,,,,,,
,,,,,,,,,,,sezix,001,2023-11-09_13h37.57.394,vowel_harmony,2023.2.3,Win32,12.01475412,489.5428,490.5368,,,,,,,,,,,,,,,,,,,,,,,,,,490.5368,491.2015,m,1,0.5537,,491.2015,491.2015,,0,232,232,174,1,175,bugün,13879,630.6067,12842,1.4039,5,notharmonic,1.85,word,m,,,,,,,
,,,,,,,,,,,sezix,001,2023-11-09_13h37.57.394,vowel_harmony,2023.2.3,Win32,12.01475412,491.2018,492.2129,,,,,,,,,,,,,,,,,,,,,,,,,,492.2129,492.9932,z,1,0.6747,,492.9933,492.9933,,0,233,233,280,1,281,adalek,,,,,6,notharmonic,1.85,nw,z,,,,,,,
,,,,,,,,,,,sezix,001,2023-11-09_13h37.57.394,vowel_harmony,2023.2.3,Win32,12.01475412,492.9937,493.9798,,,,,,,,,,,,,,,,,,,,,,,,,,493.9798,494.7502,z,1,0.6646,,494.7502,494.7502,,0,234,234,326,1,327,ailo,,,,,4,notharmonic,1.75,nw,z,,,,,,,
,,,,,,,,,,,sezix,001,2023-11-09_13h37.57.394,vowel_harmony,2023.2.3,Win32,12.01475412,494.7505,495.7519,,,,,,,,,,,,,,,,,,,,,,,,,,495.7519,496.4106,z,1,0.5534,,496.4106,496.4106,,0,235,235,324,1,325,pakeh,,,,,5,notharmonic,1.9,nw,z,,,,,,,
,,,,,,,,,,,sezix,001,2023-11-09_13h37.57.394,vowel_harmony,2023.2.3,Win32,12.01475412,496.4108,497.4184,,,,,,,,,,,,,,,,,,,,,,,,,,497.4186,498.1893,z,1,0.6641,0.0001,498.1893,498.1893,,0,236,236,323,1,324,devak,,,,,5,notharmonic,1.75,nw,z,,,,,,,
,,,,,,,,,,,sezix,001,2023-11-09_13h37.57.394,vowel_harmony,2023.2.3,Win32,12.01475412,498.1896,499.1865,,,,,,,,,,,,,,,,,,,,,,,,,,499.1865,499.8529,m,1,0.5625,,499.8529,499.853,,0,237,237,67,1,68,bayram,1948,88.5094,1648,0.1802,6,harmonic,1.85,word,m,,,,,,,
,,,,,,,,,,,sezix,001,2023-11-09_13h37.57.394,vowel_harmony,2023.2.3,Win32,12.01475412,499.8532,500.8409,,,,,,,,,,,,,,,,,,,,,,,,,,500.841,501.6287,z,1,0.6817,,501.6288,501.6288,,0,238,238,182,1,183,orsın,,,,,5,harmonic,1.95,nw,z,,,,,,,
,,,,,,,,,,,sezix,001,2023-11-09_13h37.57.394,vowel_harmony,2023.2.3,Win32,12.01475412,501.6291,502.6234,,,,,,,,,,,,,,,,,,,,,,,,,,502.6235,503.4223,z,1,0.6939,,503.4223,503.4224,,0,239,239,334,1,335,işgan,,,,,5,notharmonic,1.95,nw,z,,,,,,,
,,,,,,,,,,,sezix,001,2023-11-09_13h37.57.394,vowel_harmony,2023.2.3,Win32,12.01475412,503.4226,504.4209,,,,,,,,,,,,,,,,,,,,,,,,,,504.4209,505.0826,z,1,0.5571,,505.0826,512.7018,space,0,240,240,234,1,235,düzöt,,,,,5,harmonic,2.05,nw,z,7.5066,,,,,,
,,,,,,,,,,,sezix,001,2023-11-09_13h37.57.394,vowel_harmony,2023.2.3,Win32,12.01475412,512.7113,513.6899,,,,,,,,,,,,,,,,,,,,,,,,,,513.69,514.464,m,1,0.6694,,514.464,514.4641,,0,241,241,31,1,32,fazla,18293,831.1614,16694,1.825,5,harmonic,1,word,m,,,,,,,
,,,,,,,,,,,sezix,001,2023-11-09_13h37.57.394,vowel_harmony,2023.2.3,Win32,12.01475412,514.4644,515.4539,,,,,,,,,,,,,,,,,,,,,,,,,,515.454,516.1074,m,1,0.55,,516.1075,516.1075,,0,242,242,106,1,107,esnaf,315,14.3124,284,0.031,5,notharmonic,1.55,word,m,,,,,,,
,,,,,,,,,,,sezix,001,2023-11-09_13h37.57.394,vowel_harmony,2023.2.3,Win32,12.01475412,516.1077,517.0933,,,,,,,,,,,,,,,,,,,,,,,,,,517.0934,517.784,z,1,0.5765,,517.784,517.7842,,0,243,243,186,1,187,habık,,,,,5,harmonic,1.9,nw,z,,,,,,,
,,,,,,,,,,,sezix,001,2023-11-09_13h37.57.394,vowel_harmony,2023.2.3,Win32,12.01475412,517.7845,518.8095,,,,,,,,,,,,,,,,,,,,,,,,,,518.8095,519.4794,m,1,0.5627,,519.4795,519.4796,,0,244,244,138,1,139,kardeş,1270,57.7038,1174,0.1283,6,notharmonic,1.9,word,m,,,,,,,
,,,,,,,,,,,sezix,001,2023-11-09_13h37.57.394,vowel_harmony,2023.2.3,Win32,12.01475412,519.4798,520.5014,,,,,,,,,,,,,,,,,,,,,,,,,,520.5015,521.4933,m,1,0.8857,,521.4934,521.4934,,0,245,245,166,1,167,maden,402,18.2653,339,0.0371,5,notharmonic,1.45,word,m,,,,,,,
,,,,,,,,,,,sezix,001,2023-11-09_13h37.57.394,vowel_harmony,2023.2.3,Win32,12.01475412,521.4937,522.4914,,,,,,,,,,,,,,,,,,,,,,,,,,522.4914,523.1618,z,1,0.5659,,523.1619,523.1619,,0,246,246,347,1,348,tekram,,,,,6,notharmonic,1.95,nw,z,,,,,,,
,,,,,,,,,,,sezix,001,2023-11-09_13h37.57.394,vowel_harmony,2023.2.3,Win32,12.01475412,523.1622,524.1639,,,,,,,,,,,,,,,,,,,,,,,,,,524.164,524.8299,m,1,0.5624,,524.8299,524.8299,,0,247,247,26,1,27,sebze,1094,49.707,961,0.1051,5,harmonic,1.9,word,m,,,,,,,
,,,,,,,,,,,sezix,001,2023-11-09_13h37.57.394,vowel_harmony,2023.2.3,Win32,12.01475412,524.8302,525.7967,,,,,,,,,,,,,,,,,,,,,,,,,,525.7967,526.4605,m,1,0.5598,9.99999E-05,526.4606,526.4606,,0,248,248,136,1,137,beyaz,5517,250.6706,4788,0.5234,5,notharmonic,1.85,word,m,,,,,,,
,,,,,,,,,,,sezix,001,2023-11-09_13h37.57.394,vowel_harmony,2023.2.3,Win32,12.01475412,526.4608,527.4503,,,,,,,,,,,,,,,,,,,,,,,,,,527.4503,528.1241,m,1,0.563,,528.1241,528.1242,,0,249,249,72,1,73,çorba,1674,76.0599,1513,0.1654,5,harmonic,1.75,word,m,,,,,,,
,,,,,,,,,,,sezix,001,2023-11-09_13h37.57.394,vowel_harmony,2023.2.3,Win32,12.01475412,528.1244,529.1145,,,,,,,,,,,,,,,,,,,,,,,,,,529.1146,529.9881,m,1,0.7693,,529.9881,529.9882,,0,250,250,47,1,48,kaza,740,33.6227,679,0.0742,4,harmonic,1.85,word,m,,,,,,,
,,,,,,,,,,,sezix,001,2023-11-09_13h37.57.394,vowel_harmony,2023.2.3,Win32,12.01475412,529.9884,530.9752,,,,,,,,,,,,,,,,,,,,,,,,,,530.9752,531.6452,m,1,0.5601,,531.6452,531.6452,,0,251,251,61,1,62,yıldız,1775,80.649,1532,0.1675,6,harmonic,1.6,word,m,,,,,,,
,,,,,,,,,,,sezix,001,2023-11-09_13h37.57.394,vowel_harmony,2023.2.3,Win32,12.01475412,531.6454,532.6475,,,,,,,,,,,,,,,,,,,,,,,,,,532.6475,533.3141,m,1,0.5628,,533.3141,533.3142,,0,252,252,18,1,19,normal,4154,188.7413,3788,0.4141,6,harmonic,1.75,word,m,,,,,,,
,,,,,,,,,,,sezix,001,2023-11-09_13h37.57.394,vowel_harmony,2023.2.3,Win32,12.01475412,533.3144,534.3036,,,,,,,,,,,,,,,,,,,,,,,,,,534.3037,534.9685,z,1,0.5607,,534.9685,534.9685,,0,253,253,245,1,246,bıyan,,,,,5,harmonic,1.7,nw,z,,,,,,,
,,,,,,,,,,,sezix,001,2023-11-09_13h37.57.394,vowel_harmony,2023.2.3,Win32,12.01475412,534.9687,535.9482,,,,,,,,,,,,,,,,,,,,,,,,,,535.9482,536.6224,m,1,0.5636,,536.6224,536.6225,,0,254,254,163,1,164,limon,1658,75.3329,1481,0.1619,5,notharmonic,1.75,word,m,,,,,,,
,,,,,,,,,,,sezix,001,2023-11-09_13h37.57.394,vowel_harmony,2023.2.3,Win32,12.01475412,536.6227,537.6115,,,,,,,,,,,,,,,,,,,,,,,,,,537.6115,538.2849,z,1,0.5672,,538.2849,538.2851,,0,255,255,203,1,204,döves,,,,,5,harmonic,1.8,nw,z,,,,,,,
,,,,,,,,,,,sezix,001,2023-11-09_13h37.57.394,vowel_harmony,2023.2.3,Win32,12.01475412,538.2852,539.2806,,,,,,,,,,,,,,,,,,,,,,,,,,539.2806,540.0483,m,1,0.6647,,540.0483,540.0484,,0,256,256,28,1,29,parlak,1142,51.888,1088,0.1189,6,harmonic,1.7,word,m,,,,,,,
,,,,,,,,,,,sezix,001,2023-11-09_13h37.57.394,vowel_harmony,2023.2.3,Win32,12.01475412,540.0486,541.0462,,,,,,,,,,,,,,,,,,,,,,,,,,541.0463,541.8155,m,1,0.6665,,541.8155,541.8155,,0,257,257,66,1,67,sanık,768,34.8949,699,0.0764,5,harmonic,1.85,word,m,,,,,,,
,,,,,,,,,,,sezix,001,2023-11-09_13h37.57.394,vowel_harmony,2023.2.3,Win32,12.01475412,541.8158,542.8316,,,,,,,,,,,,,,,,,,,,,,,,,,542.8317,543.5475,z,1,0.5962,,543.5475,543.5476,,0,258,258,281,1,282,afel,,,,,4,notharmonic,1.8,nw,z,,,,,,,
,,,,,,,,,,,sezix,001,2023-11-09_13h37.57.394,vowel_harmony,2023.2.3,Win32,12.01475412,543.5478,544.5394,,,,,,,,,,,,,,,,,,,,,,,,,,544.5394,545.3208,z,1,0.6749,,545.3208,545.3208,,0,259,259,299,1,300,fihal,,,,,5,notharmonic,1.95,nw,z,,,,,,,
,,,,,,,,,,,sezix,001,2023-11-09_13h37.57.394,vowel_harmony,2023.2.3,Win32,12.01475412,545.3211,546.3134,,,,,,,,,,,,,,,,,,,,,,,,,,546.3134,546.9917,m,1,0.569,0.0001,546.9917,546.9917,,0,260,260,104,1,105,cevap,5232,237.7213,4822,0.5271,5,notharmonic,1.85,word,m,,,,,,,
,,,,,,,,,,,sezix,001,2023-11-09_13h37.57.394,vowel_harmony,2023.2.3,Win32,12.01475412,546.992,547.9962,,,,,,,,,,,,,,,,,,,,,,,,,,547.9962,548.6721,z,1,0.5725,,548.6722,548.6722,,0,261,261,313,1,314,ikas,,,,,4,notharmonic,1.85,nw,z,,,,,,,
,,,,,,,,,,,sezix,001,2023-11-09_13h37.57.394,vowel_harmony,2023.2.3,Win32,12.01475412,548.6724,549.6709,,,,,,,,,,,,,,,,,,,,,,,,,,549.6709,550.3363,z,1,0.5594,,550.3364,550.3364,,0,262,262,226,1,227,tefem,,,,,5,harmonic,1.75,nw,z,,,,,,,
,,,,,,,,,,,sezix,001,2023-11-09_13h37.57.394,vowel_harmony,2023.2.3,Win32,12.01475412,550.3366,551.3204,,,,,,,,,,,,,,,,,,,,,,,,,,551.3204,552.0159,m,1,0.5924,,552.0159,552.016,,0,263,263,84,1,85,ülke,3121,141.8059,2801,0.3062,4,harmonic,1.65,word,m,,,,,,,
,,,,,,,,,,,sezix,001,2023-11-09_13h37.57.394,vowel_harmony,2023.2.3,Win32,12.01475412,552.0163,553.0349,,,,,,,,,,,,,,,,,,,,,,,,,,553.0349,553.6984,m,1,0.5586,,553.6984,553.6984,,0,264,264,165,1,166,gazete,1402,63.7013,1270,0.1388,6,notharmonic,1.8,word,m,,,,,,,
,,,,,,,,,,,sezix,001,2023-11-09_13h37.57.394,vowel_harmony,2023.2.3,Win32,12.01475412,553.6987,554.7137,,,,,,,,,,,,,,,,,,,,,,,,,,554.7138,555.3825,z,1,0.5599,,555.3826,555.3827,,0,265,265,314,1,315,seral,,,,,5,notharmonic,1.7,nw,z,,,,,,,
,,,,,,,,,,,sezix,001,2023-11-09_13h37.57.394,vowel_harmony,2023.2.3,Win32,12.01475412,555.3829,556.3722,,,,,,,,,,,,,,,,,,,,,,,,,,556.3722,557.0451,m,1,0.5685,,557.0451,557.0452,,0,266,266,162,1,163,hariç,1267,57.5675,1233,0.1348,5,notharmonic,1.75,word,m,,,,,,,
,,,,,,,,,,,sezix,001,2023-11-09_13h37.57.394,vowel_harmony,2023.2.3,Win32,12.01475412,557.0455,558.0349,,,,,,,,,,,,,,,,,,,,,,,,,,558.0349,558.8104,z,1,0.6693,,558.8105,558.8106,,0,267,267,289,1,290,karmen,,,,,6,notharmonic,1.75,nw,z,,,,,,,
,,,,,,,,,,,sezix,001,2023-11-09_13h37.57.394,vowel_harmony,2023.2.3,Win32,12.01475412,558.8108,559.8009,,,,,,,,,,,,,,,,,,,,,,,,,,559.8009,560.6811,z,1,0.772,,560.6811,560.6812,,0,268,268,232,1,233,kanur,,,,,5,harmonic,1.7,nw,z,,,,,,,
,,,,,,,,,,,sezix,001,2023-11-09_13h37.57.394,vowel_harmony,2023.2.3,Win32,12.01475412,560.6813,561.6665,,,,,,,,,,,,,,,,,,,,,,,,,,561.6665,562.3365,m,1,0.5626,,562.3365,562.3366,,0,269,269,44,1,45,kayıt,1234,56.0681,1058,0.1157,5,harmonic,1.35,word,m,,,,,,,
,,,,,,,,,,,sezix,001,2023-11-09_13h37.57.394,vowel_harmony,2023.2.3,Win32,12.01475412,562.3368,563.3193,,,,,,,,,,,,,,,,,,,,,,,,,,563.3193,563.9819,z,1,0.5587,,563.982,563.982,,0,270,270,355,1,356,adül,,,,,4,notharmonic,1.85,nw,z,,,,,,,
,,,,,,,,,,,sezix,001,2023-11-09_13h37.57.394,vowel_harmony,2023.2.3,Win32,12.01475412,563.9822,564.969,,,,,,,,,,,,,,,,,,,,,,,,,,564.969,565.6257,z,1,0.5513,,565.6257,565.6258,,0,271,271,180,1,181,ayaro,,,,,5,harmonic,1.8,nw,z,,,,,,,
,,,,,,,,,,,sezix,001,2023-11-09_13h37.57.394,vowel_harmony,2023.2.3,Win32,12.01475412,565.626,566.6294,,,,,,,,,,,,,,,,,,,,,,,,,,566.6294,567.2911,z,1,0.5545,,567.2912,567.2913,,0,272,272,212,1,213,ortat,,,,,5,harmonic,1.7,nw,z,,,,,,,
,,,,,,,,,,,sezix,001,2023-11-09_13h37.57.394,vowel_harmony,2023.2.3,Win32,12.01475412,567.2914,568.2847,,,,,,,,,,,,,,,,,,,,,,,,,,568.2847,568.9512,m,1,0.5571,,568.9512,568.9513,,0,273,273,7,1,8,hizmet,3023,137.3531,2689,0.294,6,harmonic,1.75,word,m,,,,,,,
,,,,,,,,,,,sezix,001,2023-11-09_13h37.57.394,vowel_harmony,2023.2.3,Win32,12.01475412,568.9515,569.9485,,,,,,,,,,,,,,,,,,,,,,,,,,569.9486,570.7219,z,1,0.67,,570.7219,570.722,,0,274,274,348,1,349,aife,,,,,4,notharmonic,1.75,nw,z,,,,,,,
,,,,,,,,,,,sezix,001,2023-11-09_13h37.57.394,vowel_harmony,2023.2.3,Win32,12.01475412,570.7223,571.7256,,,,,,,,,,,,,,,,,,,,,,,,,,571.7256,572.4959,z,1,0.6664,,572.4959,572.496,,0,275,275,301,1,302,mezak,,,,,5,notharmonic,1.8,nw,z,,,,,,,
,,,,,,,,,,,sezix,001,2023-11-09_13h37.57.394,vowel_harmony,2023.2.3,Win32,12.01475412,572.4962,573.4945,,,,,,,,,,,,,,,,,,,,,,,,,,573.4946,574.1576,z,1,0.5582,,574.1576,574.1577,,0,276,276,296,1,297,işban,,,,,5,notharmonic,1.95,nw,z,,,,,,,
,,,,,,,,,,,sezix,001,2023-11-09_13h37.57.394,vowel_harmony,2023.2.3,Win32,12.01475412,574.1579,575.1484,,,,,,,,,,,,,,,,,,,,,,,,,,575.1484,575.9174,m,1,0.6646,,575.9174,575.9175,,0,277,277,65,1,66,fikir,2552,115.9528,2413,0.2638,5,harmonic,1.9,word,m,,,,,,,
,,,,,,,,,,,sezix,001,2023-11-09_13h37.57.394,vowel_harmony,2023.2.3,Win32,12.01475412,575.9177,576.9109,,,,,,,,,,,,,,,,,,,,,,,,,,576.911,577.5814,m,1,0.5607,,577.5814,577.5815,,0,278,278,146,1,147,mavi,2206,100.2319,1934,0.2114,4,notharmonic,1.45,word,m,,,,,,,
,,,,,,,,,,,sezix,001,2023-11-09_13h37.57.394,vowel_harmony,2023.2.3,Win32,12.01475412,577.5818,578.5735,,,,,,,,,,,,,,,,,,,,,,,,,,578.5735,579.3471,m,1,0.6636,,579.3472,579.3472,,0,279,279,152,1,153,tedavi,1865,84.7382,1597,0.1746,6,notharmonic,1.8,word,m,,,,,,,
,,,,,,,,,,,sezix,001,2023-11-09_13h37.57.394,vowel_harmony,2023.2.3,Win32,12.01475412,579.3475,580.3469,,,,,,,,,,,,,,,,,,,,,,,,,,580.3469,581.0342,z,1,0.5707,,581.0342,581.0342,,0,280,280,294,1,295,mesap,,,,,5,notharmonic,1.8,nw,z,,,,,,,
,,,,,,,,,,,sezix,001,2023-11-09_13h37.57.394,vowel_harmony,2023.2.3,Win32,12.01475412,581.0344,582.0138,,,,,,,,,,,,,,,,,,,,,,,,,,582.0139,582.7911,z,1,0.6709,,582.7911,582.7912,,0,281,281,316,1,317,misaf,,,,,5,notharmonic,1.85,nw,z,,,,,,,
,,,,,,,,,,,sezix,001,2023-11-09_13h37.57.394,vowel_harmony,2023.2.3,Win32,12.01475412,582.7914,583.7923,,,,,,,,,,,,,,,,,,,,,,,,,,583.7924,584.5557,m,1,0.6589,,584.5557,584.5557,,0,282,282,95,1,96,takip,4996,226.9984,4651,0.5084,5,notharmonic,1.55,word,m,,,,,,,
,,,,,,,,,,,sezix,001,2023-11-09_13h37.57.394,vowel_harmony,2023.2.3,Win32,12.01475412,584.556,585.543,,,,,,,,,,,,,,,,,,,,,,,,,,585.5431,586.2081,z,1,0.5603,,586.2081,586.2082,,0,283,283,193,1,194,yokın,,,,,5,harmonic,1.85,nw,z,,,,,,,
,,,,,,,,,,,sezix,001,2023-11-09_13h37.57.394,vowel_harmony,2023.2.3,Win32,12.01475412,586.2084,587.2041,,,,,,,,,,,,,,,,,,,,,,,,,,587.2041,587.8641,z,1,0.5559,,587.8641,587.8641,,0,284,284,306,1,307,otet,,,,,4,notharmonic,1.95,nw,z,,,,,,,
,,,,,,,,,,,sezix,001,2023-11-09_13h37.57.394,vowel_harmony,2023.2.3,Win32,12.01475412,587.8643,588.856,,,,,,,,,,,,,,,,,,,,,,,,,,588.856,589.6284,z,1,0.6679,,589.6284,589.6285,,0,285,285,273,1,274,nimal,,,,,5,notharmonic,1.9,nw,z,,,,,,,
,,,,,,,,,,,sezix,001,2023-11-09_13h37.57.394,vowel_harmony,2023.2.3,Win32,12.01475412,589.6287,590.6213,,,,,,,,,,,,,,,,,,,,,,,,,,590.6213,591.2858,m,1,0.5617,,591.2858,591.2859,,0,286,286,58,1,59,ayak,2143,97.3694,1931,0.2111,4,harmonic,1,word,m,,,,,,,
,,,,,,,,,,,sezix,001,2023-11-09_13h37.57.394,vowel_harmony,2023.2.3,Win32,12.01475412,591.286,592.2771,,,,,,,,,,,,,,,,,,,,,,,,,,592.2771,592.938,m,1,0.5547,,592.9381,592.9381,,0,287,287,127,1,128,şahane,1153,52.3877,1108,0.1211,6,notharmonic,1.8,word,m,,,,,,,
,,,,,,,,,,,sezix,001,2023-11-09_13h37.57.394,vowel_harmony,2023.2.3,Win32,12.01475412,592.9383,593.9296,,,,,,,,,,,,,,,,,,,,,,,,,,593.9296,594.5934,m,1,0.5553,,594.5935,594.5936,,0,288,288,3,1,4,minik,2916,132.4915,2594,0.2836,5,harmonic,1.6,word,m,,,,,,,
,,,,,,,,,,,sezix,001,2023-11-09_13h37.57.394,vowel_harmony,2023.2.3,Win32,12.01475412,594.5938,595.5956,,,,,,,,,,,,,,,,,,,,,,,,,,595.5957,596.2622,m,1,0.5607,,596.2622,596.2623,,0,289,289,177,1,178,tekrar,10788,490.1639,9352,1.0224,6,notharmonic,1.85,word,m,,,,,,,
,,,,,,,,,,,sezix,001,2023-11-09_13h37.57.394,vowel_harmony,2023.2.3,Win32,12.01475412,596.2625,597.2672,,,,,,,,,,,,,,,,,,,,,,,,,,597.2672,597.9368,z,1,0.5592,,597.9368,597.937,,0,290,290,183,1,184,orkın,,,,,5,harmonic,1.9,nw,z,,,,,,,
,,,,,,,,,,,sezix,001,2023-11-09_13h37.57.394,vowel_harmony,2023.2.3,Win32,12.01475412,597.9371,598.9279,,,,,,,,,,,,,,,,,,,,,,,,,,598.9279,599.4872,z,1,0.4533,,599.4872,599.4873,,0,291,291,350,1,351,resun,,,,,5,notharmonic,1.85,nw,z,,,,,,,
,,,,,,,,,,,sezix,001,2023-11-09_13h37.57.394,vowel_harmony,2023.2.3,Win32,12.01475412,599.4875,600.4692,,,,,,,,,,,,,,,,,,,,,,,,,,600.4693,601.1507,z,1,0.5713,,601.1508,601.1508,,0,292,292,236,1,237,toklam,,,,,6,harmonic,1.85,nw,z,,,,,,,
,,,,,,,,,,,sezix,001,2023-11-09_13h37.57.394,vowel_harmony,2023.2.3,Win32,12.01475412,601.151,602.1515,,,,,,,,,,,,,,,,,,,,,,,,,,602.1515,602.7155,z,1,0.4573,,602.7155,602.7155,,0,293,293,278,1,279,sekon,,,,,5,notharmonic,1.85,nw,z,,,,,,,
,,,,,,,,,,,sezix,001,2023-11-09_13h37.57.394,vowel_harmony,2023.2.3,Win32,12.01475412,602.7158,603.7457,,,,,,,,,,,,,,,,,,,,,,,,,,603.7457,604.4033,m,1,0.5533,,604.4033,604.4034,,0,294,294,170,1,171,basit,3385,153.801,3177,0.3473,5,notharmonic,1.65,word,m,,,,,,,
,,,,,,,,,,,sezix,001,2023-11-09_13h37.57.394,vowel_harmony,2023.2.3,Win32,12.01475412,604.4036,605.3985,,,,,,,,,,,,,,,,,,,,,,,,,,605.3985,606.1768,z,1,0.6703,,606.1769,606.177,,0,295,295,231,1,232,norgun,,,,,6,harmonic,1.75,nw,z,,,,,,,
,,,,,,,,,,,sezix,001,2023-11-09_13h37.57.394,vowel_harmony,2023.2.3,Win32,12.01475412,606.1772,607.1671,,,,,,,,,,,,,,,,,,,,,,,,,,607.1671,607.8263,m,1,0.5531,,607.8264,607.8264,,0,296,296,131,1,132,hakim,1677,76.1962,1559,0.1704,5,notharmonic,1,word,m,,,,,,,
,,,,,,,,,,,sezix,001,2023-11-09_13h37.57.394,vowel_harmony,2023.2.3,Win32,12.01475412,607.8267,608.8159,,,,,,,,,,,,,,,,,,,,,,,,,,608.8159,609.4892,z,1,0.5671,,609.4892,609.4893,,0,297,297,298,1,299,yelsın,,,,,6,notharmonic,1.95,nw,z,,,,,,,
,,,,,,,,,,,sezix,001,2023-11-09_13h37.57.394,vowel_harmony,2023.2.3,Win32,12.01475412,609.4895,610.4887,,,,,,,,,,,,,,,,,,,,,,,,,,610.4887,611.2626,m,1,0.6693,,611.2627,611.2627,,0,298,298,114,1,115,nisan,2321,105.457,2044,0.2235,5,notharmonic,1.6,word,m,,,,,,,
,,,,,,,,,,,sezix,001,2023-11-09_13h37.57.394,vowel_harmony,2023.2.3,Win32,12.01475412,611.263,612.2439,,,,,,,,,,,,,,,,,,,,,,,,,,612.2439,613.0168,m,1,0.6687,0.0001,613.0169,613.017,,0,299,299,51,1,52,ilginç,2803,127.3572,2690,0.2941,6,harmonic,1.8,word,m,,,,,,,
,,,,,,,,,,,sezix,001,2023-11-09_13h37.57.394,vowel_harmony,2023.2.3,Win32,12.01475412,613.0172,614.0146,,,,,,,,,,,,,,,,,,,,,,,,,,614.0146,614.6734,m,1,0.5537,,614.6734,614.6735,,0,300,300,90,1,91,tarif,2834,128.7657,2611,0.2854,5,notharmonic,1.5,word,m,,,,,,,
,,,,,,,,,,,sezix,001,2023-11-09_13h37.57.394,vowel_harmony,2023.2.3,Win32,12.01475412,614.6737,615.6793,,,,,,,,,,,,,,,,,,,,,,,,,,615.6794,616.448,z,1,0.6641,,616.448,616.448,,0,301,301,317,1,318,mevul,,,,,5,notharmonic,1.95,nw,z,,,,,,,
,,,,,,,,,,,sezix,001,2023-11-09_13h37.57.394,vowel_harmony,2023.2.3,Win32,12.01475412,616.4483,617.443,,,,,,,,,,,,,,,,,,,,,,,,,,617.443,618.2234,m,1,0.6756,,618.2234,618.2235,,0,302,302,75,1,76,roman,1499,68.1086,1281,0.14,5,harmonic,1.6,word,m,,,,,,,
,,,,,,,,,,,sezix,001,2023-11-09_13h37.57.394,vowel_harmony,2023.2.3,Win32,12.01475412,618.2237,619.2232,,,,,,,,,,,,,,,,,,,,,,,,,,619.2232,619.8951,z,1,0.5571,,619.8951,619.8951,,0,303,303,188,1,189,tonık,,,,,5,harmonic,1.85,nw,z,,,,,,,
,,,,,,,,,,,sezix,001,2023-11-09_13h37.57.394,vowel_harmony,2023.2.3,Win32,12.01475412,619.8953,620.8894,,,,,,,,,,,,,,,,,,,,,,,,,,620.8894,621.5601,z,1,0.5655,,621.5601,621.5601,,0,304,304,246,1,247,orkın,,,,,5,harmonic,1.9,nw,z,,,,,,,
,,,,,,,,,,,sezix,001,2023-11-09_13h37.57.394,vowel_harmony,2023.2.3,Win32,12.01475412,621.5603,622.5527,,,,,,,,,,,,,,,,,,,,,,,,,,622.5527,623.448,z,1,0.7894,,623.448,623.4481,,0,305,305,308,1,309,hafer,,,,,5,notharmonic,1.85,nw,z,,,,,,,
,,,,,,,,,,,sezix,001,2023-11-09_13h37.57.394,vowel_harmony,2023.2.3,Win32,12.01475412,623.4484,624.443,,,,,,,,,,,,,,,,,,,,,,,,,,624.443,625.1098,m,1,0.5605,,625.1098,625.1098,,0,306,306,8,1,9,güven,1433,65.1098,1300,0.1421,5,harmonic,1.35,word,m,,,,,,,
,,,,,,,,,,,sezix,001,2023-11-09_13h37.57.394,vowel_harmony,2023.2.3,Win32,12.01475412,625.1101,626.0863,,,,,,,,,,,,,,,,,,,,,,,,,,626.0863,626.7595,z,1,0.5601,,626.7596,626.7597,,0,307,307,305,1,306,tamü,,,,,4,notharmonic,1.75,nw,z,,,,,,,
,,,,,,,,,,,sezix,001,2023-11-09_13h37.57.394,vowel_harmony,2023.2.3,Win32,12.01475412,626.7599,627.7495,,,,,,,,,,,,,,,,,,,,,,,,,,627.7495,628.5313,z,1,0.6693,,628.5313,628.5313,,0,308,308,225,1,226,düvem,,,,,5,harmonic,1.7,nw,z,,,,,,,
,,,,,,,,,,,sezix,001,2023-11-09_13h37.57.394,vowel_harmony,2023.2.3,Win32,12.01475412,628.5315,629.5295,,,,,,,,,,,,,,,,,,,,,,,,,,629.5295,630.1991,z,1,0.5589,0,630.1991,630.1992,,0,309,309,240,1,241,hoga,,,,,4,harmonic,1.75,nw,z,,,,,,,
,,,,,,,,,,,sezix,001,2023-11-09_13h37.57.394,vowel_harmony,2023.2.3,Win32,12.01475412,630.1993,631.2117,,,,,,,,,,,,,,,,,,,,,,,,,,631.2117,631.992,m,1,0.67,,631.992,631.992,,0,310,310,167,1,168,adalet,1611,73.1975,1388,0.1517,6,notharmonic,1.65,word,m,,,,,,,
,,,,,,,,,,,sezix,001,2023-11-09_13h37.57.394,vowel_harmony,2023.2.3,Win32,12.01475412,631.9923,632.971,,,,,,,,,,,,,,,,,,,,,,,,,,632.971,633.6379,m,1,0.5618,,633.6379,633.638,,0,311,311,157,1,158,aktif,1062,48.2531,986,0.1078,5,notharmonic,1.9,word,m,,,,,,,
,,,,,,,,,,,sezix,001,2023-11-09_13h37.57.394,vowel_harmony,2023.2.3,Win32,12.01475412,633.6382,634.6529,,,,,,,,,,,,,,,,,,,,,,,,,,634.6529,635.321,z,1,0.5632,,635.321,635.3211,,0,312,312,283,1,284,fahe,,,,,4,notharmonic,1.95,nw,z,,,,,,,
,,,,,,,,,,,sezix,001,2023-11-09_13h37.57.394,vowel_harmony,2023.2.3,Win32,12.01475412,635.3213,636.3485,,,,,,,,,,,,,,,,,,,,,,,,,,636.3485,637.2382,m,1,0.7828,,637.2382,637.2383,,0,313,313,89,1,90,etki,1234,56.0681,1169,0.1278,4,harmonic,1.4,word,m,,,,,,,
,,,,,,,,,,,sezix,001,2023-11-09_13h37.57.394,vowel_harmony,2023.2.3,Win32,12.01475412,637.2385,638.255,,,,,,,,,,,,,,,,,,,,,,,,,,638.2551,638.8697,m,1,0.4929,,638.8697,638.8697,,0,314,314,85,1,86,geçmiş,4195,190.6042,4039,0.4415,6,harmonic,1.55,word,m,,,,,,,
,,,,,,,,,,,sezix,001,2023-11-09_13h37.57.394,vowel_harmony,2023.2.3,Win32,12.01475412,638.8699,639.8752,,,,,,,,,,,,,,,,,,,,,,,,,,639.8752,640.6469,z,1,0.6699,,640.6469,640.6469,,0,315,315,199,1,200,movu,,,,,4,harmonic,1.9,nw,z,,,,,,,
,,,,,,,,,,,sezix,001,2023-11-09_13h37.57.394,vowel_harmony,2023.2.3,Win32,12.01475412,640.6472,641.6455,,,,,,,,,,,,,,,,,,,,,,,,,,641.6455,642.3087,m,1,0.5557,,642.3087,642.3088,,0,316,316,155,1,156,ilaç,1366,62.0656,1215,0.1328,4,notharmonic,1.75,word,m,,,,,,,
,,,,,,,,,,,sezix,001,2023-11-09_13h37.57.394,vowel_harmony,2023.2.3,Win32,12.01475412,642.309,643.3189,,,,,,,,,,,,,,,,,,,,,,,,,,643.3189,644.2124,m,1,0.7807,,644.2125,644.2125,,0,317,317,46,1,47,takım,4370,198.5555,3726,0.4073,5,harmonic,1.7,word,m,,,,,,,
,,,,,,,,,,,sezix,001,2023-11-09_13h37.57.394,vowel_harmony,2023.2.3,Win32,12.01475412,644.2127,645.2233,,,,,,,,,,,,,,,,,,,,,,,,,,645.2233,645.8957,m,1,0.5678,,645.8958,645.8958,,0,318,318,39,1,40,yaygın,1061,48.2076,1019,0.1114,6,harmonic,1.35,word,m,,,,,,,
,,,,,,,,,,,sezix,001,2023-11-09_13h37.57.394,vowel_harmony,2023.2.3,Win32,12.01475412,645.896,646.8905,,,,,,,,,,,,,,,,,,,,,,,,,,646.8906,647.5455,m,0,0.5523,,647.5456,647.5457,,0,319,319,328,1,329,kirul,,,,,5,notharmonic,1.95,nw,z,,,,,,,
,,,,,,,,,,,sezix,001,2023-11-09_13h37.57.394,vowel_harmony,2023.2.3,Win32,12.01475412,647.5458,648.5456,,,,,,,,,,,,,,,,,,,,,,,,,,648.5456,649.2054,m,1,0.5561,,649.2055,649.2055,,0,320,320,107,1,108,merak,5806,263.8016,5524,0.6039,5,notharmonic,1.65,word,m,,,,,,,
,,,,,,,,,,,sezix,001,2023-11-09_13h37.57.394,vowel_harmony,2023.2.3,Win32,12.01475412,649.2057,650.1915,,,,,,,,,,,,,,,,,,,,,,,,,,650.1915,650.8555,z,1,0.5601,,650.8556,650.8556,,0,321,321,218,1,219,tezöl,,,,,5,harmonic,2,nw,z,,,,,,,
,,,,,,,,,,,sezix,001,2023-11-09_13h37.57.394,vowel_harmony,2023.2.3,Win32,12.01475412,650.8559,651.8589,,,,,,,,,,,,,,,,,,,,,,,,,,651.8589,652.5353,z,1,0.5727,,652.5353,652.5354,,0,322,322,201,1,202,ergiy,,,,,5,harmonic,1.85,nw,z,,,,,,,
,,,,,,,,,,,sezix,001,2023-11-09_13h37.57.394,vowel_harmony,2023.2.3,Win32,12.01475412,652.5356,653.5411,,,,,,,,,,,,,,,,,,,,,,,,,,653.5411,654.3119,z,1,0.6656,,654.312,654.3121,,0,323,323,287,1,288,haköm,,,,,5,notharmonic,1.9,nw,z,,,,,,,
,,,,,,,,,,,sezix,001,2023-11-09_13h37.57.394,vowel_harmony,2023.2.3,Win32,12.01475412,654.3123,655.314,,,,,,,,,,,,,,,,,,,,,,,,,,655.314,656.0914,m,1,0.6676,,656.0914,656.0914,,0,324,324,59,1,60,köpek,1044,47.4352,901,0.0985,5,harmonic,1.75,word,m,,,,,,,
,,,,,,,,,,,sezix,001,2023-11-09_13h37.57.394,vowel_harmony,2023.2.3,Win32,12.01475412,656.0917,657.0879,,,,,,,,,,,,,,,,,,,,,,,,,,657.0879,657.753,m,1,0.5589,,657.753,657.7531,,0,325,325,33,1,34,moda,1381,62.7472,1231,0.1346,4,harmonic,1.55,word,m,,,,,,,
,,,,,,,,,,,sezix,001,2023-11-09_13h37.57.394,vowel_harmony,2023.2.3,Win32,12.01475412,657.7532,658.7502,,,,,,,,,,,,,,,,,,,,,,,,,,658.7502,659.53,m,1,0.6774,9.99999E-05,659.5301,659.5301,,0,326,326,87,1,88,mümkün,6604,300.0596,6264,0.6848,6,harmonic,1.9,word,m,,,,,,,
,,,,,,,,,,,sezix,001,2023-11-09_13h37.57.394,vowel_harmony,2023.2.3,Win32,12.01475412,659.5304,660.5171,,,,,,,,,,,,,,,,,,,,,,,,,,660.5171,661.1747,m,1,0.552,,661.1748,661.1748,,0,327,327,175,1,176,aile,3655,166.0687,3126,0.3417,4,notharmonic,1,word,m,,,,,,,
,,,,,,,,,,,sezix,001,2023-11-09_13h37.57.394,vowel_harmony,2023.2.3,Win32,12.01475412,661.1749,662.1668,,,,,,,,,,,,,,,,,,,,,,,,,,662.1669,663.063,z,1,0.7925,,663.063,663.063,,0,328,328,329,1,330,taif,,,,,4,notharmonic,1.8,nw,z,,,,,,,
,,,,,,,,,,,sezix,001,2023-11-09_13h37.57.394,vowel_harmony,2023.2.3,Win32,12.01475412,663.0633,664.0951,,,,,,,,,,,,,,,,,,,,,,,,,,664.0952,664.7554,m,1,0.5568,,664.7554,664.7555,,0,329,329,23,1,24,kurum,986,44.7999,882,0.0964,5,harmonic,1.75,word,m,,,,,,,
,,,,,,,,,,,sezix,001,2023-11-09_13h37.57.394,vowel_harmony,2023.2.3,Win32,12.01475412,664.7558,665.754,,,,,,,,,,,,,,,,,,,,,,,,,,665.754,666.5247,z,1,0.6671,,666.5247,666.5247,,0,330,330,331,1,332,ehun,,,,,4,notharmonic,1.95,nw,z,,,,,,,
,,,,,,,,,,,sezix,001,2023-11-09_13h37.57.394,vowel_harmony,2023.2.3,Win32,12.01475412,666.525,667.526,,,,,,,,,,,,,,,,,,,,,,,,,,667.526,668.1928,m,1,0.5611,,668.1928,668.1929,,0,331,331,80,1,81,merkez,1445,65.6551,1255,0.1372,6,harmonic,1.8,word,m,,,,,,,
,,,,,,,,,,,sezix,001,2023-11-09_13h37.57.394,vowel_harmony,2023.2.3,Win32,12.01475412,668.1931,669.1901,,,,,,,,,,,,,,,,,,,,,,,,,,669.1901,669.9746,z,1,0.6746,,669.9746,669.9746,,0,332,332,196,1,197,bilön,,,,,5,harmonic,1.9,nw,z,,,,,,,
,,,,,,,,,,,sezix,001,2023-11-09_13h37.57.394,vowel_harmony,2023.2.3,Win32,12.01475412,669.9748,670.9714,,,,,,,,,,,,,,,,,,,,,,,,,,670.9714,671.749,m,1,0.6722,0,671.749,671.749,,0,333,333,100,1,101,düşman,1065,48.3894,962,0.1052,6,notharmonic,1.85,word,m,,,,,,,
,,,,,,,,,,,sezix,001,2023-11-09_13h37.57.394,vowel_harmony,2023.2.3,Win32,12.01475412,671.7493,672.7312,,,,,,,,,,,,,,,,,,,,,,,,,,672.7312,673.3985,m,1,0.5632,,673.3985,673.3985,,0,334,334,115,1,116,saniye,1088,49.4344,984,0.1076,6,notharmonic,1.35,word,m,,,,,,,
,,,,,,,,,,,sezix,001,2023-11-09_13h37.57.394,vowel_harmony,2023.2.3,Win32,12.01475412,673.3988,674.3891,,,,,,,,,,,,,,,,,,,,,,,,,,674.3892,675.0645,z,1,0.5712,,675.0645,675.0646,,0,335,335,271,1,272,mimal,,,,,5,notharmonic,1.8,nw,z,,,,,,,
,,,,,,,,,,,sezix,001,2023-11-09_13h37.57.394,vowel_harmony,2023.2.3,Win32,12.01475412,675.0648,676.0686,,,,,,,,,,,,,,,,,,,,,,,,,,676.0686,676.7294,m,1,0.5573,,676.7294,676.7295,,0,336,336,108,1,109,tarih,2806,127.4935,2483,0.2714,5,notharmonic,1.55,word,m,,,,,,,
,,,,,,,,,,,sezix,001,2023-11-09_13h37.57.394,vowel_harmony,2023.2.3,Win32,12.01475412,676.7296,677.7293,,,,,,,,,,,,,,,,,,,,,,,,,,677.7293,678.3982,m,1,0.5635,,678.3982,678.3982,,0,337,337,92,1,93,sahne,1380,62.7017,1238,0.1353,5,notharmonic,1.65,word,m,,,,,,,
,,,,,,,,,,,sezix,001,2023-11-09_13h37.57.394,vowel_harmony,2023.2.3,Win32,12.01475412,678.3985,679.3862,,,,,,,,,,,,,,,,,,,,,,,,,,679.3862,680.0515,m,1,0.5521,,680.0516,680.0517,,0,338,338,60,1,61,doğu,2105,95.6429,1823,0.1993,4,harmonic,1.05,word,m,,,,,,,
,,,,,,,,,,,sezix,001,2023-11-09_13h37.57.394,vowel_harmony,2023.2.3,Win32,12.01475412,680.0519,681.0441,,,,,,,,,,,,,,,,,,,,,,,,,,681.0442,681.7113,z,1,0.5601,,681.7113,681.7113,,0,339,339,310,1,311,yandeş,,,,,6,notharmonic,1.95,nw,z,,,,,,,
,,,,,,,,,,,sezix,001,2023-11-09_13h37.57.394,vowel_harmony,2023.2.3,Win32,12.01475412,681.7116,682.7065,,,,,,,,,,,,,,,,,,,,,,,,,,682.7066,683.2655,z,1,0.4559,,683.2655,683.2656,,0,340,340,204,1,205,gerkez,,,,,6,harmonic,1.9,nw,z,,,,,,,
,,,,,,,,,,,sezix,001,2023-11-09_13h37.57.394,vowel_harmony,2023.2.3,Win32,12.01475412,683.2658,684.2589,,,,,,,,,,,,,,,,,,,,,,,,,,684.2589,684.9166,z,1,0.5521,0.0001,684.9166,684.9167,,0,341,341,322,1,323,normin,,,,,6,notharmonic,1.95,nw,z,,,,,,,
,,,,,,,,,,,sezix,001,2023-11-09_13h37.57.394,vowel_harmony,2023.2.3,Win32,12.01475412,684.9169,685.9086,,,,,,,,,,,,,,,,,,,,,,,,,,685.9086,686.6765,z,1,0.6638,,686.6766,686.6766,,0,342,342,259,1,260,hayuk,,,,,5,harmonic,1.95,nw,z,,,,,,,
,,,,,,,,,,,sezix,001,2023-11-09_13h37.57.394,vowel_harmony,2023.2.3,Win32,12.01475412,686.6768,687.679,,,,,,,,,,,,,,,,,,,,,,,,,,687.679,688.3491,m,1,0.5641,,688.3492,688.3492,,0,343,343,140,1,141,sahil,481,21.8547,443,0.0484,5,notharmonic,1.45,word,m,,,,,,,
,,,,,,,,,,,sezix,001,2023-11-09_13h37.57.394,vowel_harmony,2023.2.3,Win32,12.01475412,688.3494,689.3332,,,,,,,,,,,,,,,,,,,,,,,,,,689.3332,690.0025,z,1,0.5563,,690.0025,690.0026,,0,344,344,200,1,201,duşın,,,,,5,harmonic,1.9,nw,z,,,,,,,
,,,,,,,,,,,sezix,001,2023-11-09_13h37.57.394,vowel_harmony,2023.2.3,Win32,12.01475412,690.0029,690.9875,,,,,,,,,,,,,,,,,,,,,,,,,,690.9876,691.669,z,0,0.5714,,691.669,691.669,,0,345,345,117,1,118,nasip,1069,48.5711,1042,0.1139,5,notharmonic,1.8,word,m,,,,,,,
,,,,,,,,,,,sezix,001,2023-11-09_13h37.57.394,vowel_harmony,2023.2.3,Win32,12.01475412,691.6693,692.6654,,,,,,,,,,,,,,,,,,,,,,,,,,692.6654,693.443,m,1,0.6727,,693.443,693.4431,,0,346,346,154,1,155,sakin,1855,84.2838,1635,0.1787,5,notharmonic,1.05,word,m,,,,,,,
,,,,,,,,,,,sezix,001,2023-11-09_13h37.57.394,vowel_harmony,2023.2.3,Win32,12.01475412,693.4433,694.4435,,,,,,,,,,,,,,,,,,,,,,,,,,694.4435,695.2167,z,1,0.6624,,695.2168,695.2168,,0,347,347,184,1,185,yapor,,,,,5,harmonic,1.9,nw,z,,,,,,,
,,,,,,,,,,,sezix,001,2023-11-09_13h37.57.394,vowel_harmony,2023.2.3,Win32,12.01475412,695.217,696.2117,,,,,,,,,,,,,,,,,,,,,,,,,,696.2117,696.9977,m,1,0.6785,0.0001,696.9978,696.9978,,0,348,348,50,1,51,kanun,1198,54.4324,1010,0.1104,5,harmonic,1.6,word,m,,,,,,,
,,,,,,,,,,,sezix,001,2023-11-09_13h37.57.394,vowel_harmony,2023.2.3,Win32,12.01475412,696.998,697.9907,,,,,,,,,,,,,,,,,,,,,,,,,,697.9907,698.7591,z,1,0.6637,,698.7591,698.7592,,0,349,349,285,1,286,iklon,,,,,5,notharmonic,1.85,nw,z,,,,,,,
,,,,,,,,,,,sezix,001,2023-11-09_13h37.57.394,vowel_harmony,2023.2.3,Win32,12.01475412,698.7594,699.7565,,,,,,,,,,,,,,,,,,,,,,,,,,699.7565,700.6368,z,1,0.7749,0.0001,700.6368,700.6369,,0,350,350,274,1,275,pisan,,,,,5,notharmonic,1.75,nw,z,,,,,,,
,,,,,,,,,,,sezix,001,2023-11-09_13h37.57.394,vowel_harmony,2023.2.3,Win32,12.01475412,700.637,701.6297,,,,,,,,,,,,,,,,,,,,,,,,,,701.6297,702.2939,m,1,0.5547,,702.2939,702.294,,0,351,351,156,1,157,medya,1784,81.0579,1495,0.1634,5,notharmonic,1.35,word,m,,,,,,,
,,,,,,,,,,,sezix,001,2023-11-09_13h37.57.394,vowel_harmony,2023.2.3,Win32,12.01475412,702.2942,703.2937,,,,,,,,,,,,,,,,,,,,,,,,,,703.2937,704.072,m,1,0.6673,,704.072,704.0721,,0,352,352,42,1,43,ürün,2268,103.0489,1954,0.2136,4,harmonic,1.1,word,m,,,,,,,
,,,,,,,,,,,sezix,001,2023-11-09_13h37.57.394,vowel_harmony,2023.2.3,Win32,12.01475412,704.0723,705.0607,,,,,,,,,,,,,,,,,,,,,,,,,,705.0607,705.7171,m,1,0.5533,,705.7171,705.7172,,0,353,353,36,1,37,meslek,1082,49.1618,976,0.1067,6,harmonic,1.9,word,m,,,,,,,
,,,,,,,,,,,sezix,001,2023-11-09_13h37.57.394,vowel_harmony,2023.2.3,Win32,12.01475412,705.7174,706.7087,,,,,,,,,,,,,,,,,,,,,,,,,,706.7087,707.379,z,1,0.5661,,707.379,707.3791,,0,354,354,192,1,193,vecö,,,,,4,harmonic,1.95,nw,z,,,,,,,
,,,,,,,,,,,sezix,001,2023-11-09_13h37.57.394,vowel_harmony,2023.2.3,Win32,12.01475412,707.3793,708.3665,,,,,,,,,,,,,,,,,,,,,,,,,,708.3665,709.4678,z,1,0.9951,,709.4678,709.4678,,0,355,355,325,1,326,garit,,,,,5,notharmonic,1.85,nw,z,,,,,,,
,,,,,,,,,,,sezix,001,2023-11-09_13h37.57.394,vowel_harmony,2023.2.3,Win32,12.01475412,709.468,710.4571,,,,,,,,,,,,,,,,,,,,,,,,,,710.4571,711.231,z,1,0.6659,,711.231,711.2311,,0,356,356,185,1,186,örtin,,,,,5,harmonic,1.9,nw,z,,,,,,,
,,,,,,,,,,,sezix,001,2023-11-09_13h37.57.394,vowel_harmony,2023.2.3,Win32,12.01475412,711.2312,712.2283,,,,,,,,,,,,,,,,,,,,,,,,,,712.2283,712.9972,m,1,0.6656,,712.9972,712.9973,,0,357,357,78,1,79,ulusal,1551,70.4713,1355,0.1481,6,harmonic,1.75,word,m,,,,,,,
,,,,,,,,,,,sezix,001,2023-11-09_13h37.57.394,vowel_harmony,2023.2.3,Win32,12.01475412,712.9975,713.9848,,,,,,,,,,,,,,,,,,,,,,,,,,713.9848,714.7692,m,1,0.6777,0,714.7692,714.7694,,0,358,358,81,1,82,üretim,1593,72.3796,1283,0.1403,6,harmonic,1.6,word,m,,,,,,,
,,,,,,,,,,,sezix,001,2023-11-09_13h37.57.394,vowel_harmony,2023.2.3,Win32,12.01475412,714.7695,715.7587,,,,,,,,,,,,,,,,,,,,,,,,,,715.7587,716.4371,z,1,0.5729,,716.4371,716.4371,,0,359,359,194,1,195,rayna,,,,,5,harmonic,1.7,nw,z,,,,,,,
,,,,,,,,,,,sezix,001,2023-11-09_13h37.57.394,vowel_harmony,2023.2.3,Win32,12.01475412,,,,,,,,,,,,,,,,,,,,,,,,,,,,,,,,,,,,,,,,,,,,,,,,,,,,,,,716.4376,718.8469,space,2.3002,0.0002