Welcome_screen.started,Welcome_screen.stopped,key_respwelcome.keys,key_respwelcome.rt,key_respwelcome.duration,intro_x.thisRepN,intro_x.thisTrialN,intro_x.thisN,intro_x.thisIndex,intro_x.ran,Introduction,participant,session,date,expName,psychopyVersion,OS,frameRate,Fixation.started,Fixation.stopped,Studypractice.started,Studypractice.stopped,key_respstudy.keys,key_respstudy.corr,key_respstudy.rt,key_respstudy.duration,rt,corr,Feedback.started,Feedback.stopped,practice_loop.thisRepN,practice_loop.thisTrialN,practice_loop.thisN,practice_loop.thisIndex,practice_loop.ran,item_nr_p,target_p,isHarmonic_p,target_cond_p,CorrAns_p,Instraction.started,Instraction.stopped,key_respınstraction.keys,key_respınstraction.rt,key_respınstraction.duration,TestTrial.started,TestTrial.stopped,key_respTest.keys,key_respTest.corr,key_respTest.rt,key_respTest.duration,Pause.started,Pause.stopped,key_resp_xx.keys,test_loop.thisRepN,test_loop.thisTrialN,test_loop.thisN,test_loop.thisIndex,test_loop.ran,item_nr,target,BlogFreq_A1,BlogFreqpm_A1,BlogCD_A1,BlogCDPc_A1,WordLength_A1,isHarmonic_A1,old20,target_cond,CorrAns,key_resp_xx.rt,key_resp_xx.duration,Goodbye_screen.started,Goodbye_screen.stopped,key_respgoodbye.keys,key_respgoodbye.rt,key_respgoodbye.duration
0.0278,2.5699,space,2.5199,,0,0,0,0,1,"Deneye hoş geldiniz,

Devam etmek için BOŞLUK tuşuna basınız.",,001,2023-11-08_12h37.07.738,vowel_harmony,2023.2.3,Win32,59.88741167,,,,,,,,,,,,,,,,,,,,,,,,,,,,,,,,,,,,,,,,,,,,,,,,,,,,,,,,,,,
2.5706,22.7691,space,20.1668,,0,1,1,1,1,"Bu çalışma Valencia Üniversitesi kapsamında yürütülmektedir. Deneydeki göreviniz, ekrana çıkacak Türkçe sözcüklerin kelime olup olmadığını belirlemenizdir. Eğer sözcük gerçek bir kelime ise ""m"" tuşuna, değil ise ""z"" tuşuna basınız.   

Devam etmek için BOŞLUK tuşuna basınız.",,001,2023-11-08_12h37.07.738,vowel_harmony,2023.2.3,Win32,59.88741167,,,,,,,,,,,,,,,,,,,,,,,,,,,,,,,,,,,,,,,,,,,,,,,,,,,,,,,,,,,
22.7696,29.6076,space,6.7963,,0,2,2,2,1,"Her sözcük için en fazla iki saniyede cevap vermeniz beklenmektedir. Aksi takdirde deney bir sonraki sözcük ile devam eder. 
Bu çalışmada oldukça hızlı ve doğru cevaplama yapmanız beklenmektedir.

Devam etmek için BOŞLUK tuşuna basınız.",,001,2023-11-08_12h37.07.738,vowel_harmony,2023.2.3,Win32,59.88741167,,,,,,,,,,,,,,,,,,,,,,,,,,,,,,,,,,,,,,,,,,,,,,,,,,,,,,,,,,,
29.6084,35.2258,space,5.5792,,0,3,3,3,1,"Çalışmaya başlamadan önce ufak bir pratik yer almaktadır.
Kelimedir: ""m""
Kelime değildir: ""z""

Pratik teste başlamak için BOŞLUK tuşuna basınız. ",,001,2023-11-08_12h37.07.738,vowel_harmony,2023.2.3,Win32,59.88741167,,,,,,,,,,,,,,,,,,,,,,,,,,,,,,,,,,,,,,,,,,,,,,,,,,,,,,,,,,,
,,,,,,,,,,,,001,2023-11-08_12h37.07.738,vowel_harmony,2023.2.3,Win32,59.88741167,35.2419,36.2325,36.2327,38.4848,z,0,2.2173,,2.2173,0,38.4855,39.9834,0,0,0,2,1,3,memur,notharmonic,word,m,,,,,,,,,,,,,,,,,,,,,,,,,,,,,,,,,,,,,
,,,,,,,,,,,,001,2023-11-08_12h37.07.738,vowel_harmony,2023.2.3,Win32,59.88741167,39.9843,40.9986,40.9987,41.2331,z,0,0.1921,,0.1921,0,41.2331,42.7111,0,1,1,7,1,8,oran,harmonic,word,m,,,,,,,,,,,,,,,,,,,,,,,,,,,,,,,,,,,,,
,,,,,,,,,,,,001,2023-11-08_12h37.07.738,vowel_harmony,2023.2.3,Win32,59.88741167,42.7114,43.6991,43.6992,44.5856,m,1,0.8642,,0.8642,1,44.5856,46.0663,0,2,2,5,1,6,bahçe,notharmonic,word,m,,,,,,,,,,,,,,,,,,,,,,,,,,,,,,,,,,,,,
,,,,,,,,,,,,001,2023-11-08_12h37.07.738,vowel_harmony,2023.2.3,Win32,59.88741167,46.0667,47.0587,47.0588,47.6456,m,1,0.554,,0.554,1,47.6457,49.1462,0,3,3,1,1,2,veri,harmonic,word,m,,,,,,,,,,,,,,,,,,,,,,,,,,,,,,,,,,,,,
,,,,,,,,,,,,001,2023-11-08_12h37.07.738,vowel_harmony,2023.2.3,Win32,59.88741167,49.1469,50.1375,50.1376,51.0665,z,1,0.8919,,0.8919,1,51.0666,52.5578,0,4,4,11,1,12,geki,harmonic,nw,z,,,,,,,,,,,,,,,,,,,,,,,,,,,,,,,,,,,,,
,,,,,,,,,,,,001,2023-11-08_12h37.07.738,vowel_harmony,2023.2.3,Win32,59.88741167,52.5582,53.5492,53.5492,54.3541,z,1,0.763,,0.763,1,54.3541,55.8328,0,5,5,12,1,13,ihlot,notharmonic,nw,z,,,,,,,,,,,,,,,,,,,,,,,,,,,,,,,,,,,,,
,,,,,,,,,,,,001,2023-11-08_12h37.07.738,vowel_harmony,2023.2.3,Win32,59.88741167,55.8336,56.826,56.826,57.6384,z,1,0.7798,,0.7798,1,57.6385,59.1332,0,6,6,8,1,9,tahip,notharmonic,nw,z,,,,,,,,,,,,,,,,,,,,,,,,,,,,,,,,,,,,,
,,,,,,,,,,,,001,2023-11-08_12h37.07.738,vowel_harmony,2023.2.3,Win32,59.88741167,59.1342,60.1577,60.1578,60.9538,z,1,0.7709,,0.7709,1,60.9538,62.458,0,7,7,13,1,14,pilar,notharmonic,nw,z,,,,,,,,,,,,,,,,,,,,,,,,,,,,,,,,,,,,,
,,,,,,,,,,,,001,2023-11-08_12h37.07.738,vowel_harmony,2023.2.3,Win32,59.88741167,62.4584,63.4516,63.4516,64.1094,m,1,0.6168,,0.6168,1,64.1095,65.5998,0,8,8,4,1,5,mimar,notharmonic,word,m,,,,,,,,,,,,,,,,,,,,,,,,,,,,,,,,,,,,,
,,,,,,,,,,,,001,2023-11-08_12h37.07.738,vowel_harmony,2023.2.3,Win32,59.88741167,65.6002,66.5827,66.5827,67.4268,z,1,0.8195,,0.8195,1,67.4269,68.9174,0,9,9,10,1,11,mahne,notharmonic,nw,z,,,,,,,,,,,,,,,,,,,,,,,,,,,,,,,,,,,,,
,,,,,,,,,,,,001,2023-11-08_12h37.07.738,vowel_harmony,2023.2.3,Win32,59.88741167,68.9179,69.8997,69.8998,70.8132,m,0,0.872,,0.872,0,70.8132,72.3159,0,10,10,14,1,15,pimer,harmonic,nw,z,,,,,,,,,,,,,,,,,,,,,,,,,,,,,,,,,,,,,
,,,,,,,,,,,,001,2023-11-08_12h37.07.738,vowel_harmony,2023.2.3,Win32,59.88741167,72.3162,73.3086,73.3086,74.2021,m,1,0.8684,,0.8684,1,74.2022,75.6953,0,11,11,0,1,1,ihale,notharmonic,word,m,,,,,,,,,,,,,,,,,,,,,,,,,,,,,,,,,,,,,
,,,,,,,,,,,,001,2023-11-08_12h37.07.738,vowel_harmony,2023.2.3,Win32,59.88741167,75.6957,76.6828,76.6828,77.5169,m,0,0.7924,,0.7924,0,77.517,79.012,0,12,12,9,1,10,orat,harmonic,nw,z,,,,,,,,,,,,,,,,,,,,,,,,,,,,,,,,,,,,,
,,,,,,,,,,,,001,2023-11-08_12h37.07.738,vowel_harmony,2023.2.3,Win32,59.88741167,79.0125,80.0091,80.0092,81.0916,m,1,1.05,,1.05,1,81.0917,82.5995,0,13,13,3,1,4,ihlal,notharmonic,word,m,,,,,,,,,,,,,,,,,,,,,,,,,,,,,,,,,,,,,
,,,,,,,,,,,,001,2023-11-08_12h37.07.738,vowel_harmony,2023.2.3,Win32,59.88741167,82.6001,83.5952,83.5953,84.2288,m,1,0.5879,,0.5879,1,84.229,85.712,0,14,14,6,1,7,pilot,notharmonic,word,m,,,,,,,,,,,,,,,,,,,,,,,,,,,,,,,,,,,,,
,,,,,,,,,,,,001,2023-11-08_12h37.07.738,vowel_harmony,2023.2.3,Win32,59.88741167,85.7126,86.691,86.6911,87.4625,z,1,0.7465,,0.7465,1,87.4625,88.962,0,15,15,15,1,16,mımal,harmonic,nw,z,,,,,,,,,,,,,,,,,,,,,,,,,,,,,,,,,,,,,
,,,,,,,,,,,,001,2023-11-08_12h37.07.738,vowel_harmony,2023.2.3,Win32,59.88741167,,,,,,,,,,,,,,,,,,,,,,,88.9627,95.1275,space,6.1173,,,,,,,,,,,,,,,,,,,,,,,,,,,,,,,,,
,,,,,,,,,,,,001,2023-11-08_12h37.07.738,vowel_harmony,2023.2.3,Win32,59.88741167,95.189,96.1447,,,,,,,,,,,,,,,,,,,,,,,,,,96.1451,96.8418,m,1,0.6504,,96.842,96.8437,,0,0,0,176,1,177,harika,4682,212.7315,4422,0.4834,6,notharmonic,1.9,word,m,,,,,,,
,,,,,,,,,,,,001,2023-11-08_12h37.07.738,vowel_harmony,2023.2.3,Win32,59.88741167,96.8442,97.8373,,,,,,,,,,,,,,,,,,,,,,,,,,97.8373,98.5538,m,1,0.6782,,98.5538,98.5539,,0,1,1,77,1,78,ufak,3252,147.758,2980,0.3258,4,harmonic,1.5,word,m,,,,,,,
,,,,,,,,,,,,001,2023-11-08_12h37.07.738,vowel_harmony,2023.2.3,Win32,59.88741167,98.5545,99.5663,,,,,,,,,,,,,,,,,,,,,,,,,,99.5664,100.1657,m,1,0.5571,,100.1657,100.1659,,0,2,2,178,1,179,dikkat,6230,283.0665,5888,0.6437,6,notharmonic,2.05,word,m,,,,,,,
,,,,,,,,,,,,001,2023-11-08_12h37.07.738,vowel_harmony,2023.2.3,Win32,59.88741167,100.1663,101.162,,,,,,,,,,,,,,,,,,,,,,,,,,101.162,101.758,m,1,0.5508,,101.7581,101.7583,,0,3,3,175,1,176,aile,3655,166.0687,3126,0.3417,4,notharmonic,1,word,m,,,,,,,
,,,,,,,,,,,,001,2023-11-08_12h37.07.738,vowel_harmony,2023.2.3,Win32,59.88741167,101.7588,102.7658,,,,,,,,,,,,,,,,,,,,,,,,,,102.7659,104.2224,m,0,1.4139,,104.2225,104.2226,,0,4,4,317,1,318,mevul,,,,,5,notharmonic,1.95,nw,z,,,,,,,
,,,,,,,,,,,,001,2023-11-08_12h37.07.738,vowel_harmony,2023.2.3,Win32,59.88741167,104.2232,105.2159,,,,,,,,,,,,,,,,,,,,,,,,,,105.2159,106.2655,z,1,1.0081,,106.2657,106.2657,,0,5,5,318,1,319,yorgün,,,,,6,notharmonic,1.9,nw,z,,,,,,,
,,,,,,,,,,,,001,2023-11-08_12h37.07.738,vowel_harmony,2023.2.3,Win32,59.88741167,106.2661,107.2757,,,,,,,,,,,,,,,,,,,,,,,,,,107.2758,108.1852,m,1,0.8769,,108.1853,108.1855,,0,6,6,139,1,140,lira,1253,56.9314,947,0.1035,4,notharmonic,1.4,word,m,,,,,,,
,,,,,,,,,,,,001,2023-11-08_12h37.07.738,vowel_harmony,2023.2.3,Win32,59.88741167,108.1859,109.1785,,,,,,,,,,,,,,,,,,,,,,,,,,109.1786,110.2257,z,1,1.001,,110.2257,110.2259,,0,7,7,335,1,336,lilo,,,,,4,notharmonic,1.8,nw,z,,,,,,,
,,,,,,,,,,,,001,2023-11-08_12h37.07.738,vowel_harmony,2023.2.3,Win32,59.88741167,110.2263,111.2117,,,,,,,,,,,,,,,,,,,,,,,,,,111.2118,112.0662,m,0,0.8088,,112.0663,112.0665,,0,8,8,326,1,327,ailo,,,,,4,notharmonic,1.75,nw,z,,,,,,,
,,,,,,,,,,,,001,2023-11-08_12h37.07.738,vowel_harmony,2023.2.3,Win32,59.88741167,112.067,113.0631,,,,,,,,,,,,,,,,,,,,,,,,,,113.0632,114.0013,z,1,0.892,,114.0013,114.0014,,0,9,9,261,1,262,kardok,,,,,6,harmonic,1.95,nw,z,,,,,,,
,,,,,,,,,,,,001,2023-11-08_12h37.07.738,vowel_harmony,2023.2.3,Win32,59.88741167,114.0018,114.9821,,,,,,,,,,,,,,,,,,,,,,,,,,114.9821,115.8328,z,1,0.8085,,115.8328,115.8329,,0,10,10,346,1,347,kidan,,,,,5,notharmonic,1.8,nw,z,,,,,,,
,,,,,,,,,,,,001,2023-11-08_12h37.07.738,vowel_harmony,2023.2.3,Win32,59.88741167,115.8332,116.8175,,,,,,,,,,,,,,,,,,,,,,,,,,116.8176,117.5363,z,1,0.6769,,117.5364,117.5366,,0,11,11,288,1,289,molit,,,,,5,notharmonic,1.95,nw,z,,,,,,,
,,,,,,,,,,,,001,2023-11-08_12h37.07.738,vowel_harmony,2023.2.3,Win32,59.88741167,117.5369,118.5483,,,,,,,,,,,,,,,,,,,,,,,,,,118.5484,119.2754,m,1,0.6846,,119.2754,119.2757,,0,12,12,35,1,36,hava,4975,226.0443,4398,0.4808,4,harmonic,1,word,m,,,,,,,
,,,,,,,,,,,,001,2023-11-08_12h37.07.738,vowel_harmony,2023.2.3,Win32,59.88741167,119.2767,120.2848,,,,,,,,,,,,,,,,,,,,,,,,,,120.2848,121.4043,z,1,1.0803,,121.4044,121.4044,,0,13,13,296,1,297,işban,,,,,5,notharmonic,1.95,nw,z,,,,,,,
,,,,,,,,,,,,001,2023-11-08_12h37.07.738,vowel_harmony,2023.2.3,Win32,59.88741167,121.4048,122.4071,,,,,,,,,,,,,,,,,,,,,,,,,,122.4071,123.2429,z,1,0.8019,,123.2429,123.243,,0,14,14,256,1,257,yaruza,,,,,6,harmonic,1.9,nw,z,,,,,,,
,,,,,,,,,,,,001,2023-11-08_12h37.07.738,vowel_harmony,2023.2.3,Win32,59.88741167,123.2435,124.2321,,,,,,,,,,,,,,,,,,,,,,,,,,124.2322,124.8825,m,1,0.6084,,124.8825,124.8826,,0,15,15,15,1,16,hayat,7922,359.9443,7314,0.7996,5,harmonic,1.9,word,m,,,,,,,
,,,,,,,,,,,,001,2023-11-08_12h37.07.738,vowel_harmony,2023.2.3,Win32,59.88741167,124.8829,125.8784,,,,,,,,,,,,,,,,,,,,,,,,,,125.8785,126.5788,m,1,0.6549,,126.579,126.5791,,0,16,16,87,1,88,mümkün,6604,300.0596,6264,0.6848,6,harmonic,1.9,word,m,,,,,,,
,,,,,,,,,,,,001,2023-11-08_12h37.07.738,vowel_harmony,2023.2.3,Win32,59.88741167,126.5795,127.5933,,,,,,,,,,,,,,,,,,,,,,,,,,127.5934,128.4996,z,1,0.873,,128.4997,128.4997,,0,17,17,222,1,223,gelü,,,,,4,harmonic,1.75,nw,z,,,,,,,
,,,,,,,,,,,,001,2023-11-08_12h37.07.738,vowel_harmony,2023.2.3,Win32,59.88741167,128.5002,129.4807,,,,,,,,,,,,,,,,,,,,,,,,,,129.4808,130.1762,m,1,0.6517,,130.1763,130.1765,,0,18,18,34,1,35,hoca,1893,86.0104,1526,0.1668,4,harmonic,1.45,word,m,,,,,,,
,,,,,,,,,,,,001,2023-11-08_12h37.07.738,vowel_harmony,2023.2.3,Win32,59.88741167,130.1768,131.1794,,,,,,,,,,,,,,,,,,,,,,,,,,131.1796,132.4955,z,1,1.2698,,132.4956,132.4957,,0,19,19,195,1,196,netüm,,,,,5,harmonic,1.95,nw,z,,,,,,,
,,,,,,,,,,,,001,2023-11-08_12h37.07.738,vowel_harmony,2023.2.3,Win32,59.88741167,132.4961,133.4851,,,,,,,,,,,,,,,,,,,,,,,,,,133.4851,134.1879,z,1,0.6625,,134.188,134.1881,,0,20,20,192,1,193,vecö,,,,,4,harmonic,1.95,nw,z,,,,,,,
,,,,,,,,,,,,001,2023-11-08_12h37.07.738,vowel_harmony,2023.2.3,Win32,59.88741167,134.1886,135.1658,,,,,,,,,,,,,,,,,,,,,,,,,,135.1659,135.9851,z,1,0.7776,,135.9851,135.9853,,0,21,21,186,1,187,habık,,,,,5,harmonic,1.9,nw,z,,,,,,,
,,,,,,,,,,,,001,2023-11-08_12h37.07.738,vowel_harmony,2023.2.3,Win32,59.88741167,135.9856,136.9947,,,,,,,,,,,,,,,,,,,,,,,,,,136.9947,137.721,m,1,0.6805,,137.7211,137.7212,,0,22,22,29,1,30,huzur,1911,86.8283,1799,0.1967,5,harmonic,1.8,word,m,,,,,,,
,,,,,,,,,,,,001,2023-11-08_12h37.07.738,vowel_harmony,2023.2.3,Win32,59.88741167,137.7215,138.7281,,,,,,,,,,,,,,,,,,,,,,,,,,138.7282,139.602,z,1,0.8274,,139.602,139.6021,,0,23,23,323,1,324,devak,,,,,5,notharmonic,1.75,nw,z,,,,,,,
,,,,,,,,,,,,001,2023-11-08_12h37.07.738,vowel_harmony,2023.2.3,Win32,59.88741167,139.6027,140.6087,,,,,,,,,,,,,,,,,,,,,,,,,,140.6088,141.1684,m,1,0.5274,,141.1686,141.1688,,0,24,24,18,1,19,normal,4154,188.7413,3788,0.4141,6,harmonic,1.75,word,m,,,,,,,
,,,,,,,,,,,,001,2023-11-08_12h37.07.738,vowel_harmony,2023.2.3,Win32,59.88741167,141.1693,142.1781,,,,,,,,,,,,,,,,,,,,,,,,,,142.1782,142.9624,z,1,0.7379,,142.9624,142.9626,,0,25,25,235,1,236,oşup,,,,,4,harmonic,1.75,nw,z,,,,,,,
,,,,,,,,,,,,001,2023-11-08_12h37.07.738,vowel_harmony,2023.2.3,Win32,59.88741167,142.9632,143.9754,,,,,,,,,,,,,,,,,,,,,,,,,,143.9754,144.5422,m,1,0.5343,,144.5424,144.5426,,0,26,26,148,1,149,selam,1868,84.8745,1764,0.1928,5,notharmonic,1.35,word,m,,,,,,,
,,,,,,,,,,,,001,2023-11-08_12h37.07.738,vowel_harmony,2023.2.3,Win32,59.88741167,144.5429,145.5323,,,,,,,,,,,,,,,,,,,,,,,,,,145.5323,146.1586,m,1,0.5844,,146.1587,146.159,,0,27,27,59,1,60,köpek,1044,47.4352,901,0.0985,5,harmonic,1.75,word,m,,,,,,,
,,,,,,,,,,,,001,2023-11-08_12h37.07.738,vowel_harmony,2023.2.3,Win32,59.88741167,146.1596,147.1496,,,,,,,,,,,,,,,,,,,,,,,,,,147.1497,147.9641,z,1,0.773,,147.9642,147.9644,,0,28,28,328,1,329,kirul,,,,,5,notharmonic,1.95,nw,z,,,,,,,
,,,,,,,,,,,,001,2023-11-08_12h37.07.738,vowel_harmony,2023.2.3,Win32,59.88741167,147.9649,148.9698,,,,,,,,,,,,,,,,,,,,,,,,,,148.9699,149.6983,z,1,0.6887,,149.6984,149.6986,,0,29,29,248,1,249,şegim,,,,,5,harmonic,1.9,nw,z,,,,,,,
,,,,,,,,,,,,001,2023-11-08_12h37.07.738,vowel_harmony,2023.2.3,Win32,59.88741167,149.699,150.7127,,,,,,,,,,,,,,,,,,,,,,,,,,150.7128,151.5369,z,1,0.7989,,151.5369,151.5372,,0,30,30,270,1,271,miyaj,,,,,5,notharmonic,1.9,nw,z,,,,,,,
,,,,,,,,,,,,001,2023-11-08_12h37.07.738,vowel_harmony,2023.2.3,Win32,59.88741167,151.5379,152.5154,,,,,,,,,,,,,,,,,,,,,,,,,,152.5155,153.2753,m,1,0.7167,,153.2754,153.2756,,0,31,31,125,1,126,ikna,1276,57.9764,1173,0.1282,4,notharmonic,1.85,word,m,,,,,,,
,,,,,,,,,,,,001,2023-11-08_12h37.07.738,vowel_harmony,2023.2.3,Win32,59.88741167,153.276,154.2676,,,,,,,,,,,,,,,,,,,,,,,,,,154.2676,155.1423,z,1,0.8351,,155.1423,155.1425,,0,32,32,325,1,326,garit,,,,,5,notharmonic,1.85,nw,z,,,,,,,
,,,,,,,,,,,,001,2023-11-08_12h37.07.738,vowel_harmony,2023.2.3,Win32,59.88741167,155.1429,156.1398,,,,,,,,,,,,,,,,,,,,,,,,,,156.1398,156.8329,z,1,0.6682,,156.833,156.8332,,0,33,33,234,1,235,düzöt,,,,,5,harmonic,2.05,nw,z,,,,,,,
,,,,,,,,,,,,001,2023-11-08_12h37.07.738,vowel_harmony,2023.2.3,Win32,59.88741167,156.8336,157.8341,,,,,,,,,,,,,,,,,,,,,,,,,,157.8341,158.7072,z,1,0.8331,,158.7074,158.7075,,0,34,34,238,1,239,kocı,,,,,4,harmonic,1.95,nw,z,,,,,,,
,,,,,,,,,,,,001,2023-11-08_12h37.07.738,vowel_harmony,2023.2.3,Win32,59.88741167,158.708,159.6856,,,,,,,,,,,,,,,,,,,,,,,,,,159.6858,160.3831,m,1,0.6583,,160.3831,160.3834,,0,35,35,146,1,147,mavi,2206,100.2319,1934,0.2114,4,notharmonic,1.45,word,m,,,,,,,
,,,,,,,,,,,,001,2023-11-08_12h37.07.738,vowel_harmony,2023.2.3,Win32,59.88741167,160.3839,161.3781,,,,,,,,,,,,,,,,,,,,,,,,,,161.3782,162.0954,z,1,0.6709,,162.0955,162.0955,,0,36,36,251,1,252,oştay,,,,,5,harmonic,1.95,nw,z,,,,,,,
,,,,,,,,,,,,001,2023-11-08_12h37.07.738,vowel_harmony,2023.2.3,Win32,59.88741167,162.0959,163.0822,,,,,,,,,,,,,,,,,,,,,,,,,,163.0824,165.0656,,0,,,165.0658,165.0659,,0,37,37,228,1,229,haytam,,,,,6,harmonic,1.75,nw,z,,,,,,,
,,,,,,,,,,,,001,2023-11-08_12h37.07.738,vowel_harmony,2023.2.3,Win32,59.88741167,165.0666,166.0749,,,,,,,,,,,,,,,,,,,,,,,,,,166.075,166.7198,m,1,0.6118,,166.7198,166.7199,,0,38,38,161,1,162,komik,1617,73.4701,1506,0.1646,5,notharmonic,1.75,word,m,,,,,,,
,,,,,,,,,,,,001,2023-11-08_12h37.07.738,vowel_harmony,2023.2.3,Win32,59.88741167,166.7205,167.7177,,,,,,,,,,,,,,,,,,,,,,,,,,167.7178,168.3204,m,1,0.5634,,168.3204,168.3206,,0,39,39,82,1,83,aday,1028,46.7082,873,0.0954,4,harmonic,1.45,word,m,,,,,,,
,,,,,,,,,,,,001,2023-11-08_12h37.07.738,vowel_harmony,2023.2.3,Win32,59.88741167,168.3209,169.3158,,,,,,,,,,,,,,,,,,,,,,,,,,169.316,170.059,z,1,0.7006,,170.0591,170.0592,,0,40,40,182,1,183,orsın,,,,,5,harmonic,1.95,nw,z,,,,,,,
,,,,,,,,,,,,001,2023-11-08_12h37.07.738,vowel_harmony,2023.2.3,Win32,59.88741167,170.0596,171.0679,,,,,,,,,,,,,,,,,,,,,,,,,,171.068,172.149,z,1,1.042,,172.1491,172.1492,,0,41,41,273,1,274,nimal,,,,,5,notharmonic,1.9,nw,z,,,,,,,
,,,,,,,,,,,,001,2023-11-08_12h37.07.738,vowel_harmony,2023.2.3,Win32,59.88741167,172.1496,173.1416,,,,,,,,,,,,,,,,,,,,,,,,,,173.1417,173.7535,m,1,0.5755,,173.7536,173.754,,0,42,42,111,1,112,kahve,2634,119.6785,2283,0.2496,5,notharmonic,1.85,word,m,,,,,,,
,,,,,,,,,,,,001,2023-11-08_12h37.07.738,vowel_harmony,2023.2.3,Win32,59.88741167,173.7545,174.7493,,,,,,,,,,,,,,,,,,,,,,,,,,174.7494,175.6157,z,1,0.8254,,175.6158,175.6159,,0,43,43,338,1,339,pardön,,,,,6,notharmonic,1.95,nw,z,,,,,,,
,,,,,,,,,,,,001,2023-11-08_12h37.07.738,vowel_harmony,2023.2.3,Win32,59.88741167,175.6162,176.5995,,,,,,,,,,,,,,,,,,,,,,,,,,176.5996,177.2708,m,1,0.6306,,177.2709,177.271,,0,44,44,120,1,121,ihmal,1002,45.5269,977,0.1068,5,notharmonic,1.65,word,m,,,,,,,
,,,,,,,,,,,,001,2023-11-08_12h37.07.738,vowel_harmony,2023.2.3,Win32,59.88741167,177.2714,178.2532,,,,,,,,,,,,,,,,,,,,,,,,,,178.2533,179.1101,z,1,0.8183,,179.1102,179.1104,,0,45,45,236,1,237,toklam,,,,,6,harmonic,1.85,nw,z,,,,,,,
,,,,,,,,,,,,001,2023-11-08_12h37.07.738,vowel_harmony,2023.2.3,Win32,59.88741167,179.1107,180.1172,,,,,,,,,,,,,,,,,,,,,,,,,,180.1173,180.8696,z,1,0.712,,180.8696,180.8697,,0,46,46,301,1,302,mezak,,,,,5,notharmonic,1.8,nw,z,,,,,,,
,,,,,,,,,,,,001,2023-11-08_12h37.07.738,vowel_harmony,2023.2.3,Win32,59.88741167,180.8701,181.8614,,,,,,,,,,,,,,,,,,,,,,,,,,181.8615,182.4911,m,1,0.584,,182.4911,182.4913,,0,47,47,143,1,144,kitap,8359,379.7998,6786,0.7418,5,notharmonic,1.9,word,m,,,,,,,
,,,,,,,,,,,,001,2023-11-08_12h37.07.738,vowel_harmony,2023.2.3,Win32,59.88741167,182.4918,183.4907,,,,,,,,,,,,,,,,,,,,,,,,,,183.4907,184.3108,m,1,0.7953,,184.3108,184.3109,,0,48,48,103,1,104,tane,5623,255.4868,5075,0.5548,4,notharmonic,1.3,word,m,,,,,,,
,,,,,,,,,,,,001,2023-11-08_12h37.07.738,vowel_harmony,2023.2.3,Win32,59.88741167,184.3115,185.2986,,,,,,,,,,,,,,,,,,,,,,,,,,185.2986,185.991,m,1,0.6507,,185.991,185.9911,,0,49,49,114,1,115,nisan,2321,105.457,2044,0.2235,5,notharmonic,1.6,word,m,,,,,,,
,,,,,,,,,,,,001,2023-11-08_12h37.07.738,vowel_harmony,2023.2.3,Win32,59.88741167,185.9915,186.9941,,,,,,,,,,,,,,,,,,,,,,,,,,186.9943,187.669,z,1,0.6284,,187.6691,187.6691,,0,50,50,272,1,273,daken,,,,,5,notharmonic,1.8,nw,z,,,,,,,
,,,,,,,,,,,,001,2023-11-08_12h37.07.738,vowel_harmony,2023.2.3,Win32,59.88741167,187.6696,188.6748,,,,,,,,,,,,,,,,,,,,,,,,,,188.6749,189.2946,m,1,0.5873,,189.2947,189.2948,,0,51,51,5,1,6,bebek,3301,149.9843,2794,0.3054,5,harmonic,1.6,word,m,,,,,,,
,,,,,,,,,,,,001,2023-11-08_12h37.07.738,vowel_harmony,2023.2.3,Win32,59.88741167,189.2957,190.3082,,,,,,,,,,,,,,,,,,,,,,,,,,190.3083,191.0368,z,1,0.6954,,191.037,191.0373,,0,52,52,319,1,320,biho,,,,,4,notharmonic,2,nw,z,,,,,,,
,,,,,,,,,,,,001,2023-11-08_12h37.07.738,vowel_harmony,2023.2.3,Win32,59.88741167,191.0378,192.0265,,,,,,,,,,,,,,,,,,,,,,,,,,192.0266,192.6165,m,1,0.5565,,192.6166,192.6167,,0,53,53,130,1,131,hamile,1075,48.8437,877,0.0959,6,notharmonic,1.5,word,m,,,,,,,
,,,,,,,,,,,,001,2023-11-08_12h37.07.738,vowel_harmony,2023.2.3,Win32,59.88741167,192.6171,193.6121,,,,,,,,,,,,,,,,,,,,,,,,,,193.6123,194.2787,z,1,0.6214,,194.2788,194.2789,,0,54,54,197,1,198,ranar,,,,,5,harmonic,1.75,nw,z,,,,,,,
,,,,,,,,,,,,001,2023-11-08_12h37.07.738,vowel_harmony,2023.2.3,Win32,59.88741167,194.2794,195.2845,,,,,,,,,,,,,,,,,,,,,,,,,,195.2846,197.2697,,0,,,197.2697,197.2698,,0,55,55,48,1,49,teşvik,932,42.3464,867,0.0948,6,harmonic,1.8,word,m,,,,,,,
,,,,,,,,,,,,001,2023-11-08_12h37.07.738,vowel_harmony,2023.2.3,Win32,59.88741167,197.2829,198.2653,,,,,,,,,,,,,,,,,,,,,,,,,,198.2654,198.8451,m,1,0.538,,198.8452,198.8453,,0,56,56,26,1,27,sebze,1094,49.707,961,0.1051,5,harmonic,1.9,word,m,,,,,,,
,,,,,,,,,,,,001,2023-11-08_12h37.07.738,vowel_harmony,2023.2.3,Win32,59.88741167,198.8458,199.8275,,,,,,,,,,,,,,,,,,,,,,,,,,199.8276,200.4108,m,1,0.5373,,200.4109,200.4111,,0,57,57,154,1,155,sakin,1855,84.2838,1635,0.1787,5,notharmonic,1.05,word,m,,,,,,,
,,,,,,,,,,,,001,2023-11-08_12h37.07.738,vowel_harmony,2023.2.3,Win32,59.88741167,200.4117,201.426,,,,,,,,,,,,,,,,,,,,,,,,,,201.426,201.9033,m,1,0.4441,,201.9033,201.9036,,0,58,58,61,1,62,yıldız,1775,80.649,1532,0.1675,6,harmonic,1.6,word,m,,,,,,,
,,,,,,,,,,,,001,2023-11-08_12h37.07.738,vowel_harmony,2023.2.3,Win32,59.88741167,201.9042,202.9114,,,,,,,,,,,,,,,,,,,,,,,,,,202.9114,203.5943,m,1,0.6376,,203.5943,203.5944,,0,59,59,90,1,91,tarif,2834,128.7657,2611,0.2854,5,notharmonic,1.5,word,m,,,,,,,
,,,,,,,,,,,,001,2023-11-08_12h37.07.738,vowel_harmony,2023.2.3,Win32,59.88741167,203.5946,204.6006,,,,,,,,,,,,,,,,,,,,,,,,,,204.6006,205.1539,m,1,0.5129,,205.154,205.1542,,0,60,60,134,1,135,iptal,793,36.0308,725,0.0793,5,notharmonic,1.35,word,m,,,,,,,
,,,,,,,,,,,,001,2023-11-08_12h37.07.738,vowel_harmony,2023.2.3,Win32,59.88741167,205.1548,206.1315,,,,,,,,,,,,,,,,,,,,,,,,,,206.1315,206.6322,m,1,0.4589,,206.6322,206.6323,,0,61,61,156,1,157,medya,1784,81.0579,1495,0.1634,5,notharmonic,1.35,word,m,,,,,,,
,,,,,,,,,,,,001,2023-11-08_12h37.07.738,vowel_harmony,2023.2.3,Win32,59.88741167,206.6326,207.6158,,,,,,,,,,,,,,,,,,,,,,,,,,207.6159,208.3749,z,1,0.7174,,208.375,208.3752,,0,62,62,274,1,275,pisan,,,,,5,notharmonic,1.75,nw,z,,,,,,,
,,,,,,,,,,,,001,2023-11-08_12h37.07.738,vowel_harmony,2023.2.3,Win32,59.88741167,208.3756,209.3671,,,,,,,,,,,,,,,,,,,,,,,,,,209.3672,210.0589,m,0,0.6521,,210.059,210.0592,,0,63,63,214,1,215,vecü,,,,,4,harmonic,1.95,nw,z,,,,,,,
,,,,,,,,,,,,001,2023-11-08_12h37.07.738,vowel_harmony,2023.2.3,Win32,59.88741167,210.0598,211.0607,,,,,,,,,,,,,,,,,,,,,,,,,,211.0608,211.8184,m,1,0.7107,,211.8185,211.8188,,0,64,64,123,1,124,haber,4559,207.1429,4151,0.4538,5,notharmonic,1.85,word,m,,,,,,,
,,,,,,,,,,,,001,2023-11-08_12h37.07.738,vowel_harmony,2023.2.3,Win32,59.88741167,211.8194,212.8168,,,,,,,,,,,,,,,,,,,,,,,,,,212.8169,213.445,m,1,0.5875,,213.4451,213.4452,,0,65,65,30,1,31,çevre,1662,75.5147,1409,0.154,5,harmonic,1.55,word,m,,,,,,,
,,,,,,,,,,,,001,2023-11-08_12h37.07.738,vowel_harmony,2023.2.3,Win32,59.88741167,213.4457,214.458,,,,,,,,,,,,,,,,,,,,,,,,,,214.458,214.9538,m,1,0.4624,,214.954,214.9541,,0,66,66,21,1,22,duygu,1877,85.2834,1760,0.1924,5,harmonic,1.8,word,m,,,,,,,
,,,,,,,,,,,,001,2023-11-08_12h37.07.738,vowel_harmony,2023.2.3,Win32,59.88741167,214.9545,215.9664,,,,,,,,,,,,,,,,,,,,,,,,,,215.9664,216.737,z,1,0.7295,,216.7372,216.7373,,0,67,67,224,1,225,ertre,,,,,5,harmonic,1.95,nw,z,,,,,,,
,,,,,,,,,,,,001,2023-11-08_12h37.07.738,vowel_harmony,2023.2.3,Win32,59.88741167,216.7378,217.742,,,,,,,,,,,,,,,,,,,,,,,,,,217.7421,218.3499,m,1,0.5748,,218.3499,218.35,,0,68,68,150,1,151,sabit,1046,47.5261,915,0.1,5,notharmonic,1.75,word,m,,,,,,,
,,,,,,,,,,,,001,2023-11-08_12h37.07.738,vowel_harmony,2023.2.3,Win32,59.88741167,218.3504,219.3611,,,,,,,,,,,,,,,,,,,,,,,,,,219.3612,220.0033,m,1,0.5962,,220.0035,220.0038,,0,69,69,83,1,84,küçük,14048,638.2854,12467,1.3629,5,harmonic,1.75,word,m,,,,,,,
,,,,,,,,,,,,001,2023-11-08_12h37.07.738,vowel_harmony,2023.2.3,Win32,59.88741167,220.0042,220.9988,,,,,,,,,,,,,,,,,,,,,,,,,,220.9989,221.499,m,1,0.4592,,221.499,221.4992,,0,70,70,172,1,173,milyar,1496,67.9723,1078,0.1178,6,notharmonic,1.85,word,m,,,,,,,
,,,,,,,,,,,,001,2023-11-08_12h37.07.738,vowel_harmony,2023.2.3,Win32,59.88741167,221.5001,222.4942,,,,,,,,,,,,,,,,,,,,,,,,,,222.4943,222.932,m,1,0.3919,,222.932,222.9321,,0,71,71,39,1,40,yaygın,1061,48.2076,1019,0.1114,6,harmonic,1.35,word,m,,,,,,,
,,,,,,,,,,,,001,2023-11-08_12h37.07.738,vowel_harmony,2023.2.3,Win32,59.88741167,222.9323,223.9149,,,,,,,,,,,,,,,,,,,,,,,,,,223.915,224.5488,m,1,0.5923,,224.5488,224.5488,,0,72,72,25,1,26,rapor,703,31.9415,617,0.0675,5,harmonic,1.8,word,m,,,,,,,
,,,,,,,,,,,,001,2023-11-08_12h37.07.738,vowel_harmony,2023.2.3,Win32,59.88741167,224.5492,225.5398,,,,,,,,,,,,,,,,,,,,,,,,,,225.5398,226.9064,m,1,1.3316,,226.9064,226.9065,,0,73,73,28,1,29,parlak,1142,51.888,1088,0.1189,6,harmonic,1.7,word,m,,,,,,,
,,,,,,,,,,,,001,2023-11-08_12h37.07.738,vowel_harmony,2023.2.3,Win32,59.88741167,226.9154,227.9363,,,,,,,,,,,,,,,,,,,,,,,,,,227.9365,228.9206,z,1,0.9586,,228.9207,228.9208,,0,74,74,333,1,334,heyran,,,,,6,notharmonic,1.85,nw,z,,,,,,,
,,,,,,,,,,,,001,2023-11-08_12h37.07.738,vowel_harmony,2023.2.3,Win32,59.88741167,228.9213,229.9275,,,,,,,,,,,,,,,,,,,,,,,,,,229.9276,230.4844,m,1,0.5112,,230.4845,230.4847,,0,75,75,174,1,175,bugün,13879,630.6067,12842,1.4039,5,notharmonic,1.85,word,m,,,,,,,
,,,,,,,,,,,,001,2023-11-08_12h37.07.738,vowel_harmony,2023.2.3,Win32,59.88741167,230.4852,231.503,,,,,,,,,,,,,,,,,,,,,,,,,,231.5031,232.2985,z,1,0.7701,,232.2986,232.2987,,0,76,76,226,1,227,tefem,,,,,5,harmonic,1.75,nw,z,,,,,,,
,,,,,,,,,,,,001,2023-11-08_12h37.07.738,vowel_harmony,2023.2.3,Win32,59.88741167,232.2993,233.2909,,,,,,,,,,,,,,,,,,,,,,,,,,233.2909,234.0116,z,1,0.6879,,234.0117,234.012,,0,77,77,196,1,197,bilön,,,,,5,harmonic,1.9,nw,z,,,,,,,
,,,,,,,,,,,,001,2023-11-08_12h37.07.738,vowel_harmony,2023.2.3,Win32,59.88741167,234.0123,235.0028,,,,,,,,,,,,,,,,,,,,,,,,,,235.0029,235.6009,z,1,0.5609,,235.6009,235.6011,,0,78,78,320,1,321,finak,,,,,5,notharmonic,1.85,nw,z,,,,,,,
,,,,,,,,,,,,001,2023-11-08_12h37.07.738,vowel_harmony,2023.2.3,Win32,59.88741167,235.6015,236.6067,,,,,,,,,,,,,,,,,,,,,,,,,,236.6067,237.2504,m,1,0.6187,,237.2505,237.2506,,0,79,79,45,1,46,bilgi,5981,271.7529,5353,0.5852,5,harmonic,1.5,word,m,,,,,,,
,,,,,,,,,,,,001,2023-11-08_12h37.07.738,vowel_harmony,2023.2.3,Win32,59.88741167,237.2511,238.258,,,,,,,,,,,,,,,,,,,,,,,,,,238.258,239.0984,z,1,0.8079,,239.0984,239.0985,,0,80,80,198,1,199,yarbız,,,,,6,harmonic,1.95,nw,z,,,,,,,
,,,,,,,,,,,,001,2023-11-08_12h37.07.738,vowel_harmony,2023.2.3,Win32,59.88741167,239.0989,240.098,,,,,,,,,,,,,,,,,,,,,,,,,,240.0981,240.7341,z,1,0.5941,,240.7341,240.7342,,0,81,81,303,1,304,fisor,,,,,5,notharmonic,1.9,nw,z,,,,,,,
,,,,,,,,,,,,001,2023-11-08_12h37.07.738,vowel_harmony,2023.2.3,Win32,59.88741167,240.7351,241.7411,,,,,,,,,,,,,,,,,,,,,,,,,,241.7412,242.3088,m,1,0.5347,,242.3088,242.3089,,0,82,82,147,1,148,işaret,1888,85.7832,1787,0.1954,6,notharmonic,1,word,m,,,,,,,
,,,,,,,,,,,,001,2023-11-08_12h37.07.738,vowel_harmony,2023.2.3,Win32,59.88741167,242.3093,243.308,,,,,,,,,,,,,,,,,,,,,,,,,,243.308,243.849,m,1,0.5086,,243.8492,243.8494,,0,83,83,49,1,50,şeker,4708,213.9128,4170,0.4559,5,harmonic,1.6,word,m,,,,,,,
,,,,,,,,,,,,001,2023-11-08_12h37.07.738,vowel_harmony,2023.2.3,Win32,59.88741167,243.8498,244.8317,,,,,,,,,,,,,,,,,,,,,,,,,,244.8318,245.6498,z,1,0.7765,,245.6498,245.65,,0,84,84,297,1,298,sapet,,,,,5,notharmonic,1.85,nw,z,,,,,,,
,,,,,,,,,,,,001,2023-11-08_12h37.07.738,vowel_harmony,2023.2.3,Win32,59.88741167,245.6504,246.6415,,,,,,,,,,,,,,,,,,,,,,,,,,246.6416,247.5033,m,1,0.8291,,247.5034,247.5035,,0,85,85,151,1,152,ateş,2108,95.7792,1803,0.1971,4,notharmonic,1.65,word,m,,,,,,,
,,,,,,,,,,,,001,2023-11-08_12h37.07.738,vowel_harmony,2023.2.3,Win32,59.88741167,247.5039,248.4794,,,,,,,,,,,,,,,,,,,,,,,,,,248.4795,249.1416,m,1,0.6173,,249.1416,249.1418,,0,86,86,54,1,55,yedek,825,37.4847,732,0.08,5,harmonic,1.65,word,m,,,,,,,
,,,,,,,,,,,,001,2023-11-08_12h37.07.738,vowel_harmony,2023.2.3,Win32,59.88741167,249.1423,250.1275,,,,,,,,,,,,,,,,,,,,,,,,,,250.1276,251.3586,m,1,1.1855,,251.3586,251.3588,,0,87,87,75,1,76,roman,1499,68.1086,1281,0.14,5,harmonic,1.6,word,m,,,,,,,
,,,,,,,,,,,,001,2023-11-08_12h37.07.738,vowel_harmony,2023.2.3,Win32,59.88741167,251.3688,252.3698,,,,,,,,,,,,,,,,,,,,,,,,,,252.3698,253.05,m,1,0.6552,,253.0501,253.0502,,0,88,88,129,1,130,tahmin,2353,106.911,2273,0.2485,6,notharmonic,1.6,word,m,,,,,,,
,,,,,,,,,,,,001,2023-11-08_12h37.07.738,vowel_harmony,2023.2.3,Win32,59.88741167,253.0507,254.0411,,,,,,,,,,,,,,,,,,,,,,,,,,254.0411,254.5159,m,1,0.4419,,254.516,254.5161,,0,89,89,137,1,138,parti,2613,118.7244,2059,0.2251,5,notharmonic,1.8,word,m,,,,,,,
,,,,,,,,,,,,001,2023-11-08_12h37.07.738,vowel_harmony,2023.2.3,Win32,59.88741167,254.5166,255.5273,,,,,,,,,,,,,,,,,,,,,,,,,,255.5273,256.1817,m,1,0.6087,,256.1817,256.1817,,0,90,90,63,1,64,sultan,1756,79.7857,1368,0.1496,6,harmonic,1.55,word,m,,,,,,,
,,,,,,,,,,,,001,2023-11-08_12h37.07.738,vowel_harmony,2023.2.3,Win32,59.88741167,256.1821,257.1683,,,,,,,,,,,,,,,,,,,,,,,,,,257.1683,257.6488,m,1,0.4421,,257.6489,257.6491,,0,91,91,136,1,137,beyaz,5517,250.6706,4788,0.5234,5,notharmonic,1.85,word,m,,,,,,,
,,,,,,,,,,,,001,2023-11-08_12h37.07.738,vowel_harmony,2023.2.3,Win32,59.88741167,257.6495,258.6312,,,,,,,,,,,,,,,,,,,,,,,,,,258.6312,259.0689,m,1,0.4113,,259.0689,259.0691,,0,92,92,89,1,90,etki,1234,56.0681,1169,0.1278,4,harmonic,1.4,word,m,,,,,,,
,,,,,,,,,,,,001,2023-11-08_12h37.07.738,vowel_harmony,2023.2.3,Win32,59.88741167,259.0694,260.0608,,,,,,,,,,,,,,,,,,,,,,,,,,260.0609,260.5501,m,1,0.4438,,260.5503,260.5504,,0,93,93,141,1,142,madde,3793,172.3389,3389,0.3705,5,notharmonic,1.7,word,m,,,,,,,
,,,,,,,,,,,,001,2023-11-08_12h37.07.738,vowel_harmony,2023.2.3,Win32,59.88741167,260.5508,261.5315,,,,,,,,,,,,,,,,,,,,,,,,,,261.5317,261.9862,m,0,0.4127,,261.9863,261.9866,,0,94,94,329,1,330,taif,,,,,4,notharmonic,1.8,nw,z,,,,,,,
,,,,,,,,,,,,001,2023-11-08_12h37.07.738,vowel_harmony,2023.2.3,Win32,59.88741167,261.9872,263.0089,,,,,,,,,,,,,,,,,,,,,,,,,,263.0089,263.6959,z,1,0.6624,,263.6959,263.6962,,0,95,95,188,1,189,tonık,,,,,5,harmonic,1.85,nw,z,,,,,,,
,,,,,,,,,,,,001,2023-11-08_12h37.07.738,vowel_harmony,2023.2.3,Win32,59.88741167,263.6968,264.7008,,,,,,,,,,,,,,,,,,,,,,,,,,264.7009,265.3039,z,1,0.5637,,265.304,265.3041,,0,96,96,241,1,242,porlam,,,,,6,harmonic,2,nw,z,,,,,,,
,,,,,,,,,,,,001,2023-11-08_12h37.07.738,vowel_harmony,2023.2.3,Win32,59.88741167,265.3045,266.2979,,,,,,,,,,,,,,,,,,,,,,,,,,266.298,267.0151,m,1,0.6751,,267.0151,267.0152,,0,97,97,101,1,102,imza,1358,61.7021,1253,0.137,4,notharmonic,1.65,word,m,,,,,,,
,,,,,,,,,,,,001,2023-11-08_12h37.07.738,vowel_harmony,2023.2.3,Win32,59.88741167,267.0156,267.994,,,,,,,,,,,,,,,,,,,,,,,,,,267.994,268.8657,z,1,0.8261,,268.8657,268.8657,,0,98,98,341,1,342,işgan,,,,,5,notharmonic,1.95,nw,z,,,,,,,
,,,,,,,,,,,,001,2023-11-08_12h37.07.738,vowel_harmony,2023.2.3,Win32,59.88741167,268.8661,269.8572,,,,,,,,,,,,,,,,,,,,,,,,,,269.8572,270.562,z,1,0.6722,,270.5622,270.5623,,0,99,99,218,1,219,tezöl,,,,,5,harmonic,2,nw,z,,,,,,,
,,,,,,,,,,,,001,2023-11-08_12h37.07.738,vowel_harmony,2023.2.3,Win32,59.88741167,270.5627,271.5439,,,,,,,,,,,,,,,,,,,,,,,,,,271.5439,272.1622,z,1,0.5725,,272.1623,272.1625,,0,100,100,213,1,214,kaun,,,,,4,harmonic,1.7,nw,z,,,,,,,
,,,,,,,,,,,,001,2023-11-08_12h37.07.738,vowel_harmony,2023.2.3,Win32,59.88741167,272.1629,273.1482,,,,,,,,,,,,,,,,,,,,,,,,,,273.1483,273.9313,z,1,0.7416,,273.9314,273.9316,,0,101,101,209,1,210,sapor,,,,,5,harmonic,1.8,nw,z,,,,,,,
,,,,,,,,,,,,001,2023-11-08_12h37.07.738,vowel_harmony,2023.2.3,Win32,59.88741167,273.9319,274.9349,,,,,,,,,,,,,,,,,,,,,,,,,,274.935,275.5902,z,1,0.6166,,275.5904,275.5904,,0,102,102,262,1,263,sauk,,,,,4,harmonic,1.85,nw,z,,,,,,,
,,,,,,,,,,,,001,2023-11-08_12h37.07.738,vowel_harmony,2023.2.3,Win32,59.88741167,275.5908,276.5982,,,,,,,,,,,,,,,,,,,,,,,,,,276.5983,277.1019,z,0,0.4612,,277.1019,277.1021,,0,103,103,145,1,146,iddia,2430,110.4096,2295,0.2509,5,notharmonic,1.85,word,m,,,,,,,
,,,,,,,,,,,,001,2023-11-08_12h37.07.738,vowel_harmony,2023.2.3,Win32,59.88741167,277.1026,278.1075,,,,,,,,,,,,,,,,,,,,,,,,,,278.1075,278.7482,z,1,0.6079,,278.7483,278.7484,,0,104,104,269,1,270,vekü,,,,,4,harmonic,2,nw,z,,,,,,,
,,,,,,,,,,,,001,2023-11-08_12h37.07.738,vowel_harmony,2023.2.3,Win32,59.88741167,278.7487,279.7363,,,,,,,,,,,,,,,,,,,,,,,,,,279.7364,280.282,m,1,0.5091,,280.2821,280.2823,,0,105,105,98,1,99,paket,1532,69.608,1392,0.1522,5,notharmonic,1.55,word,m,,,,,,,
,,,,,,,,,,,,001,2023-11-08_12h37.07.738,vowel_harmony,2023.2.3,Win32,59.88741167,280.2828,281.2748,,,,,,,,,,,,,,,,,,,,,,,,,,281.2748,281.9133,z,1,0.6059,,281.9134,281.9135,,0,106,106,314,1,315,seral,,,,,5,notharmonic,1.7,nw,z,,,,,,,
,,,,,,,,,,,,001,2023-11-08_12h37.07.738,vowel_harmony,2023.2.3,Win32,59.88741167,281.914,282.9001,,,,,,,,,,,,,,,,,,,,,,,,,,282.9001,283.5396,m,1,0.6129,,283.5397,283.5398,,0,107,107,160,1,161,hakem,603,27.3979,473,0.0517,5,notharmonic,1.3,word,m,,,,,,,
,,,,,,,,,,,,001,2023-11-08_12h37.07.738,vowel_harmony,2023.2.3,Win32,59.88741167,283.5402,284.5437,,,,,,,,,,,,,,,,,,,,,,,,,,284.5439,285.3156,m,1,0.726,,285.3158,285.3159,,0,108,108,42,1,43,ürün,2268,103.0489,1954,0.2136,4,harmonic,1.1,word,m,,,,,,,
,,,,,,,,,,,,001,2023-11-08_12h37.07.738,vowel_harmony,2023.2.3,Win32,59.88741167,285.3163,286.3076,,,,,,,,,,,,,,,,,,,,,,,,,,286.3077,287.0906,z,1,0.7502,,287.0907,287.0909,,0,109,109,191,1,192,doab,,,,,4,harmonic,2,nw,z,,,,,,,
,,,,,,,,,,,,001,2023-11-08_12h37.07.738,vowel_harmony,2023.2.3,Win32,59.88741167,287.0914,288.073,,,,,,,,,,,,,,,,,,,,,,,,,,288.0731,289.289,z,1,1.19,,289.289,289.2891,,0,110,110,332,1,333,tahane,,,,,6,notharmonic,1.85,nw,z,,,,,,,
,,,,,,,,,,,,001,2023-11-08_12h37.07.738,vowel_harmony,2023.2.3,Win32,59.88741167,289.2897,290.2775,,,,,,,,,,,,,,,,,,,,,,,,,,290.2775,290.8257,z,1,0.502,,290.8257,290.8259,,0,111,111,285,1,286,iklon,,,,,5,notharmonic,1.85,nw,z,,,,,,,
,,,,,,,,,,,,001,2023-11-08_12h37.07.738,vowel_harmony,2023.2.3,Win32,59.88741167,290.8263,291.8313,,,,,,,,,,,,,,,,,,,,,,,,,,291.8313,292.4278,m,1,0.5547,,292.4278,292.4279,,0,112,112,14,1,15,yaşam,4348,197.5559,3918,0.4283,5,harmonic,1.4,word,m,,,,,,,
,,,,,,,,,,,,001,2023-11-08_12h37.07.738,vowel_harmony,2023.2.3,Win32,59.88741167,292.4284,293.4313,,,,,,,,,,,,,,,,,,,,,,,,,,293.4314,294.1629,z,1,0.6896,,294.163,294.1632,,0,113,113,260,1,261,yarlam,,,,,6,harmonic,1.75,nw,z,,,,,,,
,,,,,,,,,,,,001,2023-11-08_12h37.07.738,vowel_harmony,2023.2.3,Win32,59.88741167,294.1636,295.1458,,,,,,,,,,,,,,,,,,,,,,,,,,295.1458,295.7573,z,1,0.5676,,295.7573,295.7575,,0,114,114,202,1,203,güvin,,,,,5,harmonic,1.95,nw,z,,,,,,,
,,,,,,,,,,,,001,2023-11-08_12h37.07.738,vowel_harmony,2023.2.3,Win32,59.88741167,295.7579,296.7671,,,,,,,,,,,,,,,,,,,,,,,,,,296.7671,297.4688,z,1,0.6606,,297.4688,297.469,,0,115,115,268,1,269,haldum,,,,,6,harmonic,2,nw,z,,,,,,,
,,,,,,,,,,,,001,2023-11-08_12h37.07.738,vowel_harmony,2023.2.3,Win32,59.88741167,297.4696,298.447,,,,,,,,,,,,,,,,,,,,,,,,,,298.447,299.0647,m,1,0.5752,,299.0647,299.0648,,0,116,116,52,1,53,resim,2506,113.8627,2188,0.2392,5,harmonic,1.4,word,m,,,,,,,
,,,,,,,,,,,,001,2023-11-08_12h37.07.738,vowel_harmony,2023.2.3,Win32,59.88741167,299.0651,300.0648,,,,,,,,,,,,,,,,,,,,,,,,,,300.0649,300.778,z,1,0.6717,,300.778,300.7782,,0,117,117,229,1,230,tonam,,,,,5,harmonic,1.8,nw,z,,,,,,,
,,,,,,,,,,,,001,2023-11-08_12h37.07.738,vowel_harmony,2023.2.3,Win32,59.88741167,300.7786,301.7765,,,,,,,,,,,,,,,,,,,,,,,,,,301.7765,302.3963,z,1,0.5725,,302.3963,302.3966,,0,118,118,255,1,256,yokın,,,,,5,harmonic,1.85,nw,z,,,,,,,
,,,,,,,,,,,,001,2023-11-08_12h37.07.738,vowel_harmony,2023.2.3,Win32,59.88741167,302.3972,303.3772,,,,,,,,,,,,,,,,,,,,,,,,,,303.3773,303.9605,m,1,0.5376,,303.9605,303.9607,,0,119,119,37,1,38,hayvan,2363,107.3653,1894,0.2071,6,harmonic,1.5,word,m,,,,,,,
,,,,,,,,,,,,001,2023-11-08_12h37.07.738,vowel_harmony,2023.2.3,Win32,59.88741167,303.961,304.9661,,,,,,,,,,,,,,,,,,,,,,,,,,304.9662,305.64,m,1,0.6339,,305.64,307.9926,space,0,120,120,106,1,107,esnaf,315,14.3124,284,0.031,5,notharmonic,1.55,word,m,2.3278,,,,,,
,,,,,,,,,,,,001,2023-11-08_12h37.07.738,vowel_harmony,2023.2.3,Win32,59.88741167,308.0021,309.0077,,,,,,,,,,,,,,,,,,,,,,,,,,309.0077,309.7914,z,1,0.751,,309.7914,309.7915,,0,121,121,334,1,335,işgan,,,,,5,notharmonic,1.95,nw,z,,,,,,,
,,,,,,,,,,,,001,2023-11-08_12h37.07.738,vowel_harmony,2023.2.3,Win32,59.88741167,309.792,310.7963,,,,,,,,,,,,,,,,,,,,,,,,,,310.7964,311.5399,m,1,0.6998,,311.54,311.5401,,0,122,122,12,1,13,konu,5400,245.3546,5110,0.5586,4,harmonic,1,word,m,,,,,,,
,,,,,,,,,,,,001,2023-11-08_12h37.07.738,vowel_harmony,2023.2.3,Win32,59.88741167,311.5405,312.5311,,,,,,,,,,,,,,,,,,,,,,,,,,312.5312,313.1083,m,1,0.5354,,313.1084,313.1085,,0,123,123,115,1,116,saniye,1088,49.4344,984,0.1076,6,notharmonic,1.35,word,m,,,,,,,
,,,,,,,,,,,,001,2023-11-08_12h37.07.738,vowel_harmony,2023.2.3,Win32,59.88741167,313.1089,314.1044,,,,,,,,,,,,,,,,,,,,,,,,,,314.1044,314.5536,m,0,0.4138,,314.5537,314.5538,,0,124,124,184,1,185,yapor,,,,,5,harmonic,1.9,nw,z,,,,,,,
,,,,,,,,,,,,001,2023-11-08_12h37.07.738,vowel_harmony,2023.2.3,Win32,59.88741167,314.5543,315.547,,,,,,,,,,,,,,,,,,,,,,,,,,315.5472,316.0479,m,1,0.4747,,316.048,316.048,,0,125,125,153,1,154,inşaat,432,19.6284,376,0.0411,6,notharmonic,1.6,word,m,,,,,,,
,,,,,,,,,,,,001,2023-11-08_12h37.07.738,vowel_harmony,2023.2.3,Win32,59.88741167,316.0483,317.0399,,,,,,,,,,,,,,,,,,,,,,,,,,317.0399,317.7067,z,1,0.634,,317.7067,317.7068,,0,126,126,242,1,243,kahon,,,,,5,harmonic,1.85,nw,z,,,,,,,
,,,,,,,,,,,,001,2023-11-08_12h37.07.738,vowel_harmony,2023.2.3,Win32,59.88741167,317.7077,318.7104,,,,,,,,,,,,,,,,,,,,,,,,,,318.7105,319.3674,m,1,0.6113,,319.3674,319.3675,,0,127,127,167,1,168,adalet,1611,73.1975,1388,0.1517,6,notharmonic,1.65,word,m,,,,,,,
,,,,,,,,,,,,001,2023-11-08_12h37.07.738,vowel_harmony,2023.2.3,Win32,59.88741167,319.368,320.3641,,,,,,,,,,,,,,,,,,,,,,,,,,320.3642,321.0231,z,1,0.6171,,321.0231,321.0231,,0,128,128,180,1,181,ayaro,,,,,5,harmonic,1.8,nw,z,,,,,,,
,,,,,,,,,,,,001,2023-11-08_12h37.07.738,vowel_harmony,2023.2.3,Win32,59.88741167,321.0235,322.0244,,,,,,,,,,,,,,,,,,,,,,,,,,322.0245,322.7811,z,1,0.724,,322.7812,322.7813,,0,129,129,315,1,316,takep,,,,,5,notharmonic,1.85,nw,z,,,,,,,
,,,,,,,,,,,,001,2023-11-08_12h37.07.738,vowel_harmony,2023.2.3,Win32,59.88741167,322.7817,323.7767,,,,,,,,,,,,,,,,,,,,,,,,,,323.7767,324.3975,z,1,0.5746,,324.3975,324.3976,,0,130,130,336,1,337,diyam,,,,,5,notharmonic,1.85,nw,z,,,,,,,
,,,,,,,,,,,,001,2023-11-08_12h37.07.738,vowel_harmony,2023.2.3,Win32,59.88741167,324.3981,325.3856,,,,,,,,,,,,,,,,,,,,,,,,,,325.3857,326.2834,m,1,0.8589,,326.2834,326.2835,,0,131,131,177,1,178,tekrar,10788,490.1639,9352,1.0224,6,notharmonic,1.85,word,m,,,,,,,
,,,,,,,,,,,,001,2023-11-08_12h37.07.738,vowel_harmony,2023.2.3,Win32,59.88741167,326.2838,327.2931,,,,,,,,,,,,,,,,,,,,,,,,,,327.2933,328.1079,m,1,0.7684,,328.108,328.1081,,0,132,132,66,1,67,sanık,768,34.8949,699,0.0764,5,harmonic,1.85,word,m,,,,,,,
,,,,,,,,,,,,001,2023-11-08_12h37.07.738,vowel_harmony,2023.2.3,Win32,59.88741167,328.1085,329.1014,,,,,,,,,,,,,,,,,,,,,,,,,,329.1014,329.8645,z,1,0.7238,,329.8645,329.8646,,0,133,133,310,1,311,yandeş,,,,,6,notharmonic,1.95,nw,z,,,,,,,
,,,,,,,,,,,,001,2023-11-08_12h37.07.738,vowel_harmony,2023.2.3,Win32,59.88741167,329.8649,330.8496,,,,,,,,,,,,,,,,,,,,,,,,,,330.8497,331.4079,m,1,0.5184,,331.4079,331.408,,0,134,134,36,1,37,meslek,1082,49.1618,976,0.1067,6,harmonic,1.9,word,m,,,,,,,
,,,,,,,,,,,,001,2023-11-08_12h37.07.738,vowel_harmony,2023.2.3,Win32,59.88741167,331.4086,332.4024,,,,,,,,,,,,,,,,,,,,,,,,,,332.4024,332.9482,m,0,0.5088,,332.9483,332.9484,,0,135,135,263,1,264,duzur,,,,,5,harmonic,1.8,nw,z,,,,,,,
,,,,,,,,,,,,001,2023-11-08_12h37.07.738,vowel_harmony,2023.2.3,Win32,59.88741167,332.9491,333.9453,,,,,,,,,,,,,,,,,,,,,,,,,,333.9454,334.6901,z,1,0.7008,,334.6902,334.6903,,0,136,136,245,1,246,bıyan,,,,,5,harmonic,1.7,nw,z,,,,,,,
,,,,,,,,,,,,001,2023-11-08_12h37.07.738,vowel_harmony,2023.2.3,Win32,59.88741167,334.6907,335.6934,,,,,,,,,,,,,,,,,,,,,,,,,,335.6935,336.4071,z,1,0.6681,,336.4072,336.4072,,0,137,137,205,1,206,kahay,,,,,5,harmonic,1.9,nw,z,,,,,,,
,,,,,,,,,,,,001,2023-11-08_12h37.07.738,vowel_harmony,2023.2.3,Win32,59.88741167,336.4075,337.4144,,,,,,,,,,,,,,,,,,,,,,,,,,337.4145,338.4819,z,1,1.026,,338.482,338.482,,0,138,138,353,1,354,ikno,,,,,4,notharmonic,1.95,nw,z,,,,,,,
,,,,,,,,,,,,001,2023-11-08_12h37.07.738,vowel_harmony,2023.2.3,Win32,59.88741167,338.4823,339.4739,,,,,,,,,,,,,,,,,,,,,,,,,,339.474,340.1372,m,1,0.6295,,340.1373,340.1375,,0,139,139,119,1,120,kulüp,649,29.488,467,0.0511,5,notharmonic,1.4,word,m,,,,,,,
,,,,,,,,,,,,001,2023-11-08_12h37.07.738,vowel_harmony,2023.2.3,Win32,59.88741167,340.1381,341.1157,,,,,,,,,,,,,,,,,,,,,,,,,,341.1157,341.9673,m,1,0.8105,,341.9674,341.9675,,0,140,140,9,1,10,karar,8108,368.3954,7436,0.8129,5,harmonic,1.6,word,m,,,,,,,
,,,,,,,,,,,,001,2023-11-08_12h37.07.738,vowel_harmony,2023.2.3,Win32,59.88741167,341.9678,342.9602,,,,,,,,,,,,,,,,,,,,,,,,,,342.9602,343.6231,z,1,0.6172,,343.6231,343.6232,,0,141,141,287,1,288,haköm,,,,,5,notharmonic,1.9,nw,z,,,,,,,
,,,,,,,,,,,,001,2023-11-08_12h37.07.738,vowel_harmony,2023.2.3,Win32,59.88741167,343.6236,344.631,,,,,,,,,,,,,,,,,,,,,,,,,,344.6311,345.4365,z,1,0.7631,,345.4365,345.4367,,0,142,142,339,1,340,asmel,,,,,5,notharmonic,1.95,nw,z,,,,,,,
,,,,,,,,,,,,001,2023-11-08_12h37.07.738,vowel_harmony,2023.2.3,Win32,59.88741167,345.4372,346.4403,,,,,,,,,,,,,,,,,,,,,,,,,,346.4404,347.1864,m,1,0.7133,,347.1864,347.1866,,0,143,143,7,1,8,hizmet,3023,137.3531,2689,0.294,6,harmonic,1.75,word,m,,,,,,,
,,,,,,,,,,,,001,2023-11-08_12h37.07.738,vowel_harmony,2023.2.3,Win32,59.88741167,347.187,348.177,,,,,,,,,,,,,,,,,,,,,,,,,,348.1771,348.9889,z,1,0.7666,,348.9889,348.989,,0,144,144,259,1,260,hayuk,,,,,5,harmonic,1.95,nw,z,,,,,,,
,,,,,,,,,,,,001,2023-11-08_12h37.07.738,vowel_harmony,2023.2.3,Win32,59.88741167,348.9892,349.9809,,,,,,,,,,,,,,,,,,,,,,,,,,349.981,350.6876,m,1,0.665,,350.6876,350.6877,,0,145,145,94,1,95,final,876,39.802,778,0.0851,5,notharmonic,1,word,m,,,,,,,
,,,,,,,,,,,,001,2023-11-08_12h37.07.738,vowel_harmony,2023.2.3,Win32,59.88741167,350.6883,351.681,,,,,,,,,,,,,,,,,,,,,,,,,,351.681,352.5356,z,1,0.8128,,352.5356,352.536,,0,146,146,215,1,216,aydo,,,,,4,harmonic,1.9,nw,z,,,,,,,
,,,,,,,,,,,,001,2023-11-08_12h37.07.738,vowel_harmony,2023.2.3,Win32,59.88741167,352.5366,353.5264,,,,,,,,,,,,,,,,,,,,,,,,,,353.5265,354.3148,z,1,0.7425,,354.3148,354.3148,,0,147,147,252,1,253,anlgı,,,,,5,harmonic,1.9,nw,z,,,,,,,
,,,,,,,,,,,,001,2023-11-08_12h37.07.738,vowel_harmony,2023.2.3,Win32,59.88741167,354.3156,355.3268,,,,,,,,,,,,,,,,,,,,,,,,,,355.3268,356.6429,z,1,1.2702,,356.6429,356.643,,0,148,148,227,1,228,zekö,,,,,4,harmonic,1.9,nw,z,,,,,,,
,,,,,,,,,,,,001,2023-11-08_12h37.07.738,vowel_harmony,2023.2.3,Win32,59.88741167,356.6435,357.6476,,,,,,,,,,,,,,,,,,,,,,,,,,357.6477,358.4649,m,1,0.7756,,358.4649,358.465,,0,149,149,117,1,118,nasip,1069,48.5711,1042,0.1139,5,notharmonic,1.8,word,m,,,,,,,
,,,,,,,,,,,,001,2023-11-08_12h37.07.738,vowel_harmony,2023.2.3,Win32,59.88741167,358.4654,359.4629,,,,,,,,,,,,,,,,,,,,,,,,,,359.463,360.6436,z,1,1.1542,,360.6438,360.6439,,0,150,150,356,1,357,mergun,,,,,6,notharmonic,1.95,nw,z,,,,,,,
,,,,,,,,,,,,001,2023-11-08_12h37.07.738,vowel_harmony,2023.2.3,Win32,59.88741167,360.6444,361.6266,,,,,,,,,,,,,,,,,,,,,,,,,,361.6267,362.4307,z,0,0.7579,,362.4309,362.4309,,0,151,151,112,1,113,sezon,2315,105.1844,1917,0.2096,5,notharmonic,1.8,word,m,,,,,,,
,,,,,,,,,,,,001,2023-11-08_12h37.07.738,vowel_harmony,2023.2.3,Win32,59.88741167,362.4316,363.4307,,,,,,,,,,,,,,,,,,,,,,,,,,363.4307,364.2679,m,1,0.7945,,364.268,364.2681,,0,152,152,43,1,44,geniş,3380,153.5738,3185,0.3482,5,harmonic,1.35,word,m,,,,,,,
,,,,,,,,,,,,001,2023-11-08_12h37.07.738,vowel_harmony,2023.2.3,Win32,59.88741167,364.2685,365.2766,,,,,,,,,,,,,,,,,,,,,,,,,,365.2766,365.9424,m,1,0.6197,,365.9425,365.9426,,0,153,153,20,1,21,nefes,2871,130.4469,2553,0.2791,5,harmonic,1.8,word,m,,,,,,,
,,,,,,,,,,,,001,2023-11-08_12h37.07.738,vowel_harmony,2023.2.3,Win32,59.88741167,365.9431,366.9508,,,,,,,,,,,,,,,,,,,,,,,,,,366.9509,367.8589,m,1,0.8695,,367.8589,367.8591,,0,154,154,19,1,20,ödül,1063,48.2985,926,0.1012,4,harmonic,1.7,word,m,,,,,,,
,,,,,,,,,,,,001,2023-11-08_12h37.07.738,vowel_harmony,2023.2.3,Win32,59.88741167,367.8596,368.8377,,,,,,,,,,,,,,,,,,,,,,,,,,368.8377,369.5501,z,1,0.6777,,369.5502,369.5503,,0,155,155,264,1,265,vepü,,,,,4,harmonic,2,nw,z,,,,,,,
,,,,,,,,,,,,001,2023-11-08_12h37.07.738,vowel_harmony,2023.2.3,Win32,59.88741167,369.5507,370.5149,,,,,,,,,,,,,,,,,,,,,,,,,,370.5149,371.3165,z,1,0.7713,,371.3165,371.3166,,0,156,156,267,1,268,nokuma,,,,,6,harmonic,1.75,nw,z,,,,,,,
,,,,,,,,,,,,001,2023-11-08_12h37.07.738,vowel_harmony,2023.2.3,Win32,59.88741167,371.3169,372.3361,,,,,,,,,,,,,,,,,,,,,,,,,,372.3361,373.3689,z,1,1.0074,,373.3689,373.369,,0,157,157,223,1,224,kakon,,,,,5,harmonic,1.85,nw,z,,,,,,,
,,,,,,,,,,,,001,2023-11-08_12h37.07.738,vowel_harmony,2023.2.3,Win32,59.88741167,373.3698,374.3651,,,,,,,,,,,,,,,,,,,,,,,,,,374.3652,375.0411,m,1,0.6336,,375.0412,375.0413,,0,158,158,126,1,127,adet,4367,198.4192,3768,0.4119,4,notharmonic,1.4,word,m,,,,,,,
,,,,,,,,,,,,001,2023-11-08_12h37.07.738,vowel_harmony,2023.2.3,Win32,59.88741167,375.0417,376.0225,,,,,,,,,,,,,,,,,,,,,,,,,,376.0226,376.5561,m,1,0.5088,,376.5562,376.5563,,0,159,159,168,1,169,kilo,3389,153.9827,2646,0.2893,4,notharmonic,1.65,word,m,,,,,,,
,,,,,,,,,,,,001,2023-11-08_12h37.07.738,vowel_harmony,2023.2.3,Win32,59.88741167,376.5566,377.5471,,,,,,,,,,,,,,,,,,,,,,,,,,377.5471,379.2455,m,0,1.6562,,379.2457,379.2459,,0,160,160,207,1,208,örtre,,,,,5,harmonic,1.85,nw,z,,,,,,,
,,,,,,,,,,,,001,2023-11-08_12h37.07.738,vowel_harmony,2023.2.3,Win32,59.88741167,379.2464,380.2439,,,,,,,,,,,,,,,,,,,,,,,,,,380.2439,380.8439,m,1,0.5542,,380.844,380.8441,,0,161,161,11,1,12,umut,1988,90.3268,1818,0.1987,4,harmonic,1.55,word,m,,,,,,,
,,,,,,,,,,,,001,2023-11-08_12h37.07.738,vowel_harmony,2023.2.3,Win32,59.88741167,380.8444,381.8217,,,,,,,,,,,,,,,,,,,,,,,,,,381.8217,382.6973,m,1,0.8505,,382.6974,382.6975,,0,162,162,38,1,39,dönem,2820,128.1296,2437,0.2664,5,harmonic,1.4,word,m,,,,,,,
,,,,,,,,,,,,001,2023-11-08_12h37.07.738,vowel_harmony,2023.2.3,Win32,59.88741167,382.6979,383.6767,,,,,,,,,,,,,,,,,,,,,,,,,,383.6768,384.9664,m,1,1.2439,,384.9665,384.9665,,0,163,163,78,1,79,ulusal,1551,70.4713,1355,0.1481,6,harmonic,1.75,word,m,,,,,,,
,,,,,,,,,,,,001,2023-11-08_12h37.07.738,vowel_harmony,2023.2.3,Win32,59.88741167,384.9669,385.9684,,,,,,,,,,,,,,,,,,,,,,,,,,385.9684,387.058,z,1,1.0516,,387.0581,387.0583,,0,164,164,225,1,226,düvem,,,,,5,harmonic,1.7,nw,z,,,,,,,
,,,,,,,,,,,,001,2023-11-08_12h37.07.738,vowel_harmony,2023.2.3,Win32,59.88741167,387.0587,388.0486,,,,,,,,,,,,,,,,,,,,,,,,,,388.0487,389.0928,m,1,1.004,,389.0929,389.093,,0,165,165,163,1,164,limon,1658,75.3329,1481,0.1619,5,notharmonic,1.75,word,m,,,,,,,
,,,,,,,,,,,,001,2023-11-08_12h37.07.738,vowel_harmony,2023.2.3,Win32,59.88741167,389.0935,390.0933,,,,,,,,,,,,,,,,,,,,,,,,,,390.0934,391.3981,z,1,1.2588,,391.3981,391.3984,,0,166,166,311,1,312,dedya,,,,,5,notharmonic,1.9,nw,z,,,,,,,
,,,,,,,,,,,,001,2023-11-08_12h37.07.738,vowel_harmony,2023.2.3,Win32,59.88741167,391.3988,392.3795,,,,,,,,,,,,,,,,,,,,,,,,,,392.3796,393.0954,m,1,0.6726,,393.0955,393.0956,,0,167,167,13,1,14,nokta,2085,94.7341,1939,0.212,5,harmonic,1.5,word,m,,,,,,,
,,,,,,,,,,,,001,2023-11-08_12h37.07.738,vowel_harmony,2023.2.3,Win32,59.88741167,393.0961,394.0766,,,,,,,,,,,,,,,,,,,,,,,,,,394.0767,394.7313,m,1,0.6091,,394.7313,394.7314,,0,168,168,133,1,134,taze,2268,103.0489,2062,0.2254,4,notharmonic,1.65,word,m,,,,,,,
,,,,,,,,,,,,001,2023-11-08_12h37.07.738,vowel_harmony,2023.2.3,Win32,59.88741167,394.7321,395.7407,,,,,,,,,,,,,,,,,,,,,,,,,,395.7407,396.4242,m,1,0.6507,,396.4243,396.4244,,0,169,169,169,1,170,hikaye,1555,70.653,1405,0.1536,6,notharmonic,1.8,word,m,,,,,,,
,,,,,,,,,,,,001,2023-11-08_12h37.07.738,vowel_harmony,2023.2.3,Win32,59.88741167,396.4248,397.4182,,,,,,,,,,,,,,,,,,,,,,,,,,397.4182,399.4058,,0,,,399.4058,399.4059,,0,170,170,31,1,32,fazla,18293,831.1614,16694,1.825,5,harmonic,1,word,m,,,,,,,
,,,,,,,,,,,,001,2023-11-08_12h37.07.738,vowel_harmony,2023.2.3,Win32,59.88741167,399.4063,400.4015,,,,,,,,,,,,,,,,,,,,,,,,,,400.4016,401.1645,z,1,0.7255,,401.1646,401.1648,,0,171,171,193,1,194,yokın,,,,,5,harmonic,1.85,nw,z,,,,,,,
,,,,,,,,,,,,001,2023-11-08_12h37.07.738,vowel_harmony,2023.2.3,Win32,59.88741167,401.1652,402.1765,,,,,,,,,,,,,,,,,,,,,,,,,,402.1765,403.2689,z,1,1.0461,,403.2691,403.2694,,0,172,172,240,1,241,hoga,,,,,4,harmonic,1.75,nw,z,,,,,,,
,,,,,,,,,,,,001,2023-11-08_12h37.07.738,vowel_harmony,2023.2.3,Win32,59.88741167,403.2698,404.2657,,,,,,,,,,,,,,,,,,,,,,,,,,404.2657,404.8569,m,1,0.5641,,404.857,404.8571,,0,173,173,65,1,66,fikir,2552,115.9528,2413,0.2638,5,harmonic,1.9,word,m,,,,,,,
,,,,,,,,,,,,001,2023-11-08_12h37.07.738,vowel_harmony,2023.2.3,Win32,59.88741167,404.8575,405.8656,,,,,,,,,,,,,,,,,,,,,,,,,,405.8656,406.7159,z,1,0.8102,,406.716,406.716,,0,174,174,199,1,200,movu,,,,,4,harmonic,1.9,nw,z,,,,,,,
,,,,,,,,,,,,001,2023-11-08_12h37.07.738,vowel_harmony,2023.2.3,Win32,59.88741167,406.7165,407.7231,,,,,,,,,,,,,,,,,,,,,,,,,,407.7232,408.415,m,1,0.6589,,408.415,408.415,,0,175,175,58,1,59,ayak,2143,97.3694,1931,0.2111,4,harmonic,1,word,m,,,,,,,
,,,,,,,,,,,,001,2023-11-08_12h37.07.738,vowel_harmony,2023.2.3,Win32,59.88741167,408.4154,409.4234,,,,,,,,,,,,,,,,,,,,,,,,,,409.4234,411.2226,z,1,1.7668,,411.2227,411.2227,,0,176,176,279,1,280,tadde,,,,,5,notharmonic,1.8,nw,z,,,,,,,
,,,,,,,,,,,,001,2023-11-08_12h37.07.738,vowel_harmony,2023.2.3,Win32,59.88741167,411.223,412.2249,,,,,,,,,,,,,,,,,,,,,,,,,,412.225,413.5458,z,1,1.2879,,413.5459,413.5461,,0,177,177,284,1,285,deval,,,,,5,notharmonic,1.75,nw,z,,,,,,,
,,,,,,,,,,,,001,2023-11-08_12h37.07.738,vowel_harmony,2023.2.3,Win32,59.88741167,413.5466,414.5458,,,,,,,,,,,,,,,,,,,,,,,,,,414.5458,415.2151,z,1,0.6419,,415.2152,415.2152,,0,178,178,201,1,202,ergiy,,,,,5,harmonic,1.85,nw,z,,,,,,,
,,,,,,,,,,,,001,2023-11-08_12h37.07.738,vowel_harmony,2023.2.3,Win32,59.88741167,415.2157,416.2273,,,,,,,,,,,,,,,,,,,,,,,,,,416.2274,417.0272,m,1,0.7546,,417.0272,417.0274,,0,179,179,171,1,172,reklam,1565,71.1074,1244,0.136,6,notharmonic,1.9,word,m,,,,,,,
,,,,,,,,,,,,001,2023-11-08_12h37.07.738,vowel_harmony,2023.2.3,Win32,59.88741167,417.0279,418.0163,,,,,,,,,,,,,,,,,,,,,,,,,,418.0165,419.0173,m,1,0.9607,,419.0173,419.0175,,0,180,180,6,1,7,hayal,4498,204.3713,4079,0.4459,5,harmonic,1.45,word,m,,,,,,,
,,,,,,,,,,,,001,2023-11-08_12h37.07.738,vowel_harmony,2023.2.3,Win32,59.88741167,419.0179,420.0067,,,,,,,,,,,,,,,,,,,,,,,,,,420.0067,420.6478,z,1,0.6084,,420.6478,420.6479,,0,181,181,355,1,356,adül,,,,,4,notharmonic,1.85,nw,z,,,,,,,
,,,,,,,,,,,,001,2023-11-08_12h37.07.738,vowel_harmony,2023.2.3,Win32,59.88741167,420.6483,421.6381,,,,,,,,,,,,,,,,,,,,,,,,,,421.6383,422.2783,m,1,0.6153,,422.2785,422.2787,,0,182,182,50,1,51,kanun,1198,54.4324,1010,0.1104,5,harmonic,1.6,word,m,,,,,,,
,,,,,,,,,,,,001,2023-11-08_12h37.07.738,vowel_harmony,2023.2.3,Win32,59.88741167,422.2792,423.2734,,,,,,,,,,,,,,,,,,,,,,,,,,423.2735,423.985,z,1,0.6788,,423.9851,423.9852,,0,183,183,283,1,284,fahe,,,,,4,notharmonic,1.95,nw,z,,,,,,,
,,,,,,,,,,,,001,2023-11-08_12h37.07.738,vowel_harmony,2023.2.3,Win32,59.88741167,423.9861,424.9901,,,,,,,,,,,,,,,,,,,,,,,,,,424.9902,426.182,z,1,1.1591,,426.182,426.1821,,0,184,184,349,1,350,harten,,,,,6,notharmonic,1.85,nw,z,,,,,,,
,,,,,,,,,,,,001,2023-11-08_12h37.07.738,vowel_harmony,2023.2.3,Win32,59.88741167,426.1948,427.2066,,,,,,,,,,,,,,,,,,,,,,,,,,427.2066,427.7557,m,1,0.5161,,427.7558,427.756,,0,185,185,62,1,63,cümle,1911,86.8283,1765,0.193,5,harmonic,1.85,word,m,,,,,,,
,,,,,,,,,,,,001,2023-11-08_12h37.07.738,vowel_harmony,2023.2.3,Win32,59.88741167,427.7563,428.7594,,,,,,,,,,,,,,,,,,,,,,,,,,428.7596,429.7598,z,1,0.9543,,429.7599,429.76,,0,186,186,237,1,238,taşal,,,,,5,harmonic,1.8,nw,z,,,,,,,
,,,,,,,,,,,,001,2023-11-08_12h37.07.738,vowel_harmony,2023.2.3,Win32,59.88741167,429.7605,430.7468,,,,,,,,,,,,,,,,,,,,,,,,,,430.747,431.7651,m,0,0.9761,,431.7651,431.7651,,0,187,187,302,1,303,işgar,,,,,5,notharmonic,1.9,nw,z,,,,,,,
,,,,,,,,,,,,001,2023-11-08_12h37.07.738,vowel_harmony,2023.2.3,Win32,59.88741167,431.7656,432.7573,,,,,,,,,,,,,,,,,,,,,,,,,,432.7574,433.4726,m,1,0.6825,,433.4726,433.4726,,0,188,188,138,1,139,kardeş,1270,57.7038,1174,0.1283,6,notharmonic,1.9,word,m,,,,,,,
,,,,,,,,,,,,001,2023-11-08_12h37.07.738,vowel_harmony,2023.2.3,Win32,59.88741167,433.4731,434.4762,,,,,,,,,,,,,,,,,,,,,,,,,,434.4763,435.1624,m,1,0.6405,,435.1625,435.1626,,0,189,189,46,1,47,takım,4370,198.5555,3726,0.4073,5,harmonic,1.7,word,m,,,,,,,
,,,,,,,,,,,,001,2023-11-08_12h37.07.738,vowel_harmony,2023.2.3,Win32,59.88741167,435.163,436.1596,,,,,,,,,,,,,,,,,,,,,,,,,,436.1596,436.8591,z,1,0.6536,,436.8592,436.8593,,0,190,190,250,1,251,kakuk,,,,,5,harmonic,1.9,nw,z,,,,,,,
,,,,,,,,,,,,001,2023-11-08_12h37.07.738,vowel_harmony,2023.2.3,Win32,59.88741167,436.8598,437.8514,,,,,,,,,,,,,,,,,,,,,,,,,,437.8516,438.4438,m,1,0.5551,,438.4439,438.444,,0,191,191,97,1,98,mevcut,3007,136.6262,2842,0.3107,6,notharmonic,1.95,word,m,,,,,,,
,,,,,,,,,,,,001,2023-11-08_12h37.07.738,vowel_harmony,2023.2.3,Win32,59.88741167,438.4444,439.4305,,,,,,,,,,,,,,,,,,,,,,,,,,439.4307,440.5141,z,1,1.0422,,440.5142,440.5143,,0,192,192,239,1,240,şekik,,,,,5,harmonic,1.7,nw,z,,,,,,,
,,,,,,,,,,,,001,2023-11-08_12h37.07.738,vowel_harmony,2023.2.3,Win32,59.88741167,440.5147,441.5092,,,,,,,,,,,,,,,,,,,,,,,,,,441.5093,442.0899,m,1,0.534,,442.0899,442.0901,,0,193,193,135,1,136,hafif,3355,152.4379,3101,0.339,5,notharmonic,1.75,word,m,,,,,,,
,,,,,,,,,,,,001,2023-11-08_12h37.07.738,vowel_harmony,2023.2.3,Win32,59.88741167,442.0907,443.0902,,,,,,,,,,,,,,,,,,,,,,,,,,443.0902,443.4495,m,0,0.3269,,443.4495,443.4497,,0,194,194,277,1,278,balsin,,,,,6,notharmonic,1.85,nw,z,,,,,,,
,,,,,,,,,,,,001,2023-11-08_12h37.07.738,vowel_harmony,2023.2.3,Win32,59.88741167,443.45,444.4389,,,,,,,,,,,,,,,,,,,,,,,,,,444.4389,445.1891,z,1,0.7167,,445.1892,445.1893,,0,195,195,291,1,292,mepan,,,,,5,notharmonic,1.75,nw,z,,,,,,,
,,,,,,,,,,,,001,2023-11-08_12h37.07.738,vowel_harmony,2023.2.3,Win32,59.88741167,445.1897,446.1722,,,,,,,,,,,,,,,,,,,,,,,,,,446.1722,446.7028,m,1,0.5059,,446.7028,446.7028,,0,196,196,127,1,128,şahane,1153,52.3877,1108,0.1211,6,notharmonic,1.8,word,m,,,,,,,
,,,,,,,,,,,,001,2023-11-08_12h37.07.738,vowel_harmony,2023.2.3,Win32,59.88741167,446.7031,447.7095,,,,,,,,,,,,,,,,,,,,,,,,,,447.7095,448.439,z,1,0.6837,,448.439,448.4391,,0,197,197,352,1,353,yılden,,,,,6,notharmonic,1.8,nw,z,,,,,,,
,,,,,,,,,,,,001,2023-11-08_12h37.07.738,vowel_harmony,2023.2.3,Win32,59.88741167,448.4395,449.4473,,,,,,,,,,,,,,,,,,,,,,,,,,449.4473,450.2101,z,1,0.7214,,450.2102,450.2103,,0,198,198,294,1,295,mesap,,,,,5,notharmonic,1.8,nw,z,,,,,,,
,,,,,,,,,,,,001,2023-11-08_12h37.07.738,vowel_harmony,2023.2.3,Win32,59.88741167,450.2107,451.2074,,,,,,,,,,,,,,,,,,,,,,,,,,451.2075,451.7973,z,0,0.5568,,451.7973,451.7975,,0,199,199,96,1,97,dahil,3189,144.8955,3060,0.3345,5,notharmonic,1.7,word,m,,,,,,,
,,,,,,,,,,,,001,2023-11-08_12h37.07.738,vowel_harmony,2023.2.3,Win32,59.88741167,451.798,452.7923,,,,,,,,,,,,,,,,,,,,,,,,,,452.7923,453.4905,m,1,0.652,,453.4906,453.4908,,0,200,200,142,1,143,siyasi,2909,132.1734,2445,0.2673,6,notharmonic,1.8,word,m,,,,,,,
,,,,,,,,,,,,001,2023-11-08_12h37.07.738,vowel_harmony,2023.2.3,Win32,59.88741167,453.4912,454.4812,,,,,,,,,,,,,,,,,,,,,,,,,,454.4813,455.1973,z,1,0.6752,,455.1974,455.1975,,0,201,201,212,1,213,ortat,,,,,5,harmonic,1.7,nw,z,,,,,,,
,,,,,,,,,,,,001,2023-11-08_12h37.07.738,vowel_harmony,2023.2.3,Win32,59.88741167,455.198,456.1928,,,,,,,,,,,,,,,,,,,,,,,,,,456.193,457.2435,z,1,1.0044,,457.2435,457.2436,,0,202,202,351,1,352,seğlık,,,,,6,notharmonic,1.9,nw,z,,,,,,,
,,,,,,,,,,,,001,2023-11-08_12h37.07.738,vowel_harmony,2023.2.3,Win32,59.88741167,457.244,458.2514,,,,,,,,,,,,,,,,,,,,,,,,,,458.2515,458.9002,m,1,0.61,,458.9003,458.9006,,0,203,203,70,1,71,yarın,3440,156.3,3222,0.3522,5,harmonic,1.85,word,m,,,,,,,
,,,,,,,,,,,,001,2023-11-08_12h37.07.738,vowel_harmony,2023.2.3,Win32,59.88741167,458.9012,459.891,,,,,,,,,,,,,,,,,,,,,,,,,,459.891,460.5477,z,1,0.6237,,460.5478,460.5481,,0,204,204,200,1,201,duşın,,,,,5,harmonic,1.9,nw,z,,,,,,,
,,,,,,,,,,,,001,2023-11-08_12h37.07.738,vowel_harmony,2023.2.3,Win32,59.88741167,460.5485,461.532,,,,,,,,,,,,,,,,,,,,,,,,,,461.5321,462.107,m,1,0.5484,,462.1071,462.1073,,0,205,205,91,1,92,ifade,6177,280.6584,5726,0.626,5,notharmonic,1.7,word,m,,,,,,,
,,,,,,,,,,,,001,2023-11-08_12h37.07.738,vowel_harmony,2023.2.3,Win32,59.88741167,462.1077,463.1219,,,,,,,,,,,,,,,,,,,,,,,,,,463.122,463.626,m,1,0.4792,,463.6261,463.6261,,0,206,206,8,1,9,güven,1433,65.1098,1300,0.1421,5,harmonic,1.35,word,m,,,,,,,
,,,,,,,,,,,,001,2023-11-08_12h37.07.738,vowel_harmony,2023.2.3,Win32,59.88741167,463.6266,464.6322,,,,,,,,,,,,,,,,,,,,,,,,,,464.6324,465.4598,z,1,0.7873,,465.4599,465.4601,,0,207,207,210,1,211,şevci,,,,,5,harmonic,1.75,nw,z,,,,,,,
,,,,,,,,,,,,001,2023-11-08_12h37.07.738,vowel_harmony,2023.2.3,Win32,59.88741167,465.4604,466.4513,,,,,,,,,,,,,,,,,,,,,,,,,,466.4513,467.1994,m,1,0.7107,,467.1995,467.1997,,0,208,208,140,1,141,sahil,481,21.8547,443,0.0484,5,notharmonic,1.45,word,m,,,,,,,
,,,,,,,,,,,,001,2023-11-08_12h37.07.738,vowel_harmony,2023.2.3,Win32,59.88741167,467.2003,468.1997,,,,,,,,,,,,,,,,,,,,,,,,,,468.1997,469.0063,m,1,0.7681,,469.0064,469.0064,,0,209,209,164,1,165,sinema,1575,71.5618,1304,0.1426,6,notharmonic,1.8,word,m,,,,,,,
,,,,,,,,,,,,001,2023-11-08_12h37.07.738,vowel_harmony,2023.2.3,Win32,59.88741167,469.0068,470.0064,,,,,,,,,,,,,,,,,,,,,,,,,,470.0064,471.2844,z,1,1.2449,,471.2844,471.2845,,0,210,210,307,1,308,merbat,,,,,6,notharmonic,1.95,nw,z,,,,,,,
,,,,,,,,,,,,001,2023-11-08_12h37.07.738,vowel_harmony,2023.2.3,Win32,59.88741167,471.2855,472.2825,,,,,,,,,,,,,,,,,,,,,,,,,,472.2825,472.9164,z,1,0.5944,,472.9164,472.9166,,0,211,211,257,1,258,zerü,,,,,4,harmonic,1.8,nw,z,,,,,,,
,,,,,,,,,,,,001,2023-11-08_12h37.07.738,vowel_harmony,2023.2.3,Win32,59.88741167,472.9171,473.9269,,,,,,,,,,,,,,,,,,,,,,,,,,473.9269,474.4962,m,1,0.5238,,474.4963,474.4965,,0,212,212,57,1,58,bölüm,1910,86.7828,1605,0.1755,5,harmonic,1.45,word,m,,,,,,,
,,,,,,,,,,,,001,2023-11-08_12h37.07.738,vowel_harmony,2023.2.3,Win32,59.88741167,474.4969,475.4985,,,,,,,,,,,,,,,,,,,,,,,,,,475.4985,476.1753,z,1,0.6367,,476.1755,476.1756,,0,213,213,181,1,182,rapkı,,,,,5,harmonic,1.85,nw,z,,,,,,,
,,,,,,,,,,,,001,2023-11-08_12h37.07.738,vowel_harmony,2023.2.3,Win32,59.88741167,476.1761,477.1636,,,,,,,,,,,,,,,,,,,,,,,,,,477.1637,477.7411,m,1,0.5355,,477.7412,477.7414,,0,214,214,93,1,94,siyah,2944,133.7637,2527,0.2763,5,notharmonic,1.6,word,m,,,,,,,
,,,,,,,,,,,,001,2023-11-08_12h37.07.738,vowel_harmony,2023.2.3,Win32,59.88741167,477.7417,478.7343,,,,,,,,,,,,,,,,,,,,,,,,,,478.7343,479.2874,m,1,0.5157,,479.2875,479.2877,,0,215,215,55,1,56,akıl,2208,100.3228,2004,0.2191,4,harmonic,1,word,m,,,,,,,
,,,,,,,,,,,,001,2023-11-08_12h37.07.738,vowel_harmony,2023.2.3,Win32,59.88741167,479.2881,480.2986,,,,,,,,,,,,,,,,,,,,,,,,,,480.2987,480.9434,z,1,0.6049,,480.9434,480.9436,,0,216,216,219,1,220,barlum,,,,,6,harmonic,1.9,nw,z,,,,,,,
,,,,,,,,,,,,001,2023-11-08_12h37.07.738,vowel_harmony,2023.2.3,Win32,59.88741167,480.944,481.9267,,,,,,,,,,,,,,,,,,,,,,,,,,481.9267,482.4309,m,1,0.459,,482.431,482.4312,,0,217,217,56,1,57,sağlam,1818,82.6027,1720,0.188,6,harmonic,1.6,word,m,,,,,,,
,,,,,,,,,,,,001,2023-11-08_12h37.07.738,vowel_harmony,2023.2.3,Win32,59.88741167,482.4316,483.4298,,,,,,,,,,,,,,,,,,,,,,,,,,483.4298,484.0213,z,1,0.5685,,484.0214,484.0215,,0,218,218,309,1,310,yorgen,,,,,6,notharmonic,1.9,nw,z,,,,,,,
,,,,,,,,,,,,001,2023-11-08_12h37.07.738,vowel_harmony,2023.2.3,Win32,59.88741167,484.0222,485.0189,,,,,,,,,,,,,,,,,,,,,,,,,,485.0189,485.743,z,1,0.688,,485.7431,485.7433,,0,219,219,313,1,314,ikas,,,,,4,notharmonic,1.85,nw,z,,,,,,,
,,,,,,,,,,,,001,2023-11-08_12h37.07.738,vowel_harmony,2023.2.3,Win32,59.88741167,485.7436,486.7551,,,,,,,,,,,,,,,,,,,,,,,,,,486.7551,487.3687,m,1,0.5885,,487.3688,487.3688,,0,220,220,64,1,65,lise,888,40.3472,816,0.0892,4,harmonic,1.5,word,m,,,,,,,
,,,,,,,,,,,,001,2023-11-08_12h37.07.738,vowel_harmony,2023.2.3,Win32,59.88741167,487.3692,488.3489,,,,,,,,,,,,,,,,,,,,,,,,,,488.3489,488.9804,m,0,0.5923,,488.9805,488.9806,,0,221,221,271,1,272,mimal,,,,,5,notharmonic,1.8,nw,z,,,,,,,
,,,,,,,,,,,,001,2023-11-08_12h37.07.738,vowel_harmony,2023.2.3,Win32,59.88741167,488.9809,489.9815,,,,,,,,,,,,,,,,,,,,,,,,,,489.9815,490.934,m,1,0.9121,,490.934,490.9341,,0,222,222,53,1,54,gelir,7578,344.3143,7014,0.7668,5,harmonic,1.4,word,m,,,,,,,
,,,,,,,,,,,,001,2023-11-08_12h37.07.738,vowel_harmony,2023.2.3,Win32,59.88741167,490.9345,491.9425,,,,,,,,,,,,,,,,,,,,,,,,,,491.9425,492.5479,m,1,0.5595,,492.548,492.5481,,0,223,223,104,1,105,cevap,5232,237.7213,4822,0.5271,5,notharmonic,1.85,word,m,,,,,,,
,,,,,,,,,,,,001,2023-11-08_12h37.07.738,vowel_harmony,2023.2.3,Win32,59.88741167,492.5486,493.5299,,,,,,,,,,,,,,,,,,,,,,,,,,493.5299,494.1734,z,1,0.6019,,494.1734,494.1736,,0,224,224,292,1,293,kinam,,,,,5,notharmonic,1.85,nw,z,,,,,,,
,,,,,,,,,,,,001,2023-11-08_12h37.07.738,vowel_harmony,2023.2.3,Win32,59.88741167,494.174,495.1669,,,,,,,,,,,,,,,,,,,,,,,,,,495.1669,495.7947,m,1,0.5895,,495.7948,495.795,,0,225,225,10,1,11,bardak,1728,78.5135,1569,0.1715,6,harmonic,1.6,word,m,,,,,,,
,,,,,,,,,,,,001,2023-11-08_12h37.07.738,vowel_harmony,2023.2.3,Win32,59.88741167,495.7955,496.8062,,,,,,,,,,,,,,,,,,,,,,,,,,496.8062,497.5897,m,1,0.7509,,497.5898,497.5901,,0,226,226,132,1,133,modern,2326,105.6842,2031,0.222,6,notharmonic,1.85,word,m,,,,,,,
,,,,,,,,,,,,001,2023-11-08_12h37.07.738,vowel_harmony,2023.2.3,Win32,59.88741167,497.5905,498.5947,,,,,,,,,,,,,,,,,,,,,,,,,,498.5948,499.5613,m,1,0.9209,,499.5614,499.5617,,0,227,227,102,1,103,esas,1965,89.2818,1795,0.1962,4,notharmonic,1.75,word,m,,,,,,,
,,,,,,,,,,,,001,2023-11-08_12h37.07.738,vowel_harmony,2023.2.3,Win32,59.88741167,499.5623,500.5647,,,,,,,,,,,,,,,,,,,,,,,,,,500.5648,502.1825,m,0,1.5773,,502.1825,502.1827,,0,228,228,344,1,345,barika,,,,,6,notharmonic,1.75,nw,z,,,,,,,
,,,,,,,,,,,,001,2023-11-08_12h37.07.738,vowel_harmony,2023.2.3,Win32,59.88741167,502.1832,503.1805,,,,,,,,,,,,,,,,,,,,,,,,,,503.1805,504.3767,m,1,1.1552,,504.3767,504.3768,,0,229,229,71,1,72,örnek,3463,157.345,3266,0.357,5,harmonic,1.85,word,m,,,,,,,
,,,,,,,,,,,,001,2023-11-08_12h37.07.738,vowel_harmony,2023.2.3,Win32,59.88741167,504.3772,505.3644,,,,,,,,,,,,,,,,,,,,,,,,,,505.3645,505.8672,m,1,0.4619,,505.8672,505.8673,,0,230,230,109,1,110,milyon,3936,178.8362,2958,0.3234,6,notharmonic,1.75,word,m,,,,,,,
,,,,,,,,,,,,001,2023-11-08_12h37.07.738,vowel_harmony,2023.2.3,Win32,59.88741167,505.8677,506.8628,,,,,,,,,,,,,,,,,,,,,,,,,,506.8629,507.3768,m,1,0.4713,,507.3769,507.377,,0,231,231,24,1,25,yorgun,1153,52.3877,1108,0.1211,6,harmonic,1.55,word,m,,,,,,,
,,,,,,,,,,,,001,2023-11-08_12h37.07.738,vowel_harmony,2023.2.3,Win32,59.88741167,507.3774,508.3894,,,,,,,,,,,,,,,,,,,,,,,,,,508.3894,508.9771,m,1,0.555,,508.9771,508.9773,,0,232,232,170,1,171,basit,3385,153.801,3177,0.3473,5,notharmonic,1.65,word,m,,,,,,,
,,,,,,,,,,,,001,2023-11-08_12h37.07.738,vowel_harmony,2023.2.3,Win32,59.88741167,508.9781,509.9595,,,,,,,,,,,,,,,,,,,,,,,,,,509.9596,510.5444,m,1,0.5391,,510.5445,510.5446,,0,233,233,68,1,69,ücret,734,33.35,634,0.0693,5,harmonic,1.85,word,m,,,,,,,
,,,,,,,,,,,,001,2023-11-08_12h37.07.738,vowel_harmony,2023.2.3,Win32,59.88741167,510.5452,511.5515,,,,,,,,,,,,,,,,,,,,,,,,,,511.5515,512.0216,m,0,0.4455,,512.0217,512.0219,,0,234,234,345,1,346,bardeş,,,,,6,notharmonic,1.95,nw,z,,,,,,,
,,,,,,,,,,,,001,2023-11-08_12h37.07.738,vowel_harmony,2023.2.3,Win32,59.88741167,512.0224,513.0301,,,,,,,,,,,,,,,,,,,,,,,,,,513.0302,513.5018,m,1,0.4303,,513.5019,513.5019,,0,235,235,162,1,163,hariç,1267,57.5675,1233,0.1348,5,notharmonic,1.75,word,m,,,,,,,
,,,,,,,,,,,,001,2023-11-08_12h37.07.738,vowel_harmony,2023.2.3,Win32,59.88741167,513.5028,514.4931,,,,,,,,,,,,,,,,,,,,,,,,,,514.4931,515.2305,z,1,0.6923,,515.2305,515.2306,,0,236,236,298,1,299,yelsın,,,,,6,notharmonic,1.95,nw,z,,,,,,,
,,,,,,,,,,,,001,2023-11-08_12h37.07.738,vowel_harmony,2023.2.3,Win32,59.88741167,515.2311,516.2217,,,,,,,,,,,,,,,,,,,,,,,,,,516.222,517.1592,m,1,0.9035,,517.1594,517.1594,,0,237,237,23,1,24,kurum,986,44.7999,882,0.0964,5,harmonic,1.75,word,m,,,,,,,
,,,,,,,,,,,,001,2023-11-08_12h37.07.738,vowel_harmony,2023.2.3,Win32,59.88741167,517.1599,518.1467,,,,,,,,,,,,,,,,,,,,,,,,,,518.1467,519.7142,z,1,1.5259,,519.7143,519.7144,,0,238,238,308,1,309,hafer,,,,,5,notharmonic,1.85,nw,z,,,,,,,
,,,,,,,,,,,,001,2023-11-08_12h37.07.738,vowel_harmony,2023.2.3,Win32,59.88741167,519.7149,520.711,,,,,,,,,,,,,,,,,,,,,,,,,,520.7111,521.2162,m,1,0.4607,,521.2163,521.2164,,0,239,239,116,1,117,daire,621,28.2158,503,0.055,5,notharmonic,1,word,m,,,,,,,
,,,,,,,,,,,,001,2023-11-08_12h37.07.738,vowel_harmony,2023.2.3,Win32,59.88741167,521.217,522.1926,,,,,,,,,,,,,,,,,,,,,,,,,,522.1928,522.722,m,1,0.484,,522.7221,525.2889,space,0,240,240,108,1,109,tarih,2806,127.4935,2483,0.2714,5,notharmonic,1.55,word,m,2.5418,,,,,,
,,,,,,,,,,,,001,2023-11-08_12h37.07.738,vowel_harmony,2023.2.3,Win32,59.88741167,525.298,526.2912,,,,,,,,,,,,,,,,,,,,,,,,,,526.2912,527.0265,z,1,0.7138,,527.0266,527.0268,,0,241,241,300,1,301,nilgi,,,,,5,notharmonic,1.85,nw,z,,,,,,,
,,,,,,,,,,,,001,2023-11-08_12h37.07.738,vowel_harmony,2023.2.3,Win32,59.88741167,527.0271,528.0273,,,,,,,,,,,,,,,,,,,,,,,,,,528.0273,528.7227,z,1,0.6504,,528.7227,528.7228,,0,242,242,322,1,323,normin,,,,,6,notharmonic,1.95,nw,z,,,,,,,
,,,,,,,,,,,,001,2023-11-08_12h37.07.738,vowel_harmony,2023.2.3,Win32,59.88741167,528.7232,529.7255,,,,,,,,,,,,,,,,,,,,,,,,,,529.7255,530.457,z,0,0.6854,,530.457,530.4572,,0,243,243,165,1,166,gazete,1402,63.7013,1270,0.1388,6,notharmonic,1.8,word,m,,,,,,,
,,,,,,,,,,,,001,2023-11-08_12h37.07.738,vowel_harmony,2023.2.3,Win32,59.88741167,530.4576,531.4465,,,,,,,,,,,,,,,,,,,,,,,,,,531.4466,532.3258,z,1,0.8378,,532.3258,532.3259,,0,244,244,348,1,349,aife,,,,,4,notharmonic,1.75,nw,z,,,,,,,
,,,,,,,,,,,,001,2023-11-08_12h37.07.738,vowel_harmony,2023.2.3,Win32,59.88741167,532.3266,533.3228,,,,,,,,,,,,,,,,,,,,,,,,,,533.3229,533.8466,m,1,0.4913,,533.8467,533.8467,,0,245,245,144,1,145,garip,2567,116.6343,2355,0.2574,5,notharmonic,1.65,word,m,,,,,,,
,,,,,,,,,,,,001,2023-11-08_12h37.07.738,vowel_harmony,2023.2.3,Win32,59.88741167,533.8472,534.8363,,,,,,,,,,,,,,,,,,,,,,,,,,534.8364,535.5481,z,1,0.6769,,535.5482,535.5483,,0,246,246,280,1,281,adalek,,,,,6,notharmonic,1.85,nw,z,,,,,,,
,,,,,,,,,,,,001,2023-11-08_12h37.07.738,vowel_harmony,2023.2.3,Win32,59.88741167,535.5488,536.5565,,,,,,,,,,,,,,,,,,,,,,,,,,536.5566,537.1964,z,1,0.6155,,537.1964,537.1965,,0,247,247,305,1,306,tamü,,,,,4,notharmonic,1.75,nw,z,,,,,,,
,,,,,,,,,,,,001,2023-11-08_12h37.07.738,vowel_harmony,2023.2.3,Win32,59.88741167,537.1968,538.1954,,,,,,,,,,,,,,,,,,,,,,,,,,538.1955,538.763,m,1,0.525,,538.763,538.7631,,0,248,248,67,1,68,bayram,1948,88.5094,1648,0.1802,6,harmonic,1.85,word,m,,,,,,,
,,,,,,,,,,,,001,2023-11-08_12h37.07.738,vowel_harmony,2023.2.3,Win32,59.88741167,538.7635,539.7756,,,,,,,,,,,,,,,,,,,,,,,,,,539.7756,540.3976,m,1,0.576,,540.3976,540.3978,,0,249,249,2,1,3,radyo,763,34.6677,636,0.0695,5,harmonic,1.85,word,m,,,,,,,
,,,,,,,,,,,,001,2023-11-08_12h37.07.738,vowel_harmony,2023.2.3,Win32,59.88741167,540.3981,541.3891,,,,,,,,,,,,,,,,,,,,,,,,,,541.3891,542.1286,z,1,0.7067,,542.1286,542.1287,,0,250,250,286,1,287,cedan,,,,,5,notharmonic,1.8,nw,z,,,,,,,
,,,,,,,,,,,,001,2023-11-08_12h37.07.738,vowel_harmony,2023.2.3,Win32,59.88741167,542.1291,543.1167,,,,,,,,,,,,,,,,,,,,,,,,,,543.1168,543.6272,m,1,0.4724,,543.6272,543.6274,,0,251,251,16,1,17,yavaş,5087,231.1331,2886,0.3155,5,harmonic,1.6,word,m,,,,,,,
,,,,,,,,,,,,001,2023-11-08_12h37.07.738,vowel_harmony,2023.2.3,Win32,59.88741167,543.6278,544.6295,,,,,,,,,,,,,,,,,,,,,,,,,,544.6296,545.2463,z,1,0.5747,,545.2463,545.2464,,0,252,252,359,1,360,kardez,,,,,6,notharmonic,1.95,nw,z,,,,,,,
,,,,,,,,,,,,001,2023-11-08_12h37.07.738,vowel_harmony,2023.2.3,Win32,59.88741167,545.2467,546.2468,,,,,,,,,,,,,,,,,,,,,,,,,,546.2468,546.9588,z,1,0.671,,546.9589,546.959,,0,253,253,221,1,222,yaypın,,,,,6,harmonic,1.75,nw,z,,,,,,,
,,,,,,,,,,,,001,2023-11-08_12h37.07.738,vowel_harmony,2023.2.3,Win32,59.88741167,546.9594,547.9544,,,,,,,,,,,,,,,,,,,,,,,,,,547.9545,548.4844,m,1,0.4963,,548.4845,548.4846,,0,254,254,100,1,101,düşman,1065,48.3894,962,0.1052,6,notharmonic,1.85,word,m,,,,,,,
,,,,,,,,,,,,001,2023-11-08_12h37.07.738,vowel_harmony,2023.2.3,Win32,59.88741167,548.485,549.4878,,,,,,,,,,,,,,,,,,,,,,,,,,549.4879,550.0935,m,1,0.5809,,550.0937,550.0938,,0,255,255,173,1,174,sade,1193,54.2052,1114,0.1218,4,notharmonic,1.55,word,m,,,,,,,
,,,,,,,,,,,,001,2023-11-08_12h37.07.738,vowel_harmony,2023.2.3,Win32,59.88741167,550.0943,551.1047,,,,,,,,,,,,,,,,,,,,,,,,,,551.1047,551.6298,m,1,0.5007,,551.6299,551.63,,0,256,256,159,1,160,vakit,3476,157.9357,3298,0.3605,5,notharmonic,1.65,word,m,,,,,,,
,,,,,,,,,,,,001,2023-11-08_12h37.07.738,vowel_harmony,2023.2.3,Win32,59.88741167,551.6302,552.639,,,,,,,,,,,,,,,,,,,,,,,,,,552.6391,553.3798,z,1,0.7083,,553.3798,553.38,,0,257,257,230,1,231,bikir,,,,,5,harmonic,1.75,nw,z,,,,,,,
,,,,,,,,,,,,001,2023-11-08_12h37.07.738,vowel_harmony,2023.2.3,Win32,59.88741167,553.3803,554.3585,,,,,,,,,,,,,,,,,,,,,,,,,,554.3587,555.0304,z,1,0.6258,,555.0305,555.0307,,0,258,258,249,1,250,hurıt,,,,,5,harmonic,1.95,nw,z,,,,,,,
,,,,,,,,,,,,001,2023-11-08_12h37.07.738,vowel_harmony,2023.2.3,Win32,59.88741167,555.0313,556.0417,,,,,,,,,,,,,,,,,,,,,,,,,,556.0418,556.8563,z,1,0.7681,,556.8563,556.8564,,0,259,259,357,1,358,işarek,,,,,6,notharmonic,1.95,nw,z,,,,,,,
,,,,,,,,,,,,001,2023-11-08_12h37.07.738,vowel_harmony,2023.2.3,Win32,59.88741167,556.8569,557.8581,,,,,,,,,,,,,,,,,,,,,,,,,,557.8582,558.6132,z,1,0.7086,,558.6132,558.6132,,0,260,260,275,1,276,tahçe,,,,,5,notharmonic,1.95,nw,z,,,,,,,
,,,,,,,,,,,,001,2023-11-08_12h37.07.738,vowel_harmony,2023.2.3,Win32,59.88741167,558.6136,559.5948,,,,,,,,,,,,,,,,,,,,,,,,,,559.5948,560.2443,z,1,0.6062,,560.2444,560.2446,,0,261,261,183,1,184,orkın,,,,,5,harmonic,1.9,nw,z,,,,,,,
,,,,,,,,,,,,001,2023-11-08_12h37.07.738,vowel_harmony,2023.2.3,Win32,59.88741167,560.2451,561.2122,,,,,,,,,,,,,,,,,,,,,,,,,,561.2123,561.9629,z,1,0.7201,,561.9629,561.9629,,0,262,262,304,1,305,annö,,,,,4,notharmonic,1.95,nw,z,,,,,,,
,,,,,,,,,,,,001,2023-11-08_12h37.07.738,vowel_harmony,2023.2.3,Win32,59.88741167,561.9633,562.9674,,,,,,,,,,,,,,,,,,,,,,,,,,562.9675,563.566,m,1,0.5596,,563.5661,563.5663,,0,263,263,33,1,34,moda,1381,62.7472,1231,0.1346,4,harmonic,1.55,word,m,,,,,,,
,,,,,,,,,,,,001,2023-11-08_12h37.07.738,vowel_harmony,2023.2.3,Win32,59.88741167,563.567,564.555,,,,,,,,,,,,,,,,,,,,,,,,,,564.555,565.1304,m,1,0.5423,,565.1304,565.1306,,0,264,264,80,1,81,merkez,1445,65.6551,1255,0.1372,6,harmonic,1.8,word,m,,,,,,,
,,,,,,,,,,,,001,2023-11-08_12h37.07.738,vowel_harmony,2023.2.3,Win32,59.88741167,565.1314,566.142,,,,,,,,,,,,,,,,,,,,,,,,,,566.142,566.7985,z,1,0.6107,,566.7986,566.7987,,0,265,265,281,1,282,afel,,,,,4,notharmonic,1.8,nw,z,,,,,,,
,,,,,,,,,,,,001,2023-11-08_12h37.07.738,vowel_harmony,2023.2.3,Win32,59.88741167,566.7991,567.7922,,,,,,,,,,,,,,,,,,,,,,,,,,567.7922,568.4949,z,1,0.6566,,568.4951,568.4953,,0,266,266,233,1,234,devpi,,,,,5,harmonic,1.8,nw,z,,,,,,,
,,,,,,,,,,,,001,2023-11-08_12h37.07.738,vowel_harmony,2023.2.3,Win32,59.88741167,568.4958,569.5058,,,,,,,,,,,,,,,,,,,,,,,,,,569.5058,570.4207,m,1,0.8823,,570.4208,570.421,,0,267,267,149,1,150,ceza,2611,118.6335,2169,0.2371,4,notharmonic,1.5,word,m,,,,,,,
,,,,,,,,,,,,001,2023-11-08_12h37.07.738,vowel_harmony,2023.2.3,Win32,59.88741167,570.4214,571.4088,,,,,,,,,,,,,,,,,,,,,,,,,,571.4089,571.9298,m,1,0.4754,,571.9298,571.9298,,0,268,268,73,1,74,millet,1658,75.3329,1508,0.1649,6,harmonic,1.7,word,m,,,,,,,
,,,,,,,,,,,,001,2023-11-08_12h37.07.738,vowel_harmony,2023.2.3,Win32,59.88741167,571.9304,572.9385,,,,,,,,,,,,,,,,,,,,,,,,,,572.9385,573.5964,z,1,0.6332,,573.5964,573.5966,,0,269,269,203,1,204,döves,,,,,5,harmonic,1.8,nw,z,,,,,,,
,,,,,,,,,,,,001,2023-11-08_12h37.07.738,vowel_harmony,2023.2.3,Win32,59.88741167,573.5969,574.5813,,,,,,,,,,,,,,,,,,,,,,,,,,574.5813,575.2462,z,1,0.6374,,575.2462,575.2463,,0,270,270,206,1,207,bevek,,,,,5,harmonic,1.75,nw,z,,,,,,,
,,,,,,,,,,,,001,2023-11-08_12h37.07.738,vowel_harmony,2023.2.3,Win32,59.88741167,575.2467,576.2474,,,,,,,,,,,,,,,,,,,,,,,,,,576.2474,576.9093,m,1,0.6182,,576.9093,576.9095,,0,271,271,131,1,132,hakim,1677,76.1962,1559,0.1704,5,notharmonic,1,word,m,,,,,,,
,,,,,,,,,,,,001,2023-11-08_12h37.07.738,vowel_harmony,2023.2.3,Win32,59.88741167,576.9099,577.8983,,,,,,,,,,,,,,,,,,,,,,,,,,577.8983,578.4882,m,1,0.5505,,578.4882,578.4883,,0,272,272,32,1,33,temel,4231,192.2399,3851,0.421,5,harmonic,1.55,word,m,,,,,,,
,,,,,,,,,,,,001,2023-11-08_12h37.07.738,vowel_harmony,2023.2.3,Win32,59.88741167,578.4885,579.4757,,,,,,,,,,,,,,,,,,,,,,,,,,579.4758,580.073,m,1,0.5518,,580.073,580.0731,,0,273,273,47,1,48,kaza,740,33.6227,679,0.0742,4,harmonic,1.85,word,m,,,,,,,
,,,,,,,,,,,,001,2023-11-08_12h37.07.738,vowel_harmony,2023.2.3,Win32,59.88741167,580.0736,581.0817,,,,,,,,,,,,,,,,,,,,,,,,,,581.0818,581.5702,m,1,0.4482,,581.5704,581.5705,,0,274,274,51,1,52,ilginç,2803,127.3572,2690,0.2941,6,harmonic,1.8,word,m,,,,,,,
,,,,,,,,,,,,001,2023-11-08_12h37.07.738,vowel_harmony,2023.2.3,Win32,59.88741167,581.571,582.5885,,,,,,,,,,,,,,,,,,,,,,,,,,582.5886,583.1644,m,1,0.5513,,583.1644,583.1645,,0,275,275,74,1,75,başarı,1398,63.5196,1300,0.1421,6,harmonic,1.2,word,m,,,,,,,
,,,,,,,,,,,,001,2023-11-08_12h37.07.738,vowel_harmony,2023.2.3,Win32,59.88741167,583.1652,584.1843,,,,,,,,,,,,,,,,,,,,,,,,,,584.1844,584.9282,z,1,0.719,,584.9284,584.9285,,0,276,276,306,1,307,otet,,,,,4,notharmonic,1.95,nw,z,,,,,,,
,,,,,,,,,,,,001,2023-11-08_12h37.07.738,vowel_harmony,2023.2.3,Win32,59.88741167,584.9291,585.9224,,,,,,,,,,,,,,,,,,,,,,,,,,585.9224,586.7347,z,1,0.7791,,586.7348,586.735,,0,277,277,316,1,317,misaf,,,,,5,notharmonic,1.85,nw,z,,,,,,,
,,,,,,,,,,,,001,2023-11-08_12h37.07.738,vowel_harmony,2023.2.3,Win32,59.88741167,586.7354,587.7441,,,,,,,,,,,,,,,,,,,,,,,,,,587.7442,588.3274,m,1,0.5391,,588.3276,588.3279,,0,278,278,95,1,96,takip,4996,226.9984,4651,0.5084,5,notharmonic,1.55,word,m,,,,,,,
,,,,,,,,,,,,001,2023-11-08_12h37.07.738,vowel_harmony,2023.2.3,Win32,59.88741167,588.3285,589.3173,,,,,,,,,,,,,,,,,,,,,,,,,,589.3175,589.8472,m,1,0.4927,,589.8472,589.8474,,0,279,279,76,1,77,ilişki,1675,76.1054,1524,0.1666,6,harmonic,1.8,word,m,,,,,,,
,,,,,,,,,,,,001,2023-11-08_12h37.07.738,vowel_harmony,2023.2.3,Win32,59.88741167,589.8477,590.8585,,,,,,,,,,,,,,,,,,,,,,,,,,590.8585,591.5335,z,1,0.6283,,591.5335,591.5337,,0,280,280,246,1,247,orkın,,,,,5,harmonic,1.9,nw,z,,,,,,,
,,,,,,,,,,,,001,2023-11-08_12h37.07.738,vowel_harmony,2023.2.3,Win32,59.88741167,591.5343,592.5291,,,,,,,,,,,,,,,,,,,,,,,,,,592.5291,593.1207,m,1,0.55,,593.1207,593.1209,,0,281,281,152,1,153,tedavi,1865,84.7382,1597,0.1746,6,notharmonic,1.8,word,m,,,,,,,
,,,,,,,,,,,,001,2023-11-08_12h37.07.738,vowel_harmony,2023.2.3,Win32,59.88741167,593.1212,594.1384,,,,,,,,,,,,,,,,,,,,,,,,,,594.1384,596.1334,,0,,,596.1335,596.1336,,0,282,282,244,1,245,kaof,,,,,4,harmonic,1.9,nw,z,,,,,,,
,,,,,,,,,,,,001,2023-11-08_12h37.07.738,vowel_harmony,2023.2.3,Win32,59.88741167,596.134,597.1418,,,,,,,,,,,,,,,,,,,,,,,,,,597.1419,598.0228,z,1,0.8351,,598.0228,598.023,,0,283,283,216,1,217,çeyret,,,,,6,harmonic,1.9,nw,z,,,,,,,
,,,,,,,,,,,,001,2023-11-08_12h37.07.738,vowel_harmony,2023.2.3,Win32,59.88741167,598.0234,599.0124,,,,,,,,,,,,,,,,,,,,,,,,,,599.0125,599.7169,z,1,0.6627,,599.717,599.7171,,0,284,284,211,1,212,yarum,,,,,5,harmonic,1.75,nw,z,,,,,,,
,,,,,,,,,,,,001,2023-11-08_12h37.07.738,vowel_harmony,2023.2.3,Win32,59.88741167,599.7175,600.7123,,,,,,,,,,,,,,,,,,,,,,,,,,600.7124,601.6291,z,1,0.8748,,601.6292,601.6293,,0,285,285,208,1,209,yayram,,,,,6,harmonic,1.85,nw,z,,,,,,,
,,,,,,,,,,,,001,2023-11-08_12h37.07.738,vowel_harmony,2023.2.3,Win32,59.88741167,601.6296,602.629,,,,,,,,,,,,,,,,,,,,,,,,,,602.629,603.2397,z,1,0.5886,,603.2397,603.2399,,0,286,286,354,1,355,taden,,,,,5,notharmonic,1.7,nw,z,,,,,,,
,,,,,,,,,,,,001,2023-11-08_12h37.07.738,vowel_harmony,2023.2.3,Win32,59.88741167,603.2402,604.2155,,,,,,,,,,,,,,,,,,,,,,,,,,604.2156,604.8964,m,1,0.6419,,604.8964,604.8965,,0,287,287,79,1,80,durum,6783,308.1926,6431,0.703,5,harmonic,1.7,word,m,,,,,,,
,,,,,,,,,,,,001,2023-11-08_12h37.07.738,vowel_harmony,2023.2.3,Win32,59.88741167,604.8971,605.9144,,,,,,,,,,,,,,,,,,,,,,,,,,605.9145,606.5482,z,1,0.6066,,606.5482,606.5484,,0,288,288,194,1,195,rayna,,,,,5,harmonic,1.7,nw,z,,,,,,,
,,,,,,,,,,,,001,2023-11-08_12h37.07.738,vowel_harmony,2023.2.3,Win32,59.88741167,606.5489,607.5461,,,,,,,,,,,,,,,,,,,,,,,,,,607.5462,608.2427,z,0,0.6552,,608.2428,608.2429,,0,289,289,60,1,61,doğu,2105,95.6429,1823,0.1993,4,harmonic,1.05,word,m,,,,,,,
,,,,,,,,,,,,001,2023-11-08_12h37.07.738,vowel_harmony,2023.2.3,Win32,59.88741167,608.2433,609.229,,,,,,,,,,,,,,,,,,,,,,,,,,609.229,609.7894,m,1,0.5361,,609.7895,609.7897,,0,290,290,1,1,2,erkek,6188,281.1582,5195,0.5679,5,harmonic,1.65,word,m,,,,,,,
,,,,,,,,,,,,001,2023-11-08_12h37.07.738,vowel_harmony,2023.2.3,Win32,59.88741167,609.7901,610.779,,,,,,,,,,,,,,,,,,,,,,,,,,610.779,611.3465,m,1,0.5257,,611.3466,611.3468,,0,291,291,27,1,28,bölge,1283,58.2944,1123,0.1228,5,harmonic,1.65,word,m,,,,,,,
,,,,,,,,,,,,001,2023-11-08_12h37.07.738,vowel_harmony,2023.2.3,Win32,59.88741167,611.3473,612.3285,,,,,,,,,,,,,,,,,,,,,,,,,,612.3286,613.0683,z,1,0.6968,,613.0684,613.0685,,0,292,292,337,1,338,bakem,,,,,5,notharmonic,1.7,nw,z,,,,,,,
,,,,,,,,,,,,001,2023-11-08_12h37.07.738,vowel_harmony,2023.2.3,Win32,59.88741167,613.069,614.0792,,,,,,,,,,,,,,,,,,,,,,,,,,614.0793,614.7653,z,1,0.6441,,614.7653,614.7654,,0,293,293,276,1,277,iptap,,,,,5,notharmonic,1.95,nw,z,,,,,,,
,,,,,,,,,,,,001,2023-11-08_12h37.07.738,vowel_harmony,2023.2.3,Win32,59.88741167,614.7658,615.7417,,,,,,,,,,,,,,,,,,,,,,,,,,615.7418,616.5337,z,1,0.746,,616.5338,616.5339,,0,294,294,347,1,348,tekram,,,,,6,notharmonic,1.95,nw,z,,,,,,,
,,,,,,,,,,,,001,2023-11-08_12h37.07.738,vowel_harmony,2023.2.3,Win32,59.88741167,616.5346,617.5229,,,,,,,,,,,,,,,,,,,,,,,,,,617.523,618.1263,z,1,0.5705,,618.1264,618.1265,,0,295,295,299,1,300,fihal,,,,,5,notharmonic,1.95,nw,z,,,,,,,
,,,,,,,,,,,,001,2023-11-08_12h37.07.738,vowel_harmony,2023.2.3,Win32,59.88741167,618.1269,619.125,,,,,,,,,,,,,,,,,,,,,,,,,,619.1251,619.7791,m,1,0.6084,,619.7792,619.7793,,0,296,296,22,1,23,anlam,1730,78.6043,1617,0.1768,5,harmonic,1.25,word,m,,,,,,,
,,,,,,,,,,,,001,2023-11-08_12h37.07.738,vowel_harmony,2023.2.3,Win32,59.88741167,619.7797,620.76,,,,,,,,,,,,,,,,,,,,,,,,,,620.76,621.3506,m,1,0.5466,,621.3507,621.3508,,0,297,297,179,1,180,dakika,5891,267.6637,5207,0.5692,6,notharmonic,1.75,word,m,,,,,,,
,,,,,,,,,,,,001,2023-11-08_12h37.07.738,vowel_harmony,2023.2.3,Win32,59.88741167,621.3515,622.354,,,,,,,,,,,,,,,,,,,,,,,,,,622.354,623.0426,z,1,0.6628,,623.0426,623.0428,,0,298,298,290,1,291,aipa,,,,,4,notharmonic,1.95,nw,z,,,,,,,
,,,,,,,,,,,,001,2023-11-08_12h37.07.738,vowel_harmony,2023.2.3,Win32,59.88741167,623.0432,624.0354,,,,,,,,,,,,,,,,,,,,,,,,,,624.0354,624.8299,z,1,0.7575,,624.83,624.8303,,0,299,299,254,1,255,millek,,,,,6,harmonic,1.8,nw,z,,,,,,,
,,,,,,,,,,,,001,2023-11-08_12h37.07.738,vowel_harmony,2023.2.3,Win32,59.88741167,624.8307,625.8059,,,,,,,,,,,,,,,,,,,,,,,,,,625.806,626.3236,m,1,0.495,,626.3236,626.3238,,0,300,300,128,1,129,tatil,2152,97.7783,1865,0.2039,5,notharmonic,1.7,word,m,,,,,,,
,,,,,,,,,,,,001,2023-11-08_12h37.07.738,vowel_harmony,2023.2.3,Win32,59.88741167,626.3243,627.3228,,,,,,,,,,,,,,,,,,,,,,,,,,627.323,628.1326,m,1,0.7762,,628.1327,628.1329,,0,301,301,0,1,1,sanat,3121,141.8059,2485,0.2717,5,harmonic,1.4,word,m,,,,,,,
,,,,,,,,,,,,001,2023-11-08_12h37.07.738,vowel_harmony,2023.2.3,Win32,59.88741167,628.1334,629.1289,,,,,,,,,,,,,,,,,,,,,,,,,,629.1289,630.0792,m,1,0.9085,,630.0792,630.0794,,0,302,302,166,1,167,maden,402,18.2653,339,0.0371,5,notharmonic,1.45,word,m,,,,,,,
,,,,,,,,,,,,001,2023-11-08_12h37.07.738,vowel_harmony,2023.2.3,Win32,59.88741167,630.0796,631.075,,,,,,,,,,,,,,,,,,,,,,,,,,631.0751,631.6624,m,1,0.5401,,631.6625,631.6625,,0,303,303,81,1,82,üretim,1593,72.3796,1283,0.1403,6,harmonic,1.6,word,m,,,,,,,
,,,,,,,,,,,,001,2023-11-08_12h37.07.738,vowel_harmony,2023.2.3,Win32,59.88741167,631.6629,632.6508,,,,,,,,,,,,,,,,,,,,,,,,,,632.6508,633.292,m,1,0.6161,,633.2921,633.2923,,0,304,304,3,1,4,minik,2916,132.4915,2594,0.2836,5,harmonic,1.6,word,m,,,,,,,
,,,,,,,,,,,,001,2023-11-08_12h37.07.738,vowel_harmony,2023.2.3,Win32,59.88741167,633.2926,634.2918,,,,,,,,,,,,,,,,,,,,,,,,,,634.2919,634.992,m,1,0.6546,,634.9921,634.9922,,0,305,305,124,1,125,ilan,1579,71.7435,1499,0.1639,4,notharmonic,1,word,m,,,,,,,
,,,,,,,,,,,,001,2023-11-08_12h37.07.738,vowel_harmony,2023.2.3,Win32,59.88741167,634.9927,635.9936,,,,,,,,,,,,,,,,,,,,,,,,,,635.9937,637.1394,z,1,1.1006,,637.1395,637.1396,,0,306,306,204,1,205,gerkez,,,,,6,harmonic,1.9,nw,z,,,,,,,
,,,,,,,,,,,,001,2023-11-08_12h37.07.738,vowel_harmony,2023.2.3,Win32,59.88741167,637.14,638.1409,,,,,,,,,,,,,,,,,,,,,,,,,,638.1409,638.6544,m,0,0.4921,,638.6544,638.6545,,0,307,307,295,1,296,haylin,,,,,6,notharmonic,1.8,nw,z,,,,,,,
,,,,,,,,,,,,001,2023-11-08_12h37.07.738,vowel_harmony,2023.2.3,Win32,59.88741167,638.6549,639.6639,,,,,,,,,,,,,,,,,,,,,,,,,,639.6639,640.509,z,1,0.8034,,640.5092,640.5093,,0,308,308,340,1,341,minya,,,,,5,notharmonic,1.95,nw,z,,,,,,,
,,,,,,,,,,,,001,2023-11-08_12h37.07.738,vowel_harmony,2023.2.3,Win32,59.88741167,640.5097,641.5147,,,,,,,,,,,,,,,,,,,,,,,,,,641.5147,642.1266,m,1,0.5719,,642.1267,642.127,,0,309,309,122,1,123,devam,17666,802.673,16284,1.7802,5,notharmonic,1.55,word,m,,,,,,,
,,,,,,,,,,,,001,2023-11-08_12h37.07.738,vowel_harmony,2023.2.3,Win32,59.88741167,642.1275,643.1084,,,,,,,,,,,,,,,,,,,,,,,,,,643.1084,643.8159,z,1,0.6618,,643.8159,643.8163,,0,310,310,247,1,248,hafgın,,,,,6,harmonic,2,nw,z,,,,,,,
,,,,,,,,,,,,001,2023-11-08_12h37.07.738,vowel_harmony,2023.2.3,Win32,59.88741167,643.8168,644.8148,,,,,,,,,,,,,,,,,,,,,,,,,,644.8149,645.5153,m,1,0.6605,,645.5154,645.5156,,0,311,311,69,1,70,forma,719,32.6685,597,0.0653,5,harmonic,1.8,word,m,,,,,,,
,,,,,,,,,,,,001,2023-11-08_12h37.07.738,vowel_harmony,2023.2.3,Win32,59.88741167,645.5161,646.4976,,,,,,,,,,,,,,,,,,,,,,,,,,646.4976,647.365,z,1,0.8262,,647.365,647.3652,,0,312,312,327,1,328,parkeş,,,,,6,notharmonic,1.9,nw,z,,,,,,,
,,,,,,,,,,,,001,2023-11-08_12h37.07.738,vowel_harmony,2023.2.3,Win32,59.88741167,647.3655,648.3642,,,,,,,,,,,,,,,,,,,,,,,,,,648.3642,649.0123,m,1,0.6204,,649.0125,649.0126,,0,313,313,17,1,18,yakın,7990,363.0339,7595,0.8303,5,harmonic,1.8,word,m,,,,,,,
,,,,,,,,,,,,001,2023-11-08_12h37.07.738,vowel_harmony,2023.2.3,Win32,59.88741167,649.0132,649.9814,,,,,,,,,,,,,,,,,,,,,,,,,,649.9815,650.621,m,1,0.6135,,650.6211,650.6212,,0,314,314,110,1,111,rüya,1062,48.2531,937,0.1024,4,notharmonic,1.75,word,m,,,,,,,
,,,,,,,,,,,,001,2023-11-08_12h37.07.738,vowel_harmony,2023.2.3,Win32,59.88741167,650.6216,651.6116,,,,,,,,,,,,,,,,,,,,,,,,,,651.6116,652.5127,z,1,0.8589,,652.5127,652.5128,,0,315,315,312,1,313,şahmin,,,,,6,notharmonic,1.8,nw,z,,,,,,,
,,,,,,,,,,,,001,2023-11-08_12h37.07.738,vowel_harmony,2023.2.3,Win32,59.88741167,652.5133,653.5265,,,,,,,,,,,,,,,,,,,,,,,,,,653.5266,654.2267,z,1,0.6551,,654.2268,654.2271,,0,316,316,266,1,267,düştön,,,,,6,harmonic,1.9,nw,z,,,,,,,
,,,,,,,,,,,,001,2023-11-08_12h37.07.738,vowel_harmony,2023.2.3,Win32,59.88741167,654.2276,655.2234,,,,,,,,,,,,,,,,,,,,,,,,,,655.2234,655.8311,m,1,0.5743,,655.8312,655.8314,,0,317,317,86,1,87,gerçek,8983,408.1519,8058,0.8809,6,harmonic,1.7,word,m,,,,,,,
,,,,,,,,,,,,001,2023-11-08_12h37.07.738,vowel_harmony,2023.2.3,Win32,59.88741167,655.8319,656.8287,,,,,,,,,,,,,,,,,,,,,,,,,,656.8288,657.5543,z,1,0.6822,,657.5544,657.5545,,0,318,318,243,1,244,korguf,,,,,6,harmonic,2,nw,z,,,,,,,
,,,,,,,,,,,,001,2023-11-08_12h37.07.738,vowel_harmony,2023.2.3,Win32,59.88741167,657.555,658.5474,,,,,,,,,,,,,,,,,,,,,,,,,,658.5475,659.1212,m,1,0.5339,,659.1213,659.1213,,0,319,319,41,1,42,zengin,2193,99.6412,2015,0.2203,6,harmonic,1.65,word,m,,,,,,,
,,,,,,,,,,,,001,2023-11-08_12h37.07.738,vowel_harmony,2023.2.3,Win32,59.88741167,659.1216,660.1123,,,,,,,,,,,,,,,,,,,,,,,,,,660.1124,660.9268,m,1,0.7726,,660.9269,660.927,,0,320,320,105,1,106,sahip,10887,494.6621,9847,1.0765,5,notharmonic,1.25,word,m,,,,,,,
,,,,,,,,,,,,001,2023-11-08_12h37.07.738,vowel_harmony,2023.2.3,Win32,59.88741167,660.9276,661.9277,,,,,,,,,,,,,,,,,,,,,,,,,,661.9277,662.4148,m,1,0.4443,,662.4148,662.4149,,0,321,321,113,1,114,model,1200,54.5232,1082,0.1183,5,notharmonic,1.75,word,m,,,,,,,
,,,,,,,,,,,,001,2023-11-08_12h37.07.738,vowel_harmony,2023.2.3,Win32,59.88741167,662.4154,663.408,,,,,,,,,,,,,,,,,,,,,,,,,,663.408,663.9368,m,1,0.4833,,663.9368,663.937,,0,322,322,4,1,5,metre,1156,52.5241,1015,0.111,5,harmonic,1.7,word,m,,,,,,,
,,,,,,,,,,,,001,2023-11-08_12h37.07.738,vowel_harmony,2023.2.3,Win32,59.88741167,663.9372,664.9418,,,,,,,,,,,,,,,,,,,,,,,,,,664.9418,665.598,m,1,0.6109,,665.598,665.5981,,0,323,323,157,1,158,aktif,1062,48.2531,986,0.1078,5,notharmonic,1.9,word,m,,,,,,,
,,,,,,,,,,,,001,2023-11-08_12h37.07.738,vowel_harmony,2023.2.3,Win32,59.88741167,665.5985,666.5945,,,,,,,,,,,,,,,,,,,,,,,,,,666.5946,667.4702,z,1,0.8333,,667.4703,667.4703,,0,324,324,330,1,331,vahçe,,,,,5,notharmonic,1.9,nw,z,,,,,,,
,,,,,,,,,,,,001,2023-11-08_12h37.07.738,vowel_harmony,2023.2.3,Win32,59.88741167,667.4708,668.4584,,,,,,,,,,,,,,,,,,,,,,,,,,668.4584,669.0889,z,1,0.609,,669.089,669.0891,,0,325,325,282,1,283,taöz,,,,,4,notharmonic,1.9,nw,z,,,,,,,
,,,,,,,,,,,,001,2023-11-08_12h37.07.738,vowel_harmony,2023.2.3,Win32,59.88741167,669.0895,670.075,,,,,,,,,,,,,,,,,,,,,,,,,,670.0751,670.6294,m,1,0.5079,,670.6294,670.6296,,0,326,326,85,1,86,geçmiş,4195,190.6042,4039,0.4415,6,harmonic,1.55,word,m,,,,,,,
,,,,,,,,,,,,001,2023-11-08_12h37.07.738,vowel_harmony,2023.2.3,Win32,59.88741167,670.63,671.6206,,,,,,,,,,,,,,,,,,,,,,,,,,671.6206,672.0804,m,1,0.4347,,672.0805,672.0805,,0,327,327,155,1,156,ilaç,1366,62.0656,1215,0.1328,4,notharmonic,1.75,word,m,,,,,,,
,,,,,,,,,,,,001,2023-11-08_12h37.07.738,vowel_harmony,2023.2.3,Win32,59.88741167,672.081,673.0885,,,,,,,,,,,,,,,,,,,,,,,,,,673.0886,673.9853,z,1,0.8629,,673.9853,673.9856,,0,328,328,343,1,344,tarne,,,,,5,notharmonic,1.85,nw,z,,,,,,,
,,,,,,,,,,,,001,2023-11-08_12h37.07.738,vowel_harmony,2023.2.3,Win32,59.88741167,673.9865,674.963,,,,,,,,,,,,,,,,,,,,,,,,,,674.963,675.5044,m,1,0.4999,,675.5044,675.5045,,0,329,329,158,1,159,klasik,1871,85.0108,1734,0.1896,6,notharmonic,2,word,m,,,,,,,
,,,,,,,,,,,,001,2023-11-08_12h37.07.738,vowel_harmony,2023.2.3,Win32,59.88741167,675.5051,676.4947,,,,,,,,,,,,,,,,,,,,,,,,,,676.4947,677.3306,m,1,0.7934,,677.3307,677.3308,,0,330,330,118,1,119,meşhur,1092,49.6161,1057,0.1156,6,notharmonic,1.9,word,m,,,,,,,
,,,,,,,,,,,,001,2023-11-08_12h37.07.738,vowel_harmony,2023.2.3,Win32,59.88741167,677.3313,678.3308,,,,,,,,,,,,,,,,,,,,,,,,,,678.3309,678.9821,z,1,0.6114,,678.9822,678.9823,,0,331,331,187,1,188,remrin,,,,,6,harmonic,1.9,nw,z,,,,,,,
,,,,,,,,,,,,001,2023-11-08_12h37.07.738,vowel_harmony,2023.2.3,Win32,59.88741167,678.9828,679.9623,,,,,,,,,,,,,,,,,,,,,,,,,,679.9624,680.5653,z,1,0.561,,680.5654,680.5657,,0,332,332,331,1,332,ehun,,,,,4,notharmonic,1.95,nw,z,,,,,,,
,,,,,,,,,,,,001,2023-11-08_12h37.07.738,vowel_harmony,2023.2.3,Win32,59.88741167,680.5662,681.5652,,,,,,,,,,,,,,,,,,,,,,,,,,681.5652,682.1462,m,1,0.5418,,682.1464,682.1467,,0,333,333,99,1,100,ilave,3173,144.1685,2619,0.2863,5,notharmonic,1.85,word,m,,,,,,,
,,,,,,,,,,,,001,2023-11-08_12h37.07.738,vowel_harmony,2023.2.3,Win32,59.88741167,682.147,683.1552,,,,,,,,,,,,,,,,,,,,,,,,,,683.1553,683.6644,m,1,0.4766,,683.6644,683.6645,,0,334,334,72,1,73,çorba,1674,76.0599,1513,0.1654,5,harmonic,1.75,word,m,,,,,,,
,,,,,,,,,,,,001,2023-11-08_12h37.07.738,vowel_harmony,2023.2.3,Win32,59.88741167,683.6648,684.6498,,,,,,,,,,,,,,,,,,,,,,,,,,684.6498,685.4,z,1,0.711,,685.4,685.4003,,0,335,335,289,1,290,karmen,,,,,6,notharmonic,1.75,nw,z,,,,,,,
,,,,,,,,,,,,001,2023-11-08_12h37.07.738,vowel_harmony,2023.2.3,Win32,59.88741167,685.401,686.4093,,,,,,,,,,,,,,,,,,,,,,,,,,686.4093,686.9542,m,1,0.4988,,686.9543,686.9544,,0,336,336,92,1,93,sahne,1380,62.7017,1238,0.1353,5,notharmonic,1.65,word,m,,,,,,,
,,,,,,,,,,,,001,2023-11-08_12h37.07.738,vowel_harmony,2023.2.3,Win32,59.88741167,686.9548,687.9478,,,,,,,,,,,,,,,,,,,,,,,,,,687.9478,688.6918,z,1,0.7046,,688.6919,688.6921,,0,337,337,265,1,266,parula,,,,,6,harmonic,1.75,nw,z,,,,,,,
,,,,,,,,,,,,001,2023-11-08_12h37.07.738,vowel_harmony,2023.2.3,Win32,59.88741167,688.6924,689.6898,,,,,,,,,,,,,,,,,,,,,,,,,,689.6898,690.3301,z,1,0.6066,,690.3302,690.3303,,0,338,338,321,1,322,makih,,,,,5,notharmonic,1.8,nw,z,,,,,,,
,,,,,,,,,,,,001,2023-11-08_12h37.07.738,vowel_harmony,2023.2.3,Win32,59.88741167,690.3307,691.3257,,,,,,,,,,,,,,,,,,,,,,,,,,691.3257,691.9233,z,1,0.5524,,691.9234,691.9235,,0,339,339,190,1,191,reklen,,,,,6,harmonic,1.8,nw,z,,,,,,,
,,,,,,,,,,,,001,2023-11-08_12h37.07.738,vowel_harmony,2023.2.3,Win32,59.88741167,691.9239,692.9121,,,,,,,,,,,,,,,,,,,,,,,,,,692.9121,693.5759,z,1,0.636,,693.576,693.5762,,0,340,340,253,1,254,meslet,,,,,6,harmonic,1.85,nw,z,,,,,,,
,,,,,,,,,,,,001,2023-11-08_12h37.07.738,vowel_harmony,2023.2.3,Win32,59.88741167,693.5767,694.5578,,,,,,,,,,,,,,,,,,,,,,,,,,694.5579,695.2895,z,1,0.686,,695.2895,695.2896,,0,341,341,293,1,294,esnan,,,,,5,notharmonic,1.85,nw,z,,,,,,,
,,,,,,,,,,,,001,2023-11-08_12h37.07.738,vowel_harmony,2023.2.3,Win32,59.88741167,695.2898,696.2784,,,,,,,,,,,,,,,,,,,,,,,,,,696.2784,696.8038,z,1,0.4835,,696.8038,696.8039,,0,342,342,232,1,233,kanur,,,,,5,harmonic,1.7,nw,z,,,,,,,
,,,,,,,,,,,,001,2023-11-08_12h37.07.738,vowel_harmony,2023.2.3,Win32,59.88741167,696.8046,697.7827,,,,,,,,,,,,,,,,,,,,,,,,,,697.7827,698.4207,z,1,0.6006,,698.4208,698.4209,,0,343,343,231,1,232,norgun,,,,,6,harmonic,1.75,nw,z,,,,,,,
,,,,,,,,,,,,001,2023-11-08_12h37.07.738,vowel_harmony,2023.2.3,Win32,59.88741167,698.4214,699.4158,,,,,,,,,,,,,,,,,,,,,,,,,,699.4158,699.9438,z,1,0.4902,,699.9439,699.944,,0,344,344,342,1,343,kulön,,,,,5,notharmonic,1.9,nw,z,,,,,,,
,,,,,,,,,,,,001,2023-11-08_12h37.07.738,vowel_harmony,2023.2.3,Win32,59.88741167,699.9445,700.9307,,,,,,,,,,,,,,,,,,,,,,,,,,700.9307,701.4784,z,1,0.5205,,701.4784,701.4785,,0,345,345,324,1,325,pakeh,,,,,5,notharmonic,1.9,nw,z,,,,,,,
,,,,,,,,,,,,001,2023-11-08_12h37.07.738,vowel_harmony,2023.2.3,Win32,59.88741167,701.4788,702.4802,,,,,,,,,,,,,,,,,,,,,,,,,,702.4803,703.1961,m,1,0.6757,,703.1962,703.1965,,0,346,346,40,1,41,tepki,1695,77.0141,1578,0.1725,5,harmonic,1.55,word,m,,,,,,,
,,,,,,,,,,,,001,2023-11-08_12h37.07.738,vowel_harmony,2023.2.3,Win32,59.88741167,703.1968,704.2008,,,,,,,,,,,,,,,,,,,,,,,,,,704.2008,705.2513,m,0,1.0254,,705.2514,705.2516,,0,347,347,358,1,359,yangin,,,,,6,notharmonic,1.9,nw,z,,,,,,,
,,,,,,,,,,,,001,2023-11-08_12h37.07.738,vowel_harmony,2023.2.3,Win32,59.88741167,705.252,706.256,,,,,,,,,,,,,,,,,,,,,,,,,,706.256,707.1086,m,1,0.8308,,707.1086,707.1089,,0,348,348,121,1,122,mesaj,1604,72.8794,1386,0.1515,5,notharmonic,1.8,word,m,,,,,,,
,,,,,,,,,,,,001,2023-11-08_12h37.07.738,vowel_harmony,2023.2.3,Win32,59.88741167,707.1095,708.1147,,,,,,,,,,,,,,,,,,,,,,,,,,708.1147,708.6436,m,1,0.489,,708.6437,708.6439,,0,349,349,88,1,89,yalnız,5891,267.6637,5440,0.5947,6,harmonic,1.6,word,m,,,,,,,
,,,,,,,,,,,,001,2023-11-08_12h37.07.738,vowel_harmony,2023.2.3,Win32,59.88741167,708.6444,709.6286,,,,,,,,,,,,,,,,,,,,,,,,,,709.6286,710.2319,m,1,0.5611,,710.232,710.2321,,0,350,350,84,1,85,ülke,3121,141.8059,2801,0.3062,4,harmonic,1.65,word,m,,,,,,,
,,,,,,,,,,,,001,2023-11-08_12h37.07.738,vowel_harmony,2023.2.3,Win32,59.88741167,710.2326,711.239,,,,,,,,,,,,,,,,,,,,,,,,,,711.239,711.8651,z,1,0.5923,,711.8652,711.8655,,0,351,351,185,1,186,örtin,,,,,5,harmonic,1.9,nw,z,,,,,,,
,,,,,,,,,,,,001,2023-11-08_12h37.07.738,vowel_harmony,2023.2.3,Win32,59.88741167,711.866,712.8645,,,,,,,,,,,,,,,,,,,,,,,,,,712.8645,713.6312,z,1,0.7271,,713.6312,713.6314,,0,352,352,350,1,351,resun,,,,,5,notharmonic,1.85,nw,z,,,,,,,
,,,,,,,,,,,,001,2023-11-08_12h37.07.738,vowel_harmony,2023.2.3,Win32,59.88741167,713.632,714.6275,,,,,,,,,,,,,,,,,,,,,,,,,,714.6276,715.25,z,1,0.5794,,715.2501,715.2505,,0,353,353,217,1,218,sanfız,,,,,6,harmonic,1.85,nw,z,,,,,,,
,,,,,,,,,,,,001,2023-11-08_12h37.07.738,vowel_harmony,2023.2.3,Win32,59.88741167,715.251,716.2609,,,,,,,,,,,,,,,,,,,,,,,,,,716.261,716.8719,z,1,0.5683,,716.8719,716.8722,,0,354,354,189,1,190,düvre,,,,,5,harmonic,1.85,nw,z,,,,,,,
,,,,,,,,,,,,001,2023-11-08_12h37.07.738,vowel_harmony,2023.2.3,Win32,59.88741167,716.8725,717.8622,,,,,,,,,,,,,,,,,,,,,,,,,,717.8622,718.4565,m,1,0.5533,,718.4566,718.4566,,0,355,355,107,1,108,merak,5806,263.8016,5524,0.6039,5,notharmonic,1.65,word,m,,,,,,,
,,,,,,,,,,,,001,2023-11-08_12h37.07.738,vowel_harmony,2023.2.3,Win32,59.88741167,718.457,719.4623,,,,,,,,,,,,,,,,,,,,,,,,,,719.4623,720.1886,z,1,0.6978,,720.1887,720.1888,,0,356,356,258,1,259,karıha,,,,,6,harmonic,1.75,nw,z,,,,,,,
,,,,,,,,,,,,001,2023-11-08_12h37.07.738,vowel_harmony,2023.2.3,Win32,59.88741167,720.1893,721.1797,,,,,,,,,,,,,,,,,,,,,,,,,,721.1798,721.842,z,1,0.6347,,721.8421,721.8422,,0,357,357,278,1,279,sekon,,,,,5,notharmonic,1.85,nw,z,,,,,,,
,,,,,,,,,,,,001,2023-11-08_12h37.07.738,vowel_harmony,2023.2.3,Win32,59.88741167,721.8426,722.8374,,,,,,,,,,,,,,,,,,,,,,,,,,722.8374,723.5082,z,1,0.638,,723.5083,723.5083,,0,358,358,220,1,221,denbi,,,,,5,harmonic,1.75,nw,z,,,,,,,
,,,,,,,,,,,,001,2023-11-08_12h37.07.738,vowel_harmony,2023.2.3,Win32,59.88741167,723.5089,724.4922,,,,,,,,,,,,,,,,,,,,,,,,,,724.4922,725.1263,m,1,0.6063,,725.1263,725.1263,,0,359,359,44,1,45,kayıt,1234,56.0681,1058,0.1157,5,harmonic,1.35,word,m,,,,,,,
,,,,,,,,,,,,001,2023-11-08_12h37.07.738,vowel_harmony,2023.2.3,Win32,59.88741167,,,,,,,,,,,,,,,,,,,,,,,,,,,,,,,,,,,,,,,,,,,,,,,,,,,,,,,725.1272,726.7509,space,1.5963,