Welcome_screen.started,Welcome_screen.stopped,key_respwelcome.keys,key_respwelcome.rt,key_respwelcome.duration,intro_x.thisRepN,intro_x.thisTrialN,intro_x.thisN,intro_x.thisIndex,intro_x.ran,Introduction,participant,session,date,expName,psychopyVersion,OS,frameRate,Fixation.started,Fixation.stopped,Studypractice.started,Studypractice.stopped,key_respstudy.keys,key_respstudy.corr,key_respstudy.rt,key_respstudy.duration,rt,corr,Feedback.started,Feedback.stopped,practice_loop.thisRepN,practice_loop.thisTrialN,practice_loop.thisN,practice_loop.thisIndex,practice_loop.ran,item_nr_p,target_p,isHarmonic_p,target_cond_p,CorrAns_p,Instraction.started,Instraction.stopped,key_respınstraction.keys,key_respınstraction.rt,key_respınstraction.duration,TestTrial.started,TestTrial.stopped,key_respTest.keys,key_respTest.corr,key_respTest.rt,key_respTest.duration,Pause.started,Pause.stopped,key_resp_xx.keys,test_loop.thisRepN,test_loop.thisTrialN,test_loop.thisN,test_loop.thisIndex,test_loop.ran,item_nr,target,BlogFreq_A1,BlogFreqpm_A1,BlogCD_A1,BlogCDPc_A1,WordLength_A1,isHarmonic_A1,old20,target_cond,CorrAns,key_resp_xx.rt,key_resp_xx.duration,Goodbye_screen.started,Goodbye_screen.stopped,key_respgoodbye.keys,key_respgoodbye.rt,key_respgoodbye.duration
0.019,1.8372,space,1.799,,0,0,0,0,1,"Deneye hoş geldiniz,

Devam etmek için BOŞLUK tuşuna basınız.",,001,2023-11-08_21h25.16.755,vowel_harmony,2023.2.3,MacIntel,60.0024001,,,,,,,,,,,,,,,,,,,,,,,,,,,,,,,,,,,,,,,,,,,,,,,,,,,,,,,,,,,
1.8379,11.1074,space,9.2395,,0,1,1,1,1,"Bu çalışma Valencia Üniversitesi kapsamında yürütülmektedir. Deneydeki göreviniz, ekrana çıkacak Türkçe sözcüklerin kelime olup olmadığını belirlemenizdir. Eğer sözcük gerçek bir kelime ise ""m"" tuşuna, değil ise ""z"" tuşuna basınız.   

Devam etmek için BOŞLUK tuşuna basınız.",,001,2023-11-08_21h25.16.755,vowel_harmony,2023.2.3,MacIntel,60.0024001,,,,,,,,,,,,,,,,,,,,,,,,,,,,,,,,,,,,,,,,,,,,,,,,,,,,,,,,,,,
11.108,18.6905,space,7.5523,,0,2,2,2,1,"Her sözcük için en fazla iki saniyede cevap vermeniz beklenmektedir. Aksi takdirde deney bir sonraki sözcük ile devam eder. 
Bu çalışmada oldukça hızlı ve doğru cevaplama yapmanız beklenmektedir.

Devam etmek için BOŞLUK tuşuna basınız.",,001,2023-11-08_21h25.16.755,vowel_harmony,2023.2.3,MacIntel,60.0024001,,,,,,,,,,,,,,,,,,,,,,,,,,,,,,,,,,,,,,,,,,,,,,,,,,,,,,,,,,,
18.6913,26.9895,space,8.2757,,0,3,3,3,1,"Çalışmaya başlamadan önce ufak bir pratik yer almaktadır.
Kelimedir: ""m""
Kelime değildir: ""z""

Pratik teste başlamak için BOŞLUK tuşuna basınız. ",,001,2023-11-08_21h25.16.755,vowel_harmony,2023.2.3,MacIntel,60.0024001,,,,,,,,,,,,,,,,,,,,,,,,,,,,,,,,,,,,,,,,,,,,,,,,,,,,,,,,,,,
,,,,,,,,,,,,001,2023-11-08_21h25.16.755,vowel_harmony,2023.2.3,MacIntel,60.0024001,27.0109,27.9905,27.9908,28.1732,z,0,0.1547,,0.1547,0,28.1736,29.6746,0,0,0,5,1,6,bahçe,notharmonic,word,m,,,,,,,,,,,,,,,,,,,,,,,,,,,,,,,,,,,,,
,,,,,,,,,,,,001,2023-11-08_21h25.16.755,vowel_harmony,2023.2.3,MacIntel,60.0024001,29.6758,30.6769,30.677,31.7934,m,0,1.097,,1.097,0,31.7935,33.2946,0,1,1,14,1,15,pimer,harmonic,nw,z,,,,,,,,,,,,,,,,,,,,,,,,,,,,,,,,,,,,,
,,,,,,,,,,,,001,2023-11-08_21h25.16.755,vowel_harmony,2023.2.3,MacIntel,60.0024001,33.2956,34.2943,34.2944,35.2467,m,0,0.9298,,0.9298,0,35.2468,36.744,0,2,2,15,1,16,mımal,harmonic,nw,z,,,,,,,,,,,,,,,,,,,,,,,,,,,,,,,,,,,,,
,,,,,,,,,,,,001,2023-11-08_21h25.16.755,vowel_harmony,2023.2.3,MacIntel,60.0024001,36.7452,37.7465,37.7465,38.4111,m,1,0.6498,,0.6498,1,38.4112,39.9089,0,3,3,6,1,7,pilot,notharmonic,word,m,,,,,,,,,,,,,,,,,,,,,,,,,,,,,,,,,,,,,
,,,,,,,,,,,,001,2023-11-08_21h25.16.755,vowel_harmony,2023.2.3,MacIntel,60.0024001,39.9093,40.9127,40.9128,41.3524,m,1,0.4307,,0.4307,1,41.3524,42.8456,0,4,4,7,1,8,oran,harmonic,word,m,,,,,,,,,,,,,,,,,,,,,,,,,,,,,,,,,,,,,
,,,,,,,,,,,,001,2023-11-08_21h25.16.755,vowel_harmony,2023.2.3,MacIntel,60.0024001,42.8462,43.8468,43.8469,44.3951,m,0,0.5353,,0.5353,0,44.3954,45.8968,0,5,5,8,1,9,tahip,notharmonic,nw,z,,,,,,,,,,,,,,,,,,,,,,,,,,,,,,,,,,,,,
,,,,,,,,,,,,001,2023-11-08_21h25.16.755,vowel_harmony,2023.2.3,MacIntel,60.0024001,45.8979,46.8972,46.8972,47.6465,m,1,0.7265,,0.7265,1,47.6468,49.1473,0,6,6,0,1,1,ihale,notharmonic,word,m,,,,,,,,,,,,,,,,,,,,,,,,,,,,,,,,,,,,,
,,,,,,,,,,,,001,2023-11-08_21h25.16.755,vowel_harmony,2023.2.3,MacIntel,60.0024001,49.1478,50.147,50.147,51.001,z,1,0.8386,,0.8386,1,51.001,52.4995,0,7,7,12,1,13,ihlot,notharmonic,nw,z,,,,,,,,,,,,,,,,,,,,,,,,,,,,,,,,,,,,,
,,,,,,,,,,,,001,2023-11-08_21h25.16.755,vowel_harmony,2023.2.3,MacIntel,60.0024001,52.5004,53.5006,53.5008,54.1678,m,1,0.6463,,0.6463,1,54.1679,55.6669,0,8,8,4,1,5,mimar,notharmonic,word,m,,,,,,,,,,,,,,,,,,,,,,,,,,,,,,,,,,,,,
,,,,,,,,,,,,001,2023-11-08_21h25.16.755,vowel_harmony,2023.2.3,MacIntel,60.0024001,55.6677,56.6672,56.6672,57.902,z,1,1.2138,,1.2138,1,57.9021,59.4007,0,9,9,13,1,14,pilar,notharmonic,nw,z,,,,,,,,,,,,,,,,,,,,,,,,,,,,,,,,,,,,,
,,,,,,,,,,,,001,2023-11-08_21h25.16.755,vowel_harmony,2023.2.3,MacIntel,60.0024001,59.4016,60.3937,60.3938,61.0952,z,1,0.6802,,0.6802,1,61.0953,62.593,0,10,10,11,1,12,geki,harmonic,nw,z,,,,,,,,,,,,,,,,,,,,,,,,,,,,,,,,,,,,,
,,,,,,,,,,,,001,2023-11-08_21h25.16.755,vowel_harmony,2023.2.3,MacIntel,60.0024001,62.5935,63.5955,63.5955,64.381,m,1,0.7755,,0.7755,1,64.381,65.8769,0,11,11,2,1,3,memur,notharmonic,word,m,,,,,,,,,,,,,,,,,,,,,,,,,,,,,,,,,,,,,
,,,,,,,,,,,,001,2023-11-08_21h25.16.755,vowel_harmony,2023.2.3,MacIntel,60.0024001,65.8773,66.8781,66.8782,67.6454,z,1,0.7513,,0.7513,1,67.6454,69.1449,0,12,12,10,1,11,mahne,notharmonic,nw,z,,,,,,,,,,,,,,,,,,,,,,,,,,,,,,,,,,,,,
,,,,,,,,,,,,001,2023-11-08_21h25.16.755,vowel_harmony,2023.2.3,MacIntel,60.0024001,69.1456,70.1436,70.1438,70.9625,z,1,0.8022,,0.8022,1,70.9626,72.4628,0,13,13,9,1,10,orat,harmonic,nw,z,,,,,,,,,,,,,,,,,,,,,,,,,,,,,,,,,,,,,
,,,,,,,,,,,,001,2023-11-08_21h25.16.755,vowel_harmony,2023.2.3,MacIntel,60.0024001,72.4638,73.4633,73.4634,74.1628,m,1,0.6791,,0.6791,1,74.1629,75.6632,0,14,14,3,1,4,ihlal,notharmonic,word,m,,,,,,,,,,,,,,,,,,,,,,,,,,,,,,,,,,,,,
,,,,,,,,,,,,001,2023-11-08_21h25.16.755,vowel_harmony,2023.2.3,MacIntel,60.0024001,75.6637,76.6624,76.6624,77.3793,m,1,0.6974,,0.6974,1,77.3793,78.8793,0,15,15,1,1,2,veri,harmonic,word,m,,,,,,,,,,,,,,,,,,,,,,,,,,,,,,,,,,,,,
,,,,,,,,,,,,001,2023-11-08_21h25.16.755,vowel_harmony,2023.2.3,MacIntel,60.0024001,,,,,,,,,,,,,,,,,,,,,,,78.8799,86.1107,space,7.2101,,,,,,,,,,,,,,,,,,,,,,,,,,,,,,,,,
,,,,,,,,,,,,001,2023-11-08_21h25.16.755,vowel_harmony,2023.2.3,MacIntel,60.0024001,86.1818,87.1262,,,,,,,,,,,,,,,,,,,,,,,,,,87.1265,87.71,z,1,0.5617,,87.7101,87.712,,0,0,0,191,1,192,doab,,,,,4,harmonic,2,nw,z,,,,,,,
,,,,,,,,,,,,001,2023-11-08_21h25.16.755,vowel_harmony,2023.2.3,MacIntel,60.0024001,87.7124,88.709,,,,,,,,,,,,,,,,,,,,,,,,,,88.7091,89.2605,z,1,0.531,,89.2605,89.2606,,0,1,1,331,1,332,ehun,,,,,4,notharmonic,1.95,nw,z,,,,,,,
,,,,,,,,,,,,001,2023-11-08_21h25.16.755,vowel_harmony,2023.2.3,MacIntel,60.0024001,89.2611,90.2604,,,,,,,,,,,,,,,,,,,,,,,,,,90.2604,90.7146,m,1,0.4299,,90.7146,90.7147,,0,2,2,64,1,65,lise,888,40.3472,816,0.0892,4,harmonic,1.5,word,m,,,,,,,
,,,,,,,,,,,,001,2023-11-08_21h25.16.755,vowel_harmony,2023.2.3,MacIntel,60.0024001,90.7153,91.7099,,,,,,,,,,,,,,,,,,,,,,,,,,91.7099,92.2437,m,1,0.5216,,92.2439,92.2439,,0,3,3,90,1,91,tarif,2834,128.7657,2611,0.2854,5,notharmonic,1.5,word,m,,,,,,,
,,,,,,,,,,,,001,2023-11-08_21h25.16.755,vowel_harmony,2023.2.3,MacIntel,60.0024001,92.2446,93.2446,,,,,,,,,,,,,,,,,,,,,,,,,,93.2447,93.8451,z,1,0.5803,,93.8452,93.8454,,0,4,4,198,1,199,yarbız,,,,,6,harmonic,1.95,nw,z,,,,,,,
,,,,,,,,,,,,001,2023-11-08_21h25.16.755,vowel_harmony,2023.2.3,MacIntel,60.0024001,93.8461,94.8432,,,,,,,,,,,,,,,,,,,,,,,,,,94.8432,95.2101,m,0,0.3473,,95.2105,95.2109,,0,5,5,357,1,358,işarek,,,,,6,notharmonic,1.95,nw,z,,,,,,,
,,,,,,,,,,,,001,2023-11-08_21h25.16.755,vowel_harmony,2023.2.3,MacIntel,60.0024001,95.2115,96.2097,,,,,,,,,,,,,,,,,,,,,,,,,,96.2099,97.0283,m,1,0.805,,97.0283,97.0285,,0,6,6,41,1,42,zengin,2193,99.6412,2015,0.2203,6,harmonic,1.65,word,m,,,,,,,
,,,,,,,,,,,,001,2023-11-08_21h25.16.755,vowel_harmony,2023.2.3,MacIntel,60.0024001,97.029,98.027,,,,,,,,,,,,,,,,,,,,,,,,,,98.0272,98.5613,z,1,0.5135,,98.5614,98.5618,,0,7,7,260,1,261,yarlam,,,,,6,harmonic,1.75,nw,z,,,,,,,
,,,,,,,,,,,,001,2023-11-08_21h25.16.755,vowel_harmony,2023.2.3,MacIntel,60.0024001,98.5627,99.5598,,,,,,,,,,,,,,,,,,,,,,,,,,99.5598,100.0424,z,1,0.4715,,100.0425,100.0426,,0,8,8,342,1,343,kulön,,,,,5,notharmonic,1.9,nw,z,,,,,,,
,,,,,,,,,,,,001,2023-11-08_21h25.16.755,vowel_harmony,2023.2.3,MacIntel,60.0024001,100.0432,101.0366,,,,,,,,,,,,,,,,,,,,,,,,,,101.0366,101.5695,m,1,0.5193,,101.5695,101.5697,,0,9,9,68,1,69,ücret,734,33.35,634,0.0693,5,harmonic,1.85,word,m,,,,,,,
,,,,,,,,,,,,001,2023-11-08_21h25.16.755,vowel_harmony,2023.2.3,MacIntel,60.0024001,101.5703,102.5696,,,,,,,,,,,,,,,,,,,,,,,,,,102.5697,103.1696,z,1,0.5878,,103.1696,103.1697,,0,10,10,313,1,314,ikas,,,,,4,notharmonic,1.85,nw,z,,,,,,,
,,,,,,,,,,,,001,2023-11-08_21h25.16.755,vowel_harmony,2023.2.3,MacIntel,60.0024001,103.1702,104.1697,,,,,,,,,,,,,,,,,,,,,,,,,,104.1697,104.7879,m,1,0.5949,,104.7881,104.7884,,0,11,11,10,1,11,bardak,1728,78.5135,1569,0.1715,6,harmonic,1.6,word,m,,,,,,,
,,,,,,,,,,,,001,2023-11-08_21h25.16.755,vowel_harmony,2023.2.3,MacIntel,60.0024001,104.7891,105.7878,,,,,,,,,,,,,,,,,,,,,,,,,,105.7879,106.3379,z,1,0.5289,,106.338,106.3382,,0,12,12,210,1,211,şevci,,,,,5,harmonic,1.75,nw,z,,,,,,,
,,,,,,,,,,,,001,2023-11-08_21h25.16.755,vowel_harmony,2023.2.3,MacIntel,60.0024001,106.3389,107.3378,,,,,,,,,,,,,,,,,,,,,,,,,,107.3379,107.9196,m,1,0.5656,,107.9197,107.9197,,0,13,13,63,1,64,sultan,1756,79.7857,1368,0.1496,6,harmonic,1.55,word,m,,,,,,,
,,,,,,,,,,,,001,2023-11-08_21h25.16.755,vowel_harmony,2023.2.3,MacIntel,60.0024001,107.9202,108.92,,,,,,,,,,,,,,,,,,,,,,,,,,108.9201,109.5997,m,1,0.6666,,109.5998,109.5999,,0,14,14,33,1,34,moda,1381,62.7472,1231,0.1346,4,harmonic,1.55,word,m,,,,,,,
,,,,,,,,,,,,001,2023-11-08_21h25.16.755,vowel_harmony,2023.2.3,MacIntel,60.0024001,109.6003,110.589,,,,,,,,,,,,,,,,,,,,,,,,,,110.5891,111.2055,z,1,0.5999,,111.2056,111.2059,,0,15,15,252,1,253,anlgı,,,,,5,harmonic,1.9,nw,z,,,,,,,
,,,,,,,,,,,,001,2023-11-08_21h25.16.755,vowel_harmony,2023.2.3,MacIntel,60.0024001,111.2065,112.2058,,,,,,,,,,,,,,,,,,,,,,,,,,112.2058,112.8725,m,1,0.6468,,112.8725,112.8727,,0,16,16,124,1,125,ilan,1579,71.7435,1499,0.1639,4,notharmonic,1,word,m,,,,,,,
,,,,,,,,,,,,001,2023-11-08_21h25.16.755,vowel_harmony,2023.2.3,MacIntel,60.0024001,112.8729,113.8713,,,,,,,,,,,,,,,,,,,,,,,,,,113.8713,114.6057,z,1,0.711,,114.6057,114.6058,,0,17,17,340,1,341,minya,,,,,5,notharmonic,1.95,nw,z,,,,,,,
,,,,,,,,,,,,001,2023-11-08_21h25.16.755,vowel_harmony,2023.2.3,MacIntel,60.0024001,114.6064,115.6051,,,,,,,,,,,,,,,,,,,,,,,,,,115.6051,115.9474,m,0,0.3303,,115.9475,115.9475,,0,18,18,184,1,185,yapor,,,,,5,harmonic,1.9,nw,z,,,,,,,
,,,,,,,,,,,,001,2023-11-08_21h25.16.755,vowel_harmony,2023.2.3,MacIntel,60.0024001,115.9482,116.9421,,,,,,,,,,,,,,,,,,,,,,,,,,116.9422,117.5748,z,1,0.587,,117.5748,117.5749,,0,19,19,259,1,260,hayuk,,,,,5,harmonic,1.95,nw,z,,,,,,,
,,,,,,,,,,,,001,2023-11-08_21h25.16.755,vowel_harmony,2023.2.3,MacIntel,60.0024001,117.5754,118.5744,,,,,,,,,,,,,,,,,,,,,,,,,,118.5744,119.139,m,1,0.5507,,119.139,119.1391,,0,20,20,121,1,122,mesaj,1604,72.8794,1386,0.1515,5,notharmonic,1.8,word,m,,,,,,,
,,,,,,,,,,,,001,2023-11-08_21h25.16.755,vowel_harmony,2023.2.3,MacIntel,60.0024001,119.1397,120.1383,,,,,,,,,,,,,,,,,,,,,,,,,,120.1384,120.7279,z,1,0.5678,,120.728,120.7282,,0,21,21,199,1,200,movu,,,,,4,harmonic,1.9,nw,z,,,,,,,
,,,,,,,,,,,,001,2023-11-08_21h25.16.755,vowel_harmony,2023.2.3,MacIntel,60.0024001,120.7288,121.7253,,,,,,,,,,,,,,,,,,,,,,,,,,121.7253,122.676,z,1,0.9365,,122.676,122.6772,,0,22,22,280,1,281,adalek,,,,,6,notharmonic,1.85,nw,z,,,,,,,
,,,,,,,,,,,,001,2023-11-08_21h25.16.755,vowel_harmony,2023.2.3,MacIntel,60.0024001,122.6776,123.6756,,,,,,,,,,,,,,,,,,,,,,,,,,123.6757,124.3267,z,1,0.6294,,124.3267,124.3269,,0,23,23,217,1,218,sanfız,,,,,6,harmonic,1.85,nw,z,,,,,,,
,,,,,,,,,,,,001,2023-11-08_21h25.16.755,vowel_harmony,2023.2.3,MacIntel,60.0024001,124.3276,125.3265,,,,,,,,,,,,,,,,,,,,,,,,,,125.3265,126.3086,z,1,0.9622,,126.3088,126.3089,,0,24,24,186,1,187,habık,,,,,5,harmonic,1.9,nw,z,,,,,,,
,,,,,,,,,,,,001,2023-11-08_21h25.16.755,vowel_harmony,2023.2.3,MacIntel,60.0024001,126.3094,127.3091,,,,,,,,,,,,,,,,,,,,,,,,,,127.3091,127.9087,z,1,0.5846,,127.9088,127.9089,,0,25,25,349,1,350,harten,,,,,6,notharmonic,1.85,nw,z,,,,,,,
,,,,,,,,,,,,001,2023-11-08_21h25.16.755,vowel_harmony,2023.2.3,MacIntel,60.0024001,127.9093,128.9103,,,,,,,,,,,,,,,,,,,,,,,,,,128.9104,129.8767,z,1,0.9465,,129.8768,129.877,,0,26,26,352,1,353,yılden,,,,,6,notharmonic,1.8,nw,z,,,,,,,
,,,,,,,,,,,,001,2023-11-08_21h25.16.755,vowel_harmony,2023.2.3,MacIntel,60.0024001,129.8777,130.8778,,,,,,,,,,,,,,,,,,,,,,,,,,130.8778,131.4617,z,1,0.5663,,131.4618,131.4619,,0,27,27,344,1,345,barika,,,,,6,notharmonic,1.75,nw,z,,,,,,,
,,,,,,,,,,,,001,2023-11-08_21h25.16.755,vowel_harmony,2023.2.3,MacIntel,60.0024001,131.4624,132.4612,,,,,,,,,,,,,,,,,,,,,,,,,,132.4612,133.1124,m,1,0.6378,,133.1125,133.1125,,0,28,28,106,1,107,esnaf,315,14.3124,284,0.031,5,notharmonic,1.55,word,m,,,,,,,
,,,,,,,,,,,,001,2023-11-08_21h25.16.755,vowel_harmony,2023.2.3,MacIntel,60.0024001,133.1129,134.1114,,,,,,,,,,,,,,,,,,,,,,,,,,134.1114,134.6753,m,1,0.5535,,134.6754,134.6755,,0,29,29,45,1,46,bilgi,5981,271.7529,5353,0.5852,5,harmonic,1.5,word,m,,,,,,,
,,,,,,,,,,,,001,2023-11-08_21h25.16.755,vowel_harmony,2023.2.3,MacIntel,60.0024001,134.6759,135.6782,,,,,,,,,,,,,,,,,,,,,,,,,,135.6783,136.2126,m,1,0.5206,,136.2127,136.2127,,0,30,30,49,1,50,şeker,4708,213.9128,4170,0.4559,5,harmonic,1.6,word,m,,,,,,,
,,,,,,,,,,,,001,2023-11-08_21h25.16.755,vowel_harmony,2023.2.3,MacIntel,60.0024001,136.2132,137.2126,,,,,,,,,,,,,,,,,,,,,,,,,,137.2127,137.8269,z,1,0.5995,,137.827,137.8272,,0,31,31,258,1,259,karıha,,,,,6,harmonic,1.75,nw,z,,,,,,,
,,,,,,,,,,,,001,2023-11-08_21h25.16.755,vowel_harmony,2023.2.3,MacIntel,60.0024001,137.8276,138.8271,,,,,,,,,,,,,,,,,,,,,,,,,,138.8272,139.4884,z,1,0.6483,,139.4884,139.4885,,0,32,32,267,1,268,nokuma,,,,,6,harmonic,1.75,nw,z,,,,,,,
,,,,,,,,,,,,001,2023-11-08_21h25.16.755,vowel_harmony,2023.2.3,MacIntel,60.0024001,139.4889,140.4769,,,,,,,,,,,,,,,,,,,,,,,,,,140.477,141.0967,z,1,0.5879,,141.0968,141.0968,,0,33,33,257,1,258,zerü,,,,,4,harmonic,1.8,nw,z,,,,,,,
,,,,,,,,,,,,001,2023-11-08_21h25.16.755,vowel_harmony,2023.2.3,MacIntel,60.0024001,141.0971,142.1003,,,,,,,,,,,,,,,,,,,,,,,,,,142.1003,142.6956,m,1,0.5744,,142.6956,142.6957,,0,34,34,78,1,79,ulusal,1551,70.4713,1355,0.1481,6,harmonic,1.75,word,m,,,,,,,
,,,,,,,,,,,,001,2023-11-08_21h25.16.755,vowel_harmony,2023.2.3,MacIntel,60.0024001,142.6961,143.6966,,,,,,,,,,,,,,,,,,,,,,,,,,143.6966,144.3954,m,0,0.6753,,144.3955,144.3957,,0,35,35,281,1,282,afel,,,,,4,notharmonic,1.8,nw,z,,,,,,,
,,,,,,,,,,,,001,2023-11-08_21h25.16.755,vowel_harmony,2023.2.3,MacIntel,60.0024001,144.3962,145.3963,,,,,,,,,,,,,,,,,,,,,,,,,,145.3964,145.9637,z,1,0.5454,,145.9637,145.9639,,0,36,36,190,1,191,reklen,,,,,6,harmonic,1.8,nw,z,,,,,,,
,,,,,,,,,,,,001,2023-11-08_21h25.16.755,vowel_harmony,2023.2.3,MacIntel,60.0024001,145.9642,146.9622,,,,,,,,,,,,,,,,,,,,,,,,,,146.9622,147.5281,m,1,0.5493,,147.5282,147.5283,,0,37,37,140,1,141,sahil,481,21.8547,443,0.0484,5,notharmonic,1.45,word,m,,,,,,,
,,,,,,,,,,,,001,2023-11-08_21h25.16.755,vowel_harmony,2023.2.3,MacIntel,60.0024001,147.5286,148.528,,,,,,,,,,,,,,,,,,,,,,,,,,148.5281,149.0469,z,1,0.4989,,149.0469,149.0471,,0,38,38,285,1,286,iklon,,,,,5,notharmonic,1.85,nw,z,,,,,,,
,,,,,,,,,,,,001,2023-11-08_21h25.16.755,vowel_harmony,2023.2.3,MacIntel,60.0024001,149.0477,150.0457,,,,,,,,,,,,,,,,,,,,,,,,,,150.0458,150.7395,z,1,0.6757,,150.7395,150.7395,,0,39,39,321,1,322,makih,,,,,5,notharmonic,1.8,nw,z,,,,,,,
,,,,,,,,,,,,001,2023-11-08_21h25.16.755,vowel_harmony,2023.2.3,MacIntel,60.0024001,150.7399,151.7401,,,,,,,,,,,,,,,,,,,,,,,,,,151.7402,153.2062,m,1,1.4497,,153.2063,153.2064,,0,40,40,53,1,54,gelir,7578,344.3143,7014,0.7668,5,harmonic,1.4,word,m,,,,,,,
,,,,,,,,,,,,001,2023-11-08_21h25.16.755,vowel_harmony,2023.2.3,MacIntel,60.0024001,153.2067,154.2075,,,,,,,,,,,,,,,,,,,,,,,,,,154.2075,154.8397,m,1,0.6197,,154.8398,154.8398,,0,41,41,113,1,114,model,1200,54.5232,1082,0.1183,5,notharmonic,1.75,word,m,,,,,,,
,,,,,,,,,,,,001,2023-11-08_21h25.16.755,vowel_harmony,2023.2.3,MacIntel,60.0024001,154.8402,155.8391,,,,,,,,,,,,,,,,,,,,,,,,,,155.8391,156.4734,m,1,0.6125,,156.4734,156.4736,,0,42,42,1,1,2,erkek,6188,281.1582,5195,0.5679,5,harmonic,1.65,word,m,,,,,,,
,,,,,,,,,,,,001,2023-11-08_21h25.16.755,vowel_harmony,2023.2.3,MacIntel,60.0024001,156.474,157.4742,,,,,,,,,,,,,,,,,,,,,,,,,,157.4742,158.2244,m,1,0.7352,,158.2245,158.2245,,0,43,43,52,1,53,resim,2506,113.8627,2188,0.2392,5,harmonic,1.4,word,m,,,,,,,
,,,,,,,,,,,,001,2023-11-08_21h25.16.755,vowel_harmony,2023.2.3,MacIntel,60.0024001,158.2251,159.2241,,,,,,,,,,,,,,,,,,,,,,,,,,159.2243,159.9239,z,1,0.6798,,159.924,159.9242,,0,44,44,218,1,219,tezöl,,,,,5,harmonic,2,nw,z,,,,,,,
,,,,,,,,,,,,001,2023-11-08_21h25.16.755,vowel_harmony,2023.2.3,MacIntel,60.0024001,159.9247,160.9303,,,,,,,,,,,,,,,,,,,,,,,,,,160.9304,162.0103,z,0,1.0627,,162.0103,162.0104,,0,45,45,176,1,177,harika,4682,212.7315,4422,0.4834,6,notharmonic,1.9,word,m,,,,,,,
,,,,,,,,,,,,001,2023-11-08_21h25.16.755,vowel_harmony,2023.2.3,MacIntel,60.0024001,162.0114,163.0108,,,,,,,,,,,,,,,,,,,,,,,,,,163.0109,163.6595,m,1,0.6341,,163.6595,163.6597,,0,46,46,154,1,155,sakin,1855,84.2838,1635,0.1787,5,notharmonic,1.05,word,m,,,,,,,
,,,,,,,,,,,,001,2023-11-08_21h25.16.755,vowel_harmony,2023.2.3,MacIntel,60.0024001,163.6601,164.6604,,,,,,,,,,,,,,,,,,,,,,,,,,164.6605,165.6926,z,1,1.0191,,165.6927,165.6927,,0,47,47,216,1,217,çeyret,,,,,6,harmonic,1.9,nw,z,,,,,,,
,,,,,,,,,,,,001,2023-11-08_21h25.16.755,vowel_harmony,2023.2.3,MacIntel,60.0024001,165.6931,166.6933,,,,,,,,,,,,,,,,,,,,,,,,,,166.6934,167.3945,z,1,0.6813,,167.3946,167.3946,,0,48,48,188,1,189,tonık,,,,,5,harmonic,1.85,nw,z,,,,,,,
,,,,,,,,,,,,001,2023-11-08_21h25.16.755,vowel_harmony,2023.2.3,MacIntel,60.0024001,167.3949,168.3922,,,,,,,,,,,,,,,,,,,,,,,,,,168.3923,169.1085,m,1,0.6987,,169.1086,169.1086,,0,49,49,108,1,109,tarih,2806,127.4935,2483,0.2714,5,notharmonic,1.55,word,m,,,,,,,
,,,,,,,,,,,,001,2023-11-08_21h25.16.755,vowel_harmony,2023.2.3,MacIntel,60.0024001,169.109,170.1043,,,,,,,,,,,,,,,,,,,,,,,,,,170.1043,170.6726,m,1,0.545,,170.6726,170.6728,,0,50,50,66,1,67,sanık,768,34.8949,699,0.0764,5,harmonic,1.85,word,m,,,,,,,
,,,,,,,,,,,,001,2023-11-08_21h25.16.755,vowel_harmony,2023.2.3,MacIntel,60.0024001,170.6732,171.6645,,,,,,,,,,,,,,,,,,,,,,,,,,171.6645,172.2476,m,1,0.5626,,172.2478,172.2479,,0,51,51,146,1,147,mavi,2206,100.2319,1934,0.2114,4,notharmonic,1.45,word,m,,,,,,,
,,,,,,,,,,,,001,2023-11-08_21h25.16.755,vowel_harmony,2023.2.3,MacIntel,60.0024001,172.2486,173.2471,,,,,,,,,,,,,,,,,,,,,,,,,,173.2472,173.8144,m,1,0.551,,173.8145,173.8145,,0,52,52,153,1,154,inşaat,432,19.6284,376,0.0411,6,notharmonic,1.6,word,m,,,,,,,
,,,,,,,,,,,,001,2023-11-08_21h25.16.755,vowel_harmony,2023.2.3,MacIntel,60.0024001,173.815,174.8136,,,,,,,,,,,,,,,,,,,,,,,,,,174.8138,175.3475,m,1,0.5144,,175.3477,175.3478,,0,53,53,94,1,95,final,876,39.802,778,0.0851,5,notharmonic,1,word,m,,,,,,,
,,,,,,,,,,,,001,2023-11-08_21h25.16.755,vowel_harmony,2023.2.3,MacIntel,60.0024001,175.3486,176.3469,,,,,,,,,,,,,,,,,,,,,,,,,,176.347,176.7975,m,1,0.4283,,176.7976,176.7977,,0,54,54,98,1,99,paket,1532,69.608,1392,0.1522,5,notharmonic,1.55,word,m,,,,,,,
,,,,,,,,,,,,001,2023-11-08_21h25.16.755,vowel_harmony,2023.2.3,MacIntel,60.0024001,176.7986,177.7978,,,,,,,,,,,,,,,,,,,,,,,,,,177.7978,178.2359,m,1,0.4156,,178.236,178.2361,,0,55,55,7,1,8,hizmet,3023,137.3531,2689,0.294,6,harmonic,1.75,word,m,,,,,,,
,,,,,,,,,,,,001,2023-11-08_21h25.16.755,vowel_harmony,2023.2.3,MacIntel,60.0024001,178.2364,179.2311,,,,,,,,,,,,,,,,,,,,,,,,,,179.2312,179.6594,m,1,0.4145,,179.6595,179.6599,,0,56,56,150,1,151,sabit,1046,47.5261,915,0.1,5,notharmonic,1.75,word,m,,,,,,,
,,,,,,,,,,,,001,2023-11-08_21h25.16.755,vowel_harmony,2023.2.3,MacIntel,60.0024001,179.6606,180.6502,,,,,,,,,,,,,,,,,,,,,,,,,,180.6503,181.1496,m,1,0.477,,181.1498,181.1498,,0,57,57,77,1,78,ufak,3252,147.758,2980,0.3258,4,harmonic,1.5,word,m,,,,,,,
,,,,,,,,,,,,001,2023-11-08_21h25.16.755,vowel_harmony,2023.2.3,MacIntel,60.0024001,181.1505,182.1502,,,,,,,,,,,,,,,,,,,,,,,,,,182.1503,182.6494,m,1,0.4823,,182.6495,182.6495,,0,58,58,58,1,59,ayak,2143,97.3694,1931,0.2111,4,harmonic,1,word,m,,,,,,,
,,,,,,,,,,,,001,2023-11-08_21h25.16.755,vowel_harmony,2023.2.3,MacIntel,60.0024001,182.6501,183.6504,,,,,,,,,,,,,,,,,,,,,,,,,,183.6505,184.0832,m,0,0.4125,,184.0833,184.0836,,0,59,59,316,1,317,misaf,,,,,5,notharmonic,1.85,nw,z,,,,,,,
,,,,,,,,,,,,001,2023-11-08_21h25.16.755,vowel_harmony,2023.2.3,MacIntel,60.0024001,184.0847,185.082,,,,,,,,,,,,,,,,,,,,,,,,,,185.0821,186.0011,m,1,0.9025,,186.0011,186.0012,,0,60,60,165,1,166,gazete,1402,63.7013,1270,0.1388,6,notharmonic,1.8,word,m,,,,,,,
,,,,,,,,,,,,001,2023-11-08_21h25.16.755,vowel_harmony,2023.2.3,MacIntel,60.0024001,186.0019,187.0003,,,,,,,,,,,,,,,,,,,,,,,,,,187.0004,187.566,z,1,0.5533,,187.5661,187.5663,,0,61,61,227,1,228,zekö,,,,,4,harmonic,1.9,nw,z,,,,,,,
,,,,,,,,,,,,001,2023-11-08_21h25.16.755,vowel_harmony,2023.2.3,MacIntel,60.0024001,187.5669,188.5672,,,,,,,,,,,,,,,,,,,,,,,,,,188.5672,189.2003,z,1,0.6134,,189.2005,189.2006,,0,62,62,274,1,275,pisan,,,,,5,notharmonic,1.75,nw,z,,,,,,,
,,,,,,,,,,,,001,2023-11-08_21h25.16.755,vowel_harmony,2023.2.3,MacIntel,60.0024001,189.2013,190.2002,,,,,,,,,,,,,,,,,,,,,,,,,,190.2002,190.92,z,1,0.7012,,190.9201,190.9202,,0,63,63,192,1,193,vecö,,,,,4,harmonic,1.95,nw,z,,,,,,,
,,,,,,,,,,,,001,2023-11-08_21h25.16.755,vowel_harmony,2023.2.3,MacIntel,60.0024001,190.9214,191.9188,,,,,,,,,,,,,,,,,,,,,,,,,,191.9189,193.0374,z,1,1.0963,,193.0375,193.0376,,0,64,64,338,1,339,pardön,,,,,6,notharmonic,1.95,nw,z,,,,,,,
,,,,,,,,,,,,001,2023-11-08_21h25.16.755,vowel_harmony,2023.2.3,MacIntel,60.0024001,193.0379,194.0374,,,,,,,,,,,,,,,,,,,,,,,,,,194.0375,195.1179,m,1,1.0475,,195.118,195.118,,0,65,65,123,1,124,haber,4559,207.1429,4151,0.4538,5,notharmonic,1.85,word,m,,,,,,,
,,,,,,,,,,,,001,2023-11-08_21h25.16.755,vowel_harmony,2023.2.3,MacIntel,60.0024001,195.1184,196.1192,,,,,,,,,,,,,,,,,,,,,,,,,,196.1193,196.985,z,1,0.831,,196.9851,196.9852,,0,66,66,212,1,213,ortat,,,,,5,harmonic,1.7,nw,z,,,,,,,
,,,,,,,,,,,,001,2023-11-08_21h25.16.755,vowel_harmony,2023.2.3,MacIntel,60.0024001,196.9856,197.9782,,,,,,,,,,,,,,,,,,,,,,,,,,197.9783,198.6849,m,1,0.6872,,198.685,198.6851,,0,67,67,87,1,88,mümkün,6604,300.0596,6264,0.6848,6,harmonic,1.9,word,m,,,,,,,
,,,,,,,,,,,,001,2023-11-08_21h25.16.755,vowel_harmony,2023.2.3,MacIntel,60.0024001,198.6858,199.6857,,,,,,,,,,,,,,,,,,,,,,,,,,199.6857,200.3519,m,1,0.6511,,200.3519,200.3521,,0,68,68,34,1,35,hoca,1893,86.0104,1526,0.1668,4,harmonic,1.45,word,m,,,,,,,
,,,,,,,,,,,,001,2023-11-08_21h25.16.755,vowel_harmony,2023.2.3,MacIntel,60.0024001,200.3524,201.3544,,,,,,,,,,,,,,,,,,,,,,,,,,201.3546,201.9353,m,1,0.5656,,201.9354,201.9355,,0,69,69,44,1,45,kayıt,1234,56.0681,1058,0.1157,5,harmonic,1.35,word,m,,,,,,,
,,,,,,,,,,,,001,2023-11-08_21h25.16.755,vowel_harmony,2023.2.3,MacIntel,60.0024001,201.936,202.9357,,,,,,,,,,,,,,,,,,,,,,,,,,202.9358,203.6958,z,1,0.7469,,203.6958,203.696,,0,70,70,196,1,197,bilön,,,,,5,harmonic,1.9,nw,z,,,,,,,
,,,,,,,,,,,,001,2023-11-08_21h25.16.755,vowel_harmony,2023.2.3,MacIntel,60.0024001,203.6971,204.6859,,,,,,,,,,,,,,,,,,,,,,,,,,204.6859,206.3035,z,1,1.5939,,206.3035,206.3036,,0,71,71,261,1,262,kardok,,,,,6,harmonic,1.95,nw,z,,,,,,,
,,,,,,,,,,,,001,2023-11-08_21h25.16.755,vowel_harmony,2023.2.3,MacIntel,60.0024001,206.3042,207.3031,,,,,,,,,,,,,,,,,,,,,,,,,,207.3031,209.3033,,0,,,209.3034,209.3034,,0,72,72,246,1,247,orkın,,,,,5,harmonic,1.9,nw,z,,,,,,,
,,,,,,,,,,,,001,2023-11-08_21h25.16.755,vowel_harmony,2023.2.3,MacIntel,60.0024001,209.3221,210.3193,,,,,,,,,,,,,,,,,,,,,,,,,,210.3193,210.8404,m,1,0.501,,210.8404,210.8405,,0,73,73,88,1,89,yalnız,5891,267.6637,5440,0.5947,6,harmonic,1.6,word,m,,,,,,,
,,,,,,,,,,,,001,2023-11-08_21h25.16.755,vowel_harmony,2023.2.3,MacIntel,60.0024001,210.8408,211.8393,,,,,,,,,,,,,,,,,,,,,,,,,,211.8394,212.7556,m,1,0.8987,,212.7556,212.7557,,0,74,74,162,1,163,hariç,1267,57.5675,1233,0.1348,5,notharmonic,1.75,word,m,,,,,,,
,,,,,,,,,,,,001,2023-11-08_21h25.16.755,vowel_harmony,2023.2.3,MacIntel,60.0024001,212.7561,213.733,,,,,,,,,,,,,,,,,,,,,,,,,,213.733,214.8238,m,1,1.0562,,214.824,214.8241,,0,75,75,11,1,12,umut,1988,90.3268,1818,0.1987,4,harmonic,1.55,word,m,,,,,,,
,,,,,,,,,,,,001,2023-11-08_21h25.16.755,vowel_harmony,2023.2.3,MacIntel,60.0024001,214.8261,215.8244,,,,,,,,,,,,,,,,,,,,,,,,,,215.8245,216.6239,z,1,0.7776,,216.6239,216.6241,,0,76,76,205,1,206,kahay,,,,,5,harmonic,1.9,nw,z,,,,,,,
,,,,,,,,,,,,001,2023-11-08_21h25.16.755,vowel_harmony,2023.2.3,MacIntel,60.0024001,216.6249,217.622,,,,,,,,,,,,,,,,,,,,,,,,,,217.622,218.3104,m,1,0.6796,,218.3104,218.3104,,0,77,77,60,1,61,doğu,2105,95.6429,1823,0.1993,4,harmonic,1.05,word,m,,,,,,,
,,,,,,,,,,,,001,2023-11-08_21h25.16.755,vowel_harmony,2023.2.3,MacIntel,60.0024001,218.3109,219.2999,,,,,,,,,,,,,,,,,,,,,,,,,,219.3,220.0048,z,1,0.6676,,220.0049,220.005,,0,78,78,256,1,257,yaruza,,,,,6,harmonic,1.9,nw,z,,,,,,,
,,,,,,,,,,,,001,2023-11-08_21h25.16.755,vowel_harmony,2023.2.3,MacIntel,60.0024001,220.0055,221.0038,,,,,,,,,,,,,,,,,,,,,,,,,,221.0038,221.7909,z,1,0.755,,221.7909,221.7911,,0,79,79,336,1,337,diyam,,,,,5,notharmonic,1.85,nw,z,,,,,,,
,,,,,,,,,,,,001,2023-11-08_21h25.16.755,vowel_harmony,2023.2.3,MacIntel,60.0024001,221.7916,222.7794,,,,,,,,,,,,,,,,,,,,,,,,,,222.7795,223.645,m,1,0.8481,,223.645,223.6451,,0,80,80,142,1,143,siyasi,2909,132.1734,2445,0.2673,6,notharmonic,1.8,word,m,,,,,,,
,,,,,,,,,,,,001,2023-11-08_21h25.16.755,vowel_harmony,2023.2.3,MacIntel,60.0024001,223.6455,224.646,,,,,,,,,,,,,,,,,,,,,,,,,,224.646,225.2906,z,1,0.6201,,225.2906,225.2909,,0,81,81,322,1,323,normin,,,,,6,notharmonic,1.95,nw,z,,,,,,,
,,,,,,,,,,,,001,2023-11-08_21h25.16.755,vowel_harmony,2023.2.3,MacIntel,60.0024001,225.2915,226.2906,,,,,,,,,,,,,,,,,,,,,,,,,,226.2906,227.1738,z,1,0.8647,,227.1739,227.174,,0,82,82,213,1,214,kaun,,,,,4,harmonic,1.7,nw,z,,,,,,,
,,,,,,,,,,,,001,2023-11-08_21h25.16.755,vowel_harmony,2023.2.3,MacIntel,60.0024001,227.1744,228.1727,,,,,,,,,,,,,,,,,,,,,,,,,,228.1727,228.99,m,1,0.8053,,228.99,228.9901,,0,83,83,93,1,94,siyah,2944,133.7637,2527,0.2763,5,notharmonic,1.6,word,m,,,,,,,
,,,,,,,,,,,,001,2023-11-08_21h25.16.755,vowel_harmony,2023.2.3,MacIntel,60.0024001,228.9905,229.9907,,,,,,,,,,,,,,,,,,,,,,,,,,229.9907,231.0025,m,1,1.0014,,231.0025,231.0029,,0,84,84,61,1,62,yıldız,1775,80.649,1532,0.1675,6,harmonic,1.6,word,m,,,,,,,
,,,,,,,,,,,,001,2023-11-08_21h25.16.755,vowel_harmony,2023.2.3,MacIntel,60.0024001,231.0034,231.999,,,,,,,,,,,,,,,,,,,,,,,,,,231.9992,232.698,z,1,0.6866,,232.6981,232.6993,,0,85,85,306,1,307,otet,,,,,4,notharmonic,1.95,nw,z,,,,,,,
,,,,,,,,,,,,001,2023-11-08_21h25.16.755,vowel_harmony,2023.2.3,MacIntel,60.0024001,232.6996,233.6994,,,,,,,,,,,,,,,,,,,,,,,,,,233.6994,234.2644,m,1,0.5519,,234.2645,234.2646,,0,86,86,112,1,113,sezon,2315,105.1844,1917,0.2096,5,notharmonic,1.8,word,m,,,,,,,
,,,,,,,,,,,,001,2023-11-08_21h25.16.755,vowel_harmony,2023.2.3,MacIntel,60.0024001,234.265,235.2692,,,,,,,,,,,,,,,,,,,,,,,,,,235.2692,236.0161,m,1,0.7066,,236.0162,236.0164,,0,87,87,109,1,110,milyon,3936,178.8362,2958,0.3234,6,notharmonic,1.75,word,m,,,,,,,
,,,,,,,,,,,,001,2023-11-08_21h25.16.755,vowel_harmony,2023.2.3,MacIntel,60.0024001,236.0168,237.0154,,,,,,,,,,,,,,,,,,,,,,,,,,237.0154,237.6359,m,1,0.602,,237.6362,237.6363,,0,88,88,21,1,22,duygu,1877,85.2834,1760,0.1924,5,harmonic,1.8,word,m,,,,,,,
,,,,,,,,,,,,001,2023-11-08_21h25.16.755,vowel_harmony,2023.2.3,MacIntel,60.0024001,237.6368,238.6193,,,,,,,,,,,,,,,,,,,,,,,,,,238.6193,239.115,m,1,0.4575,,239.115,239.1152,,0,89,89,167,1,168,adalet,1611,73.1975,1388,0.1517,6,notharmonic,1.65,word,m,,,,,,,
,,,,,,,,,,,,001,2023-11-08_21h25.16.755,vowel_harmony,2023.2.3,MacIntel,60.0024001,239.1156,240.1165,,,,,,,,,,,,,,,,,,,,,,,,,,240.1165,240.6653,z,1,0.5321,,240.6654,240.6655,,0,90,90,249,1,250,hurıt,,,,,5,harmonic,1.95,nw,z,,,,,,,
,,,,,,,,,,,,001,2023-11-08_21h25.16.755,vowel_harmony,2023.2.3,MacIntel,60.0024001,240.6662,241.6572,,,,,,,,,,,,,,,,,,,,,,,,,,241.6573,242.2904,z,1,0.6158,,242.2904,242.2905,,0,91,91,185,1,186,örtin,,,,,5,harmonic,1.9,nw,z,,,,,,,
,,,,,,,,,,,,001,2023-11-08_21h25.16.755,vowel_harmony,2023.2.3,MacIntel,60.0024001,242.2911,243.2902,,,,,,,,,,,,,,,,,,,,,,,,,,243.2903,244.1097,m,1,0.7996,,244.1098,244.1099,,0,92,92,107,1,108,merak,5806,263.8016,5524,0.6039,5,notharmonic,1.65,word,m,,,,,,,
,,,,,,,,,,,,001,2023-11-08_21h25.16.755,vowel_harmony,2023.2.3,MacIntel,60.0024001,244.1104,245.1078,,,,,,,,,,,,,,,,,,,,,,,,,,245.1079,245.7914,z,1,0.6702,,245.7915,245.7916,,0,93,93,211,1,212,yarum,,,,,5,harmonic,1.75,nw,z,,,,,,,
,,,,,,,,,,,,001,2023-11-08_21h25.16.755,vowel_harmony,2023.2.3,MacIntel,60.0024001,245.7922,246.7909,,,,,,,,,,,,,,,,,,,,,,,,,,246.7909,247.5396,z,1,0.7284,,247.5397,247.5399,,0,94,94,293,1,294,esnan,,,,,5,notharmonic,1.85,nw,z,,,,,,,
,,,,,,,,,,,,001,2023-11-08_21h25.16.755,vowel_harmony,2023.2.3,MacIntel,60.0024001,247.5404,248.5408,,,,,,,,,,,,,,,,,,,,,,,,,,248.5408,249.0736,m,1,0.5199,,249.0737,249.0737,,0,95,95,32,1,33,temel,4231,192.2399,3851,0.421,5,harmonic,1.55,word,m,,,,,,,
,,,,,,,,,,,,001,2023-11-08_21h25.16.755,vowel_harmony,2023.2.3,MacIntel,60.0024001,249.0742,250.0729,,,,,,,,,,,,,,,,,,,,,,,,,,250.073,250.757,m,1,0.6633,,250.757,250.7571,,0,96,96,159,1,160,vakit,3476,157.9357,3298,0.3605,5,notharmonic,1.65,word,m,,,,,,,
,,,,,,,,,,,,001,2023-11-08_21h25.16.755,vowel_harmony,2023.2.3,MacIntel,60.0024001,250.7577,251.75,,,,,,,,,,,,,,,,,,,,,,,,,,251.7501,252.4324,m,1,0.665,,252.4325,252.4326,,0,97,97,9,1,10,karar,8108,368.3954,7436,0.8129,5,harmonic,1.6,word,m,,,,,,,
,,,,,,,,,,,,001,2023-11-08_21h25.16.755,vowel_harmony,2023.2.3,MacIntel,60.0024001,252.433,253.4355,,,,,,,,,,,,,,,,,,,,,,,,,,253.4356,254.1653,z,1,0.7085,,254.1655,254.1656,,0,98,98,300,1,301,nilgi,,,,,5,notharmonic,1.85,nw,z,,,,,,,
,,,,,,,,,,,,001,2023-11-08_21h25.16.755,vowel_harmony,2023.2.3,MacIntel,60.0024001,254.1662,255.1665,,,,,,,,,,,,,,,,,,,,,,,,,,255.1666,255.8326,z,1,0.6482,,255.8326,255.8326,,0,99,99,279,1,280,tadde,,,,,5,notharmonic,1.8,nw,z,,,,,,,
,,,,,,,,,,,,001,2023-11-08_21h25.16.755,vowel_harmony,2023.2.3,MacIntel,60.0024001,255.8331,256.8328,,,,,,,,,,,,,,,,,,,,,,,,,,256.8328,257.4505,z,1,0.595,,257.4505,257.4507,,0,100,100,229,1,230,tonam,,,,,5,harmonic,1.8,nw,z,,,,,,,
,,,,,,,,,,,,001,2023-11-08_21h25.16.755,vowel_harmony,2023.2.3,MacIntel,60.0024001,257.4516,258.4503,,,,,,,,,,,,,,,,,,,,,,,,,,258.4503,259.0521,m,1,0.5774,,259.0521,259.0523,,0,101,101,16,1,17,yavaş,5087,231.1331,2886,0.3155,5,harmonic,1.6,word,m,,,,,,,
,,,,,,,,,,,,001,2023-11-08_21h25.16.755,vowel_harmony,2023.2.3,MacIntel,60.0024001,259.0528,260.0495,,,,,,,,,,,,,,,,,,,,,,,,,,260.0495,260.9351,m,1,0.8668,,260.9352,260.9354,,0,102,102,158,1,159,klasik,1871,85.0108,1734,0.1896,6,notharmonic,2,word,m,,,,,,,
,,,,,,,,,,,,001,2023-11-08_21h25.16.755,vowel_harmony,2023.2.3,MacIntel,60.0024001,260.9362,261.9354,,,,,,,,,,,,,,,,,,,,,,,,,,261.9355,262.5348,z,1,0.5816,,262.5349,262.535,,0,103,103,305,1,306,tamü,,,,,4,notharmonic,1.75,nw,z,,,,,,,
,,,,,,,,,,,,001,2023-11-08_21h25.16.755,vowel_harmony,2023.2.3,MacIntel,60.0024001,262.5355,263.5356,,,,,,,,,,,,,,,,,,,,,,,,,,263.5356,264.2013,z,1,0.6463,,264.2013,264.2014,,0,104,104,307,1,308,merbat,,,,,6,notharmonic,1.95,nw,z,,,,,,,
,,,,,,,,,,,,001,2023-11-08_21h25.16.755,vowel_harmony,2023.2.3,MacIntel,60.0024001,264.202,265.2003,,,,,,,,,,,,,,,,,,,,,,,,,,265.2004,265.9501,z,1,0.7314,,265.9503,265.9504,,0,105,105,297,1,298,sapet,,,,,5,notharmonic,1.85,nw,z,,,,,,,
,,,,,,,,,,,,001,2023-11-08_21h25.16.755,vowel_harmony,2023.2.3,MacIntel,60.0024001,265.9508,266.9523,,,,,,,,,,,,,,,,,,,,,,,,,,266.9523,267.4009,m,1,0.4355,,267.4009,267.401,,0,106,106,104,1,105,cevap,5232,237.7213,4822,0.5271,5,notharmonic,1.85,word,m,,,,,,,
,,,,,,,,,,,,001,2023-11-08_21h25.16.755,vowel_harmony,2023.2.3,MacIntel,60.0024001,267.4015,268.4029,,,,,,,,,,,,,,,,,,,,,,,,,,268.403,269.1661,z,1,0.7486,,269.1662,269.1662,,0,107,107,247,1,248,hafgın,,,,,6,harmonic,2,nw,z,,,,,,,
,,,,,,,,,,,,001,2023-11-08_21h25.16.755,vowel_harmony,2023.2.3,MacIntel,60.0024001,269.1666,270.1696,,,,,,,,,,,,,,,,,,,,,,,,,,270.1697,271.0526,z,1,0.8676,,271.0526,271.0528,,0,108,108,355,1,356,adül,,,,,4,notharmonic,1.85,nw,z,,,,,,,
,,,,,,,,,,,,001,2023-11-08_21h25.16.755,vowel_harmony,2023.2.3,MacIntel,60.0024001,271.0533,272.0527,,,,,,,,,,,,,,,,,,,,,,,,,,272.0528,272.9202,m,1,0.8457,,272.9202,272.9204,,0,109,109,47,1,48,kaza,740,33.6227,679,0.0742,4,harmonic,1.85,word,m,,,,,,,
,,,,,,,,,,,,001,2023-11-08_21h25.16.755,vowel_harmony,2023.2.3,MacIntel,60.0024001,272.921,273.921,,,,,,,,,,,,,,,,,,,,,,,,,,273.921,274.5254,m,1,0.5916,,274.5254,274.5255,,0,110,110,8,1,9,güven,1433,65.1098,1300,0.1421,5,harmonic,1.35,word,m,,,,,,,
,,,,,,,,,,,,001,2023-11-08_21h25.16.755,vowel_harmony,2023.2.3,MacIntel,60.0024001,274.526,275.5205,,,,,,,,,,,,,,,,,,,,,,,,,,275.5206,276.0687,m,1,0.5319,,276.0688,276.0689,,0,111,111,147,1,148,işaret,1888,85.7832,1787,0.1954,6,notharmonic,1,word,m,,,,,,,
,,,,,,,,,,,,001,2023-11-08_21h25.16.755,vowel_harmony,2023.2.3,MacIntel,60.0024001,276.0692,277.0703,,,,,,,,,,,,,,,,,,,,,,,,,,277.0703,277.8026,z,1,0.7159,,277.8026,277.8027,,0,112,112,264,1,265,vepü,,,,,4,harmonic,2,nw,z,,,,,,,
,,,,,,,,,,,,001,2023-11-08_21h25.16.755,vowel_harmony,2023.2.3,MacIntel,60.0024001,277.8031,278.8025,,,,,,,,,,,,,,,,,,,,,,,,,,278.8026,279.386,z,1,0.5648,,279.3861,279.3861,,0,113,113,353,1,354,ikno,,,,,4,notharmonic,1.95,nw,z,,,,,,,
,,,,,,,,,,,,001,2023-11-08_21h25.16.755,vowel_harmony,2023.2.3,MacIntel,60.0024001,279.3865,280.3877,,,,,,,,,,,,,,,,,,,,,,,,,,280.3878,281.911,m,1,1.5015,,281.9111,281.9112,,0,114,114,141,1,142,madde,3793,172.3389,3389,0.3705,5,notharmonic,1.7,word,m,,,,,,,
,,,,,,,,,,,,001,2023-11-08_21h25.16.755,vowel_harmony,2023.2.3,MacIntel,60.0024001,281.912,282.9123,,,,,,,,,,,,,,,,,,,,,,,,,,282.9123,283.4598,m,1,0.5348,,283.4599,283.4601,,0,115,115,178,1,179,dikkat,6230,283.0665,5888,0.6437,6,notharmonic,2.05,word,m,,,,,,,
,,,,,,,,,,,,001,2023-11-08_21h25.16.755,vowel_harmony,2023.2.3,MacIntel,60.0024001,283.4607,284.461,,,,,,,,,,,,,,,,,,,,,,,,,,284.461,285.2444,z,1,0.7619,,285.2445,285.2447,,0,116,116,314,1,315,seral,,,,,5,notharmonic,1.7,nw,z,,,,,,,
,,,,,,,,,,,,001,2023-11-08_21h25.16.755,vowel_harmony,2023.2.3,MacIntel,60.0024001,285.2453,286.2447,,,,,,,,,,,,,,,,,,,,,,,,,,286.2448,286.8277,z,1,0.5612,,286.8277,286.8278,,0,117,117,181,1,182,rapkı,,,,,5,harmonic,1.85,nw,z,,,,,,,
,,,,,,,,,,,,001,2023-11-08_21h25.16.755,vowel_harmony,2023.2.3,MacIntel,60.0024001,286.8285,287.8276,,,,,,,,,,,,,,,,,,,,,,,,,,287.8277,288.2938,m,1,0.4534,,288.2939,288.2939,,0,118,118,18,1,19,normal,4154,188.7413,3788,0.4141,6,harmonic,1.75,word,m,,,,,,,
,,,,,,,,,,,,001,2023-11-08_21h25.16.755,vowel_harmony,2023.2.3,MacIntel,60.0024001,288.2946,289.2937,,,,,,,,,,,,,,,,,,,,,,,,,,289.2937,289.8967,z,1,0.5794,,289.8968,289.8969,,0,119,119,233,1,234,devpi,,,,,5,harmonic,1.8,nw,z,,,,,,,
,,,,,,,,,,,,001,2023-11-08_21h25.16.755,vowel_harmony,2023.2.3,MacIntel,60.0024001,289.8976,290.894,,,,,,,,,,,,,,,,,,,,,,,,,,290.8941,291.8968,z,0,0.9833,,291.8968,296.3816,space,0,120,120,96,1,97,dahil,3189,144.8955,3060,0.3345,5,notharmonic,1.7,word,m,4.4664,,,,,,
,,,,,,,,,,,,001,2023-11-08_21h25.16.755,vowel_harmony,2023.2.3,MacIntel,60.0024001,296.4007,297.3982,,,,,,,,,,,,,,,,,,,,,,,,,,297.3983,297.8979,m,1,0.4712,,297.8979,297.898,,0,121,121,86,1,87,gerçek,8983,408.1519,8058,0.8809,6,harmonic,1.7,word,m,,,,,,,
,,,,,,,,,,,,001,2023-11-08_21h25.16.755,vowel_harmony,2023.2.3,MacIntel,60.0024001,297.8988,298.8982,,,,,,,,,,,,,,,,,,,,,,,,,,298.8983,299.465,m,1,0.5491,,299.4651,299.4653,,0,122,122,120,1,121,ihmal,1002,45.5269,977,0.1068,5,notharmonic,1.65,word,m,,,,,,,
,,,,,,,,,,,,001,2023-11-08_21h25.16.755,vowel_harmony,2023.2.3,MacIntel,60.0024001,299.4663,300.4417,,,,,,,,,,,,,,,,,,,,,,,,,,300.4418,301.0645,m,1,0.5912,,301.0645,301.0646,,0,123,123,135,1,136,hafif,3355,152.4379,3101,0.339,5,notharmonic,1.75,word,m,,,,,,,
,,,,,,,,,,,,001,2023-11-08_21h25.16.755,vowel_harmony,2023.2.3,MacIntel,60.0024001,301.0651,302.0648,,,,,,,,,,,,,,,,,,,,,,,,,,302.0648,302.6979,m,1,0.6137,,302.6979,302.6981,,0,124,124,85,1,86,geçmiş,4195,190.6042,4039,0.4415,6,harmonic,1.55,word,m,,,,,,,
,,,,,,,,,,,,001,2023-11-08_21h25.16.755,vowel_harmony,2023.2.3,MacIntel,60.0024001,302.6984,303.7031,,,,,,,,,,,,,,,,,,,,,,,,,,303.7033,304.404,m,1,0.6664,,304.4041,304.4042,,0,125,125,172,1,173,milyar,1496,67.9723,1078,0.1178,6,notharmonic,1.85,word,m,,,,,,,
,,,,,,,,,,,,001,2023-11-08_21h25.16.755,vowel_harmony,2023.2.3,MacIntel,60.0024001,304.4048,305.4007,,,,,,,,,,,,,,,,,,,,,,,,,,305.4008,305.9656,m,1,0.5272,,305.9656,305.9657,,0,126,126,15,1,16,hayat,7922,359.9443,7314,0.7996,5,harmonic,1.9,word,m,,,,,,,
,,,,,,,,,,,,001,2023-11-08_21h25.16.755,vowel_harmony,2023.2.3,MacIntel,60.0024001,305.9661,306.964,,,,,,,,,,,,,,,,,,,,,,,,,,306.964,307.8313,m,1,0.8552,,307.8313,307.8314,,0,127,127,164,1,165,sinema,1575,71.5618,1304,0.1426,6,notharmonic,1.8,word,m,,,,,,,
,,,,,,,,,,,,001,2023-11-08_21h25.16.755,vowel_harmony,2023.2.3,MacIntel,60.0024001,307.8321,308.8337,,,,,,,,,,,,,,,,,,,,,,,,,,308.8338,309.3144,m,1,0.4662,,309.3144,309.3145,,0,128,128,89,1,90,etki,1234,56.0681,1169,0.1278,4,harmonic,1.4,word,m,,,,,,,
,,,,,,,,,,,,001,2023-11-08_21h25.16.755,vowel_harmony,2023.2.3,MacIntel,60.0024001,309.315,310.3159,,,,,,,,,,,,,,,,,,,,,,,,,,310.316,310.9689,z,1,0.6321,,310.9689,310.969,,0,129,129,298,1,299,yelsın,,,,,6,notharmonic,1.95,nw,z,,,,,,,
,,,,,,,,,,,,001,2023-11-08_21h25.16.755,vowel_harmony,2023.2.3,MacIntel,60.0024001,310.9699,311.9671,,,,,,,,,,,,,,,,,,,,,,,,,,311.9671,312.5838,z,1,0.5996,,312.584,312.5841,,0,130,130,268,1,269,haldum,,,,,6,harmonic,2,nw,z,,,,,,,
,,,,,,,,,,,,001,2023-11-08_21h25.16.755,vowel_harmony,2023.2.3,MacIntel,60.0024001,312.5849,313.5838,,,,,,,,,,,,,,,,,,,,,,,,,,313.5838,314.5179,m,1,0.9193,,314.5179,314.5181,,0,131,131,67,1,68,bayram,1948,88.5094,1648,0.1802,6,harmonic,1.85,word,m,,,,,,,
,,,,,,,,,,,,001,2023-11-08_21h25.16.755,vowel_harmony,2023.2.3,MacIntel,60.0024001,314.5187,315.5175,,,,,,,,,,,,,,,,,,,,,,,,,,315.5176,317.5175,,0,,,317.5176,317.5177,,0,132,132,312,1,313,şahmin,,,,,6,notharmonic,1.8,nw,z,,,,,,,
,,,,,,,,,,,,001,2023-11-08_21h25.16.755,vowel_harmony,2023.2.3,MacIntel,60.0024001,317.5359,318.5361,,,,,,,,,,,,,,,,,,,,,,,,,,318.5363,319.0686,m,1,0.5129,,319.0687,319.0687,,0,133,133,105,1,106,sahip,10887,494.6621,9847,1.0765,5,notharmonic,1.25,word,m,,,,,,,
,,,,,,,,,,,,001,2023-11-08_21h25.16.755,vowel_harmony,2023.2.3,MacIntel,60.0024001,319.0691,320.0684,,,,,,,,,,,,,,,,,,,,,,,,,,320.0684,320.6665,m,1,0.5825,,320.6665,320.6667,,0,134,134,114,1,115,nisan,2321,105.457,2044,0.2235,5,notharmonic,1.6,word,m,,,,,,,
,,,,,,,,,,,,001,2023-11-08_21h25.16.755,vowel_harmony,2023.2.3,MacIntel,60.0024001,320.6671,321.6691,,,,,,,,,,,,,,,,,,,,,,,,,,321.6691,322.3687,z,1,0.6849,,322.3687,322.3688,,0,135,135,214,1,215,vecü,,,,,4,harmonic,1.95,nw,z,,,,,,,
,,,,,,,,,,,,001,2023-11-08_21h25.16.755,vowel_harmony,2023.2.3,MacIntel,60.0024001,322.369,323.369,,,,,,,,,,,,,,,,,,,,,,,,,,323.369,324.4192,z,1,1.028,,324.4193,324.4195,,0,136,136,284,1,285,deval,,,,,5,notharmonic,1.75,nw,z,,,,,,,
,,,,,,,,,,,,001,2023-11-08_21h25.16.755,vowel_harmony,2023.2.3,MacIntel,60.0024001,324.4201,325.4201,,,,,,,,,,,,,,,,,,,,,,,,,,325.4203,326.2518,z,1,0.8107,,326.2519,326.252,,0,137,137,255,1,256,yokın,,,,,5,harmonic,1.85,nw,z,,,,,,,
,,,,,,,,,,,,001,2023-11-08_21h25.16.755,vowel_harmony,2023.2.3,MacIntel,60.0024001,326.2529,327.2595,,,,,,,,,,,,,,,,,,,,,,,,,,327.2596,327.9203,z,1,0.6052,,327.9203,327.9205,,0,138,138,202,1,203,güvin,,,,,5,harmonic,1.95,nw,z,,,,,,,
,,,,,,,,,,,,001,2023-11-08_21h25.16.755,vowel_harmony,2023.2.3,MacIntel,60.0024001,327.921,328.9208,,,,,,,,,,,,,,,,,,,,,,,,,,328.9208,329.6526,m,1,0.7157,,329.6527,329.6527,,0,139,139,148,1,149,selam,1868,84.8745,1764,0.1928,5,notharmonic,1.35,word,m,,,,,,,
,,,,,,,,,,,,001,2023-11-08_21h25.16.755,vowel_harmony,2023.2.3,MacIntel,60.0024001,329.6532,330.6524,,,,,,,,,,,,,,,,,,,,,,,,,,330.6524,331.5237,z,1,0.8554,,331.5238,331.5239,,0,140,140,310,1,311,yandeş,,,,,6,notharmonic,1.95,nw,z,,,,,,,
,,,,,,,,,,,,001,2023-11-08_21h25.16.755,vowel_harmony,2023.2.3,MacIntel,60.0024001,331.5244,332.514,,,,,,,,,,,,,,,,,,,,,,,,,,332.5141,333.1442,z,1,0.6162,,333.1443,333.1444,,0,141,141,250,1,251,kakuk,,,,,5,harmonic,1.9,nw,z,,,,,,,
,,,,,,,,,,,,001,2023-11-08_21h25.16.755,vowel_harmony,2023.2.3,MacIntel,60.0024001,333.1447,334.1447,,,,,,,,,,,,,,,,,,,,,,,,,,334.1448,334.7629,m,1,0.595,,334.763,334.7632,,0,142,142,81,1,82,üretim,1593,72.3796,1283,0.1403,6,harmonic,1.6,word,m,,,,,,,
,,,,,,,,,,,,001,2023-11-08_21h25.16.755,vowel_harmony,2023.2.3,MacIntel,60.0024001,334.7639,335.763,,,,,,,,,,,,,,,,,,,,,,,,,,335.763,336.6445,z,1,0.863,,336.6446,336.6446,,0,143,143,308,1,309,hafer,,,,,5,notharmonic,1.85,nw,z,,,,,,,
,,,,,,,,,,,,001,2023-11-08_21h25.16.755,vowel_harmony,2023.2.3,MacIntel,60.0024001,336.6451,337.646,,,,,,,,,,,,,,,,,,,,,,,,,,337.646,338.2947,z,1,0.6356,,338.2947,338.2948,,0,144,144,330,1,331,vahçe,,,,,5,notharmonic,1.9,nw,z,,,,,,,
,,,,,,,,,,,,001,2023-11-08_21h25.16.755,vowel_harmony,2023.2.3,MacIntel,60.0024001,338.2957,339.2949,,,,,,,,,,,,,,,,,,,,,,,,,,339.295,339.7786,m,1,0.4613,,339.7787,339.7789,,0,145,145,168,1,169,kilo,3389,153.9827,2646,0.2893,4,notharmonic,1.65,word,m,,,,,,,
,,,,,,,,,,,,001,2023-11-08_21h25.16.755,vowel_harmony,2023.2.3,MacIntel,60.0024001,339.7795,340.7798,,,,,,,,,,,,,,,,,,,,,,,,,,340.7799,341.3003,z,1,0.5009,,341.3004,341.3005,,0,146,146,328,1,329,kirul,,,,,5,notharmonic,1.95,nw,z,,,,,,,
,,,,,,,,,,,,001,2023-11-08_21h25.16.755,vowel_harmony,2023.2.3,MacIntel,60.0024001,341.3011,342.3002,,,,,,,,,,,,,,,,,,,,,,,,,,342.3003,342.9323,z,1,0.6164,,342.9324,342.9325,,0,147,147,262,1,263,sauk,,,,,4,harmonic,1.85,nw,z,,,,,,,
,,,,,,,,,,,,001,2023-11-08_21h25.16.755,vowel_harmony,2023.2.3,MacIntel,60.0024001,342.933,343.9327,,,,,,,,,,,,,,,,,,,,,,,,,,343.9328,344.5018,z,1,0.5453,,344.5018,344.502,,0,148,148,183,1,184,orkın,,,,,5,harmonic,1.9,nw,z,,,,,,,
,,,,,,,,,,,,001,2023-11-08_21h25.16.755,vowel_harmony,2023.2.3,MacIntel,60.0024001,344.5027,345.5003,,,,,,,,,,,,,,,,,,,,,,,,,,345.5005,345.9498,m,1,0.4249,,345.9498,345.9498,,0,149,149,149,1,150,ceza,2611,118.6335,2169,0.2371,4,notharmonic,1.5,word,m,,,,,,,
,,,,,,,,,,,,001,2023-11-08_21h25.16.755,vowel_harmony,2023.2.3,MacIntel,60.0024001,345.9502,346.9504,,,,,,,,,,,,,,,,,,,,,,,,,,346.9505,347.4837,m,1,0.5207,,347.4838,347.4839,,0,150,150,79,1,80,durum,6783,308.1926,6431,0.703,5,harmonic,1.7,word,m,,,,,,,
,,,,,,,,,,,,001,2023-11-08_21h25.16.755,vowel_harmony,2023.2.3,MacIntel,60.0024001,347.4847,348.4836,,,,,,,,,,,,,,,,,,,,,,,,,,348.4837,349.0358,m,1,0.5328,,349.036,349.0361,,0,151,151,119,1,120,kulüp,649,29.488,467,0.0511,5,notharmonic,1.4,word,m,,,,,,,
,,,,,,,,,,,,001,2023-11-08_21h25.16.755,vowel_harmony,2023.2.3,MacIntel,60.0024001,349.0366,350.034,,,,,,,,,,,,,,,,,,,,,,,,,,350.0341,350.7177,m,1,0.6605,,350.7177,350.7178,,0,152,152,50,1,51,kanun,1198,54.4324,1010,0.1104,5,harmonic,1.6,word,m,,,,,,,
,,,,,,,,,,,,001,2023-11-08_21h25.16.755,vowel_harmony,2023.2.3,MacIntel,60.0024001,350.7187,351.7189,,,,,,,,,,,,,,,,,,,,,,,,,,351.719,352.2872,z,1,0.5494,,352.2873,352.2874,,0,153,153,291,1,292,mepan,,,,,5,notharmonic,1.75,nw,z,,,,,,,
,,,,,,,,,,,,001,2023-11-08_21h25.16.755,vowel_harmony,2023.2.3,MacIntel,60.0024001,352.288,353.2777,,,,,,,,,,,,,,,,,,,,,,,,,,353.2777,354.2879,z,1,0.9476,,354.288,354.2881,,0,154,154,271,1,272,mimal,,,,,5,notharmonic,1.8,nw,z,,,,,,,
,,,,,,,,,,,,001,2023-11-08_21h25.16.755,vowel_harmony,2023.2.3,MacIntel,60.0024001,354.2888,355.278,,,,,,,,,,,,,,,,,,,,,,,,,,355.2781,356.1272,m,1,0.8218,,356.1272,356.1274,,0,155,155,97,1,98,mevcut,3007,136.6262,2842,0.3107,6,notharmonic,1.95,word,m,,,,,,,
,,,,,,,,,,,,001,2023-11-08_21h25.16.755,vowel_harmony,2023.2.3,MacIntel,60.0024001,356.128,357.1201,,,,,,,,,,,,,,,,,,,,,,,,,,357.1201,357.5862,m,1,0.445,,357.5862,357.5863,,0,156,156,84,1,85,ülke,3121,141.8059,2801,0.3062,4,harmonic,1.65,word,m,,,,,,,
,,,,,,,,,,,,001,2023-11-08_21h25.16.755,vowel_harmony,2023.2.3,MacIntel,60.0024001,357.5867,358.5848,,,,,,,,,,,,,,,,,,,,,,,,,,358.5849,359.1695,z,1,0.5458,,359.1695,359.1697,,0,157,157,243,1,244,korguf,,,,,6,harmonic,2,nw,z,,,,,,,
,,,,,,,,,,,,001,2023-11-08_21h25.16.755,vowel_harmony,2023.2.3,MacIntel,60.0024001,359.1701,360.1691,,,,,,,,,,,,,,,,,,,,,,,,,,360.1691,360.7029,z,1,0.521,,360.7029,360.7031,,0,158,158,341,1,342,işgan,,,,,5,notharmonic,1.95,nw,z,,,,,,,
,,,,,,,,,,,,001,2023-11-08_21h25.16.755,vowel_harmony,2023.2.3,MacIntel,60.0024001,360.7037,361.693,,,,,,,,,,,,,,,,,,,,,,,,,,361.6931,362.1574,m,1,0.4412,,362.1574,362.1575,,0,159,159,19,1,20,ödül,1063,48.2985,926,0.1012,4,harmonic,1.7,word,m,,,,,,,
,,,,,,,,,,,,001,2023-11-08_21h25.16.755,vowel_harmony,2023.2.3,MacIntel,60.0024001,362.1579,363.1581,,,,,,,,,,,,,,,,,,,,,,,,,,363.1581,363.6093,m,1,0.4258,,363.6093,363.6095,,0,160,160,42,1,43,ürün,2268,103.0489,1954,0.2136,4,harmonic,1.1,word,m,,,,,,,
,,,,,,,,,,,,001,2023-11-08_21h25.16.755,vowel_harmony,2023.2.3,MacIntel,60.0024001,363.6102,364.6088,,,,,,,,,,,,,,,,,,,,,,,,,,364.6088,365.1922,z,1,0.571,,365.1923,365.1924,,0,161,161,263,1,264,duzur,,,,,5,harmonic,1.8,nw,z,,,,,,,
,,,,,,,,,,,,001,2023-11-08_21h25.16.755,vowel_harmony,2023.2.3,MacIntel,60.0024001,365.1931,366.1932,,,,,,,,,,,,,,,,,,,,,,,,,,366.1932,366.8241,m,1,0.6117,,366.8241,366.8243,,0,162,162,118,1,119,meşhur,1092,49.6161,1057,0.1156,6,notharmonic,1.9,word,m,,,,,,,
,,,,,,,,,,,,001,2023-11-08_21h25.16.755,vowel_harmony,2023.2.3,MacIntel,60.0024001,366.8249,367.8262,,,,,,,,,,,,,,,,,,,,,,,,,,367.8263,368.4939,z,1,0.6487,,368.4939,368.4943,,0,163,163,207,1,208,örtre,,,,,5,harmonic,1.85,nw,z,,,,,,,
,,,,,,,,,,,,001,2023-11-08_21h25.16.755,vowel_harmony,2023.2.3,MacIntel,60.0024001,368.495,369.4917,,,,,,,,,,,,,,,,,,,,,,,,,,369.4918,370.1841,z,1,0.6595,,370.1841,370.1842,,0,164,164,337,1,338,bakem,,,,,5,notharmonic,1.7,nw,z,,,,,,,
,,,,,,,,,,,,001,2023-11-08_21h25.16.755,vowel_harmony,2023.2.3,MacIntel,60.0024001,370.1845,371.1817,,,,,,,,,,,,,,,,,,,,,,,,,,371.1818,371.7504,z,1,0.5476,,371.7505,371.7507,,0,165,165,266,1,267,düştön,,,,,6,harmonic,1.9,nw,z,,,,,,,
,,,,,,,,,,,,001,2023-11-08_21h25.16.755,vowel_harmony,2023.2.3,MacIntel,60.0024001,371.7514,372.7503,,,,,,,,,,,,,,,,,,,,,,,,,,372.7504,373.4005,z,1,0.6318,,373.4006,373.4008,,0,166,166,348,1,349,aife,,,,,4,notharmonic,1.75,nw,z,,,,,,,
,,,,,,,,,,,,001,2023-11-08_21h25.16.755,vowel_harmony,2023.2.3,MacIntel,60.0024001,373.4013,374.4005,,,,,,,,,,,,,,,,,,,,,,,,,,374.4007,374.8508,m,1,0.4235,,374.8509,374.8512,,0,167,167,12,1,13,konu,5400,245.3546,5110,0.5586,4,harmonic,1,word,m,,,,,,,
,,,,,,,,,,,,001,2023-11-08_21h25.16.755,vowel_harmony,2023.2.3,MacIntel,60.0024001,374.8518,375.8505,,,,,,,,,,,,,,,,,,,,,,,,,,375.8506,376.5164,z,1,0.6423,,376.5165,376.5168,,0,168,168,200,1,201,duşın,,,,,5,harmonic,1.9,nw,z,,,,,,,
,,,,,,,,,,,,001,2023-11-08_21h25.16.755,vowel_harmony,2023.2.3,MacIntel,60.0024001,376.5175,377.5173,,,,,,,,,,,,,,,,,,,,,,,,,,377.5174,378.0354,m,1,0.4941,,378.0357,378.0358,,0,169,169,151,1,152,ateş,2108,95.7792,1803,0.1971,4,notharmonic,1.65,word,m,,,,,,,
,,,,,,,,,,,,001,2023-11-08_21h25.16.755,vowel_harmony,2023.2.3,MacIntel,60.0024001,378.0364,379.0546,,,,,,,,,,,,,,,,,,,,,,,,,,379.0547,379.6154,z,1,0.5192,,379.6154,379.6156,,0,170,170,242,1,243,kahon,,,,,5,harmonic,1.85,nw,z,,,,,,,
,,,,,,,,,,,,001,2023-11-08_21h25.16.755,vowel_harmony,2023.2.3,MacIntel,60.0024001,379.616,380.6164,,,,,,,,,,,,,,,,,,,,,,,,,,380.6165,381.175,z,1,0.5434,,381.175,381.1752,,0,171,171,329,1,330,taif,,,,,4,notharmonic,1.8,nw,z,,,,,,,
,,,,,,,,,,,,001,2023-11-08_21h25.16.755,vowel_harmony,2023.2.3,MacIntel,60.0024001,381.1757,382.1754,,,,,,,,,,,,,,,,,,,,,,,,,,382.1755,382.6751,m,1,0.4808,,382.6751,382.6753,,0,172,172,30,1,31,çevre,1662,75.5147,1409,0.154,5,harmonic,1.55,word,m,,,,,,,
,,,,,,,,,,,,001,2023-11-08_21h25.16.755,vowel_harmony,2023.2.3,MacIntel,60.0024001,382.6757,383.6734,,,,,,,,,,,,,,,,,,,,,,,,,,383.6734,384.2076,m,1,0.4847,,384.2077,384.2077,,0,173,173,132,1,133,modern,2326,105.6842,2031,0.222,6,notharmonic,1.85,word,m,,,,,,,
,,,,,,,,,,,,001,2023-11-08_21h25.16.755,vowel_harmony,2023.2.3,MacIntel,60.0024001,384.2083,385.2091,,,,,,,,,,,,,,,,,,,,,,,,,,385.2091,385.7085,m,1,0.479,,385.7085,385.7086,,0,174,174,26,1,27,sebze,1094,49.707,961,0.1051,5,harmonic,1.9,word,m,,,,,,,
,,,,,,,,,,,,001,2023-11-08_21h25.16.755,vowel_harmony,2023.2.3,MacIntel,60.0024001,385.709,386.7079,,,,,,,,,,,,,,,,,,,,,,,,,,386.7079,387.2577,z,1,0.5335,,387.2578,387.2579,,0,175,175,180,1,181,ayaro,,,,,5,harmonic,1.8,nw,z,,,,,,,
,,,,,,,,,,,,001,2023-11-08_21h25.16.755,vowel_harmony,2023.2.3,MacIntel,60.0024001,387.2586,388.2565,,,,,,,,,,,,,,,,,,,,,,,,,,388.2565,388.7524,z,0,0.4829,,388.7524,388.7525,,0,176,176,131,1,132,hakim,1677,76.1962,1559,0.1704,5,notharmonic,1,word,m,,,,,,,
,,,,,,,,,,,,001,2023-11-08_21h25.16.755,vowel_harmony,2023.2.3,MacIntel,60.0024001,388.7532,389.7414,,,,,,,,,,,,,,,,,,,,,,,,,,389.7415,390.2419,m,0,0.4785,,390.242,390.2422,,0,177,177,182,1,183,orsın,,,,,5,harmonic,1.95,nw,z,,,,,,,
,,,,,,,,,,,,001,2023-11-08_21h25.16.755,vowel_harmony,2023.2.3,MacIntel,60.0024001,390.2427,391.2308,,,,,,,,,,,,,,,,,,,,,,,,,,391.2309,391.8332,z,1,0.5825,,391.8332,391.8334,,0,178,178,269,1,270,vekü,,,,,4,harmonic,2,nw,z,,,,,,,
,,,,,,,,,,,,001,2023-11-08_21h25.16.755,vowel_harmony,2023.2.3,MacIntel,60.0024001,391.8339,392.8307,,,,,,,,,,,,,,,,,,,,,,,,,,392.8308,393.498,m,1,0.6547,,393.4981,393.4982,,0,179,179,69,1,70,forma,719,32.6685,597,0.0653,5,harmonic,1.8,word,m,,,,,,,
,,,,,,,,,,,,001,2023-11-08_21h25.16.755,vowel_harmony,2023.2.3,MacIntel,60.0024001,393.4987,394.5005,,,,,,,,,,,,,,,,,,,,,,,,,,394.5005,395.1998,z,1,0.6831,,395.1998,395.1999,,0,180,180,253,1,254,meslet,,,,,6,harmonic,1.85,nw,z,,,,,,,
,,,,,,,,,,,,001,2023-11-08_21h25.16.755,vowel_harmony,2023.2.3,MacIntel,60.0024001,395.2004,396.1983,,,,,,,,,,,,,,,,,,,,,,,,,,396.1983,396.7638,z,1,0.5448,,396.764,396.7641,,0,181,181,317,1,318,mevul,,,,,5,notharmonic,1.95,nw,z,,,,,,,
,,,,,,,,,,,,001,2023-11-08_21h25.16.755,vowel_harmony,2023.2.3,MacIntel,60.0024001,396.7646,397.7628,,,,,,,,,,,,,,,,,,,,,,,,,,397.7629,398.1797,m,1,0.3992,,398.1797,398.1798,,0,182,182,111,1,112,kahve,2634,119.6785,2283,0.2496,5,notharmonic,1.85,word,m,,,,,,,
,,,,,,,,,,,,001,2023-11-08_21h25.16.755,vowel_harmony,2023.2.3,MacIntel,60.0024001,398.1802,399.1813,,,,,,,,,,,,,,,,,,,,,,,,,,399.1814,399.8129,z,1,0.6118,,399.8129,399.813,,0,183,183,215,1,216,aydo,,,,,4,harmonic,1.9,nw,z,,,,,,,
,,,,,,,,,,,,001,2023-11-08_21h25.16.755,vowel_harmony,2023.2.3,MacIntel,60.0024001,399.8135,400.8151,,,,,,,,,,,,,,,,,,,,,,,,,,400.8151,401.4676,m,1,0.6356,,401.4677,401.4677,,0,184,184,138,1,139,kardeş,1270,57.7038,1174,0.1283,6,notharmonic,1.9,word,m,,,,,,,
,,,,,,,,,,,,001,2023-11-08_21h25.16.755,vowel_harmony,2023.2.3,MacIntel,60.0024001,401.4682,402.4686,,,,,,,,,,,,,,,,,,,,,,,,,,402.4687,403.0012,z,1,0.5157,,403.0012,403.0014,,0,185,185,290,1,291,aipa,,,,,4,notharmonic,1.95,nw,z,,,,,,,
,,,,,,,,,,,,001,2023-11-08_21h25.16.755,vowel_harmony,2023.2.3,MacIntel,60.0024001,403.0018,404.0019,,,,,,,,,,,,,,,,,,,,,,,,,,404.0019,404.4517,z,1,0.4369,,404.4517,404.4518,,0,186,186,319,1,320,biho,,,,,4,notharmonic,2,nw,z,,,,,,,
,,,,,,,,,,,,001,2023-11-08_21h25.16.755,vowel_harmony,2023.2.3,MacIntel,60.0024001,404.4525,405.4512,,,,,,,,,,,,,,,,,,,,,,,,,,405.4513,405.9859,m,1,0.5144,,405.986,405.9861,,0,187,187,156,1,157,medya,1784,81.0579,1495,0.1634,5,notharmonic,1.35,word,m,,,,,,,
,,,,,,,,,,,,001,2023-11-08_21h25.16.755,vowel_harmony,2023.2.3,MacIntel,60.0024001,405.9867,406.985,,,,,,,,,,,,,,,,,,,,,,,,,,406.985,407.6015,z,1,0.6036,,407.6015,407.6017,,0,188,188,351,1,352,seğlık,,,,,6,notharmonic,1.9,nw,z,,,,,,,
,,,,,,,,,,,,001,2023-11-08_21h25.16.755,vowel_harmony,2023.2.3,MacIntel,60.0024001,407.6022,408.6016,,,,,,,,,,,,,,,,,,,,,,,,,,408.6017,409.1877,z,1,0.5617,,409.1877,409.188,,0,189,189,295,1,296,haylin,,,,,6,notharmonic,1.8,nw,z,,,,,,,
,,,,,,,,,,,,001,2023-11-08_21h25.16.755,vowel_harmony,2023.2.3,MacIntel,60.0024001,409.1889,410.1838,,,,,,,,,,,,,,,,,,,,,,,,,,410.1839,410.7515,m,1,0.5504,,410.7516,410.7516,,0,190,190,29,1,30,huzur,1911,86.8283,1799,0.1967,5,harmonic,1.8,word,m,,,,,,,
,,,,,,,,,,,,001,2023-11-08_21h25.16.755,vowel_harmony,2023.2.3,MacIntel,60.0024001,410.7521,411.7544,,,,,,,,,,,,,,,,,,,,,,,,,,411.7545,412.571,m,1,0.8012,,412.571,412.5711,,0,191,191,92,1,93,sahne,1380,62.7017,1238,0.1353,5,notharmonic,1.65,word,m,,,,,,,
,,,,,,,,,,,,001,2023-11-08_21h25.16.755,vowel_harmony,2023.2.3,MacIntel,60.0024001,412.5714,413.5725,,,,,,,,,,,,,,,,,,,,,,,,,,413.5726,414.2375,m,1,0.6494,,414.2376,414.2379,,0,192,192,65,1,66,fikir,2552,115.9528,2413,0.2638,5,harmonic,1.9,word,m,,,,,,,
,,,,,,,,,,,,001,2023-11-08_21h25.16.755,vowel_harmony,2023.2.3,MacIntel,60.0024001,414.2386,415.2403,,,,,,,,,,,,,,,,,,,,,,,,,,415.2404,415.822,z,1,0.5646,,415.822,415.8223,,0,193,193,221,1,222,yaypın,,,,,6,harmonic,1.75,nw,z,,,,,,,
,,,,,,,,,,,,001,2023-11-08_21h25.16.755,vowel_harmony,2023.2.3,MacIntel,60.0024001,415.8228,416.823,,,,,,,,,,,,,,,,,,,,,,,,,,416.823,417.573,z,1,0.7302,,417.5732,417.5733,,0,194,194,324,1,325,pakeh,,,,,5,notharmonic,1.9,nw,z,,,,,,,
,,,,,,,,,,,,001,2023-11-08_21h25.16.755,vowel_harmony,2023.2.3,MacIntel,60.0024001,417.574,418.5721,,,,,,,,,,,,,,,,,,,,,,,,,,418.5722,419.1725,m,1,0.5787,,419.1726,419.1727,,0,195,195,170,1,171,basit,3385,153.801,3177,0.3473,5,notharmonic,1.65,word,m,,,,,,,
,,,,,,,,,,,,001,2023-11-08_21h25.16.755,vowel_harmony,2023.2.3,MacIntel,60.0024001,419.1733,420.1718,,,,,,,,,,,,,,,,,,,,,,,,,,420.1718,420.8374,m,1,0.6445,,420.8374,420.8374,,0,196,196,160,1,161,hakem,603,27.3979,473,0.0517,5,notharmonic,1.3,word,m,,,,,,,
,,,,,,,,,,,,001,2023-11-08_21h25.16.755,vowel_harmony,2023.2.3,MacIntel,60.0024001,420.838,421.826,,,,,,,,,,,,,,,,,,,,,,,,,,421.8261,422.2435,m,1,0.3997,,422.2435,422.2437,,0,197,197,24,1,25,yorgun,1153,52.3877,1108,0.1211,6,harmonic,1.55,word,m,,,,,,,
,,,,,,,,,,,,001,2023-11-08_21h25.16.755,vowel_harmony,2023.2.3,MacIntel,60.0024001,422.2446,423.2427,,,,,,,,,,,,,,,,,,,,,,,,,,423.2428,423.8771,z,1,0.6246,,423.8771,423.8772,,0,198,198,320,1,321,finak,,,,,5,notharmonic,1.85,nw,z,,,,,,,
,,,,,,,,,,,,001,2023-11-08_21h25.16.755,vowel_harmony,2023.2.3,MacIntel,60.0024001,423.8779,424.8773,,,,,,,,,,,,,,,,,,,,,,,,,,424.8773,425.4446,m,1,0.5468,,425.4447,425.4449,,0,199,199,75,1,76,roman,1499,68.1086,1281,0.14,5,harmonic,1.6,word,m,,,,,,,
,,,,,,,,,,,,001,2023-11-08_21h25.16.755,vowel_harmony,2023.2.3,MacIntel,60.0024001,425.4457,426.4426,,,,,,,,,,,,,,,,,,,,,,,,,,426.4426,427.0253,m,1,0.5701,,427.0253,427.0254,,0,200,200,31,1,32,fazla,18293,831.1614,16694,1.825,5,harmonic,1,word,m,,,,,,,
,,,,,,,,,,,,001,2023-11-08_21h25.16.755,vowel_harmony,2023.2.3,MacIntel,60.0024001,427.0261,428.0261,,,,,,,,,,,,,,,,,,,,,,,,,,428.0261,428.4766,m,1,0.4287,,428.4766,428.4767,,0,201,201,35,1,36,hava,4975,226.0443,4398,0.4808,4,harmonic,1,word,m,,,,,,,
,,,,,,,,,,,,001,2023-11-08_21h25.16.755,vowel_harmony,2023.2.3,MacIntel,60.0024001,428.4772,429.4779,,,,,,,,,,,,,,,,,,,,,,,,,,429.4779,429.8623,m,1,0.3603,,429.8624,429.8625,,0,202,202,163,1,164,limon,1658,75.3329,1481,0.1619,5,notharmonic,1.75,word,m,,,,,,,
,,,,,,,,,,,,001,2023-11-08_21h25.16.755,vowel_harmony,2023.2.3,MacIntel,60.0024001,429.8628,430.8581,,,,,,,,,,,,,,,,,,,,,,,,,,430.8581,431.1612,m,1,0.2835,,431.1612,431.1615,,0,203,203,13,1,14,nokta,2085,94.7341,1939,0.212,5,harmonic,1.5,word,m,,,,,,,
,,,,,,,,,,,,001,2023-11-08_21h25.16.755,vowel_harmony,2023.2.3,MacIntel,60.0024001,431.1621,432.1625,,,,,,,,,,,,,,,,,,,,,,,,,,432.1626,432.4451,m,0,0.2652,,432.4452,432.4453,,0,204,204,358,1,359,yangin,,,,,6,notharmonic,1.9,nw,z,,,,,,,
,,,,,,,,,,,,001,2023-11-08_21h25.16.755,vowel_harmony,2023.2.3,MacIntel,60.0024001,432.4458,433.4455,,,,,,,,,,,,,,,,,,,,,,,,,,433.4455,434.1782,m,1,0.7148,,434.1782,434.1785,,0,205,205,73,1,74,millet,1658,75.3329,1508,0.1649,6,harmonic,1.7,word,m,,,,,,,
,,,,,,,,,,,,001,2023-11-08_21h25.16.755,vowel_harmony,2023.2.3,MacIntel,60.0024001,434.1791,435.1769,,,,,,,,,,,,,,,,,,,,,,,,,,435.177,435.7609,z,1,0.5653,,435.761,435.7611,,0,206,206,359,1,360,kardez,,,,,6,notharmonic,1.95,nw,z,,,,,,,
,,,,,,,,,,,,001,2023-11-08_21h25.16.755,vowel_harmony,2023.2.3,MacIntel,60.0024001,435.7616,436.7627,,,,,,,,,,,,,,,,,,,,,,,,,,436.7627,437.4127,z,1,0.6274,,437.4127,437.4128,,0,207,207,350,1,351,resun,,,,,5,notharmonic,1.85,nw,z,,,,,,,
,,,,,,,,,,,,001,2023-11-08_21h25.16.755,vowel_harmony,2023.2.3,MacIntel,60.0024001,437.4137,438.411,,,,,,,,,,,,,,,,,,,,,,,,,,438.411,438.9604,z,1,0.5311,,438.9605,438.9606,,0,208,208,282,1,283,taöz,,,,,4,notharmonic,1.9,nw,z,,,,,,,
,,,,,,,,,,,,001,2023-11-08_21h25.16.755,vowel_harmony,2023.2.3,MacIntel,60.0024001,438.9611,439.9624,,,,,,,,,,,,,,,,,,,,,,,,,,439.9624,440.3942,m,1,0.4095,,440.3944,440.3945,,0,209,209,54,1,55,yedek,825,37.4847,732,0.08,5,harmonic,1.65,word,m,,,,,,,
,,,,,,,,,,,,001,2023-11-08_21h25.16.755,vowel_harmony,2023.2.3,MacIntel,60.0024001,440.395,441.3974,,,,,,,,,,,,,,,,,,,,,,,,,,441.3975,442.0646,z,1,0.6544,,442.0646,442.0647,,0,210,210,273,1,274,nimal,,,,,5,notharmonic,1.9,nw,z,,,,,,,
,,,,,,,,,,,,001,2023-11-08_21h25.16.755,vowel_harmony,2023.2.3,MacIntel,60.0024001,442.0655,443.0642,,,,,,,,,,,,,,,,,,,,,,,,,,443.0642,443.6816,z,1,0.5955,,443.6817,443.6818,,0,211,211,222,1,223,gelü,,,,,4,harmonic,1.75,nw,z,,,,,,,
,,,,,,,,,,,,001,2023-11-08_21h25.16.755,vowel_harmony,2023.2.3,MacIntel,60.0024001,443.6827,444.6809,,,,,,,,,,,,,,,,,,,,,,,,,,444.6809,445.2978,z,1,0.5963,,445.2979,445.2982,,0,212,212,339,1,340,asmel,,,,,5,notharmonic,1.95,nw,z,,,,,,,
,,,,,,,,,,,,001,2023-11-08_21h25.16.755,vowel_harmony,2023.2.3,MacIntel,60.0024001,445.2988,446.298,,,,,,,,,,,,,,,,,,,,,,,,,,446.298,446.7974,m,1,0.4801,,446.7975,446.7977,,0,213,213,72,1,73,çorba,1674,76.0599,1513,0.1654,5,harmonic,1.75,word,m,,,,,,,
,,,,,,,,,,,,001,2023-11-08_21h25.16.755,vowel_harmony,2023.2.3,MacIntel,60.0024001,446.7982,447.7982,,,,,,,,,,,,,,,,,,,,,,,,,,447.7983,448.33,z,1,0.5126,,448.33,448.3301,,0,214,214,292,1,293,kinam,,,,,5,notharmonic,1.85,nw,z,,,,,,,
,,,,,,,,,,,,001,2023-11-08_21h25.16.755,vowel_harmony,2023.2.3,MacIntel,60.0024001,448.3305,449.3302,,,,,,,,,,,,,,,,,,,,,,,,,,449.3303,449.9001,m,1,0.5448,,449.9002,449.9003,,0,215,215,101,1,102,imza,1358,61.7021,1253,0.137,4,notharmonic,1.65,word,m,,,,,,,
,,,,,,,,,,,,001,2023-11-08_21h25.16.755,vowel_harmony,2023.2.3,MacIntel,60.0024001,449.901,450.8991,,,,,,,,,,,,,,,,,,,,,,,,,,450.8993,451.4326,z,1,0.5198,,451.4327,451.4329,,0,216,216,197,1,198,ranar,,,,,5,harmonic,1.75,nw,z,,,,,,,
,,,,,,,,,,,,001,2023-11-08_21h25.16.755,vowel_harmony,2023.2.3,MacIntel,60.0024001,451.4335,452.4327,,,,,,,,,,,,,,,,,,,,,,,,,,452.4328,452.9489,z,1,0.5021,,452.949,452.9492,,0,217,217,220,1,221,denbi,,,,,5,harmonic,1.75,nw,z,,,,,,,
,,,,,,,,,,,,001,2023-11-08_21h25.16.755,vowel_harmony,2023.2.3,MacIntel,60.0024001,452.9498,453.9492,,,,,,,,,,,,,,,,,,,,,,,,,,453.9493,454.5492,m,1,0.5798,,454.5492,454.5493,,0,218,218,129,1,130,tahmin,2353,106.911,2273,0.2485,6,notharmonic,1.6,word,m,,,,,,,
,,,,,,,,,,,,001,2023-11-08_21h25.16.755,vowel_harmony,2023.2.3,MacIntel,60.0024001,454.5498,455.5502,,,,,,,,,,,,,,,,,,,,,,,,,,455.5502,456.0657,m,1,0.4962,,456.0657,456.0658,,0,219,219,128,1,129,tatil,2152,97.7783,1865,0.2039,5,notharmonic,1.7,word,m,,,,,,,
,,,,,,,,,,,,001,2023-11-08_21h25.16.755,vowel_harmony,2023.2.3,MacIntel,60.0024001,456.0663,457.0662,,,,,,,,,,,,,,,,,,,,,,,,,,457.0663,457.6056,z,1,0.528,,457.6056,457.6057,,0,220,220,325,1,326,garit,,,,,5,notharmonic,1.85,nw,z,,,,,,,
,,,,,,,,,,,,001,2023-11-08_21h25.16.755,vowel_harmony,2023.2.3,MacIntel,60.0024001,457.6062,458.5998,,,,,,,,,,,,,,,,,,,,,,,,,,458.5998,459.0666,m,1,0.4375,,459.0667,459.0667,,0,221,221,55,1,56,akıl,2208,100.3228,2004,0.2191,4,harmonic,1,word,m,,,,,,,
,,,,,,,,,,,,001,2023-11-08_21h25.16.755,vowel_harmony,2023.2.3,MacIntel,60.0024001,459.0671,460.0673,,,,,,,,,,,,,,,,,,,,,,,,,,460.0673,460.6828,z,1,0.5917,,460.6828,460.683,,0,222,222,354,1,355,taden,,,,,5,notharmonic,1.7,nw,z,,,,,,,
,,,,,,,,,,,,001,2023-11-08_21h25.16.755,vowel_harmony,2023.2.3,MacIntel,60.0024001,460.6837,461.6871,,,,,,,,,,,,,,,,,,,,,,,,,,461.6872,462.3197,z,1,0.6164,,462.3199,462.3199,,0,223,223,239,1,240,şekik,,,,,5,harmonic,1.7,nw,z,,,,,,,
,,,,,,,,,,,,001,2023-11-08_21h25.16.755,vowel_harmony,2023.2.3,MacIntel,60.0024001,462.3205,463.3206,,,,,,,,,,,,,,,,,,,,,,,,,,463.3206,464.1879,z,1,0.8456,,464.188,464.1881,,0,224,224,187,1,188,remrin,,,,,6,harmonic,1.9,nw,z,,,,,,,
,,,,,,,,,,,,001,2023-11-08_21h25.16.755,vowel_harmony,2023.2.3,MacIntel,60.0024001,464.1886,465.1871,,,,,,,,,,,,,,,,,,,,,,,,,,465.1871,465.6209,z,1,0.4131,,465.621,465.621,,0,225,225,343,1,344,tarne,,,,,5,notharmonic,1.85,nw,z,,,,,,,
,,,,,,,,,,,,001,2023-11-08_21h25.16.755,vowel_harmony,2023.2.3,MacIntel,60.0024001,465.6215,466.6214,,,,,,,,,,,,,,,,,,,,,,,,,,466.6215,467.1203,m,1,0.4764,,467.1204,467.1205,,0,226,226,143,1,144,kitap,8359,379.7998,6786,0.7418,5,notharmonic,1.9,word,m,,,,,,,
,,,,,,,,,,,,001,2023-11-08_21h25.16.755,vowel_harmony,2023.2.3,MacIntel,60.0024001,467.1211,468.121,,,,,,,,,,,,,,,,,,,,,,,,,,468.121,468.7527,z,1,0.6117,,468.7527,468.7529,,0,227,227,277,1,278,balsin,,,,,6,notharmonic,1.85,nw,z,,,,,,,
,,,,,,,,,,,,001,2023-11-08_21h25.16.755,vowel_harmony,2023.2.3,MacIntel,60.0024001,468.7534,469.7528,,,,,,,,,,,,,,,,,,,,,,,,,,469.7529,470.336,m,1,0.5685,,470.3361,470.3362,,0,228,228,28,1,29,parlak,1142,51.888,1088,0.1189,6,harmonic,1.7,word,m,,,,,,,
,,,,,,,,,,,,001,2023-11-08_21h25.16.755,vowel_harmony,2023.2.3,MacIntel,60.0024001,470.3366,471.3362,,,,,,,,,,,,,,,,,,,,,,,,,,471.3362,471.8049,m,1,0.4524,,471.805,471.8052,,0,229,229,17,1,18,yakın,7990,363.0339,7595,0.8303,5,harmonic,1.8,word,m,,,,,,,
,,,,,,,,,,,,001,2023-11-08_21h25.16.755,vowel_harmony,2023.2.3,MacIntel,60.0024001,471.8056,472.8061,,,,,,,,,,,,,,,,,,,,,,,,,,472.8062,473.4048,z,1,0.5867,,473.4049,473.405,,0,230,230,189,1,190,düvre,,,,,5,harmonic,1.85,nw,z,,,,,,,
,,,,,,,,,,,,001,2023-11-08_21h25.16.755,vowel_harmony,2023.2.3,MacIntel,60.0024001,473.4056,474.4059,,,,,,,,,,,,,,,,,,,,,,,,,,474.4059,474.906,m,1,0.4778,,474.906,474.9062,,0,231,231,70,1,71,yarın,3440,156.3,3222,0.3522,5,harmonic,1.85,word,m,,,,,,,
,,,,,,,,,,,,001,2023-11-08_21h25.16.755,vowel_harmony,2023.2.3,MacIntel,60.0024001,474.9066,475.9061,,,,,,,,,,,,,,,,,,,,,,,,,,475.9062,476.4044,z,1,0.4855,,476.4045,476.4046,,0,232,232,302,1,303,işgar,,,,,5,notharmonic,1.9,nw,z,,,,,,,
,,,,,,,,,,,,001,2023-11-08_21h25.16.755,vowel_harmony,2023.2.3,MacIntel,60.0024001,476.4052,477.4045,,,,,,,,,,,,,,,,,,,,,,,,,,477.4046,477.8715,m,1,0.4483,,477.8715,477.8716,,0,233,233,173,1,174,sade,1193,54.2052,1114,0.1218,4,notharmonic,1.55,word,m,,,,,,,
,,,,,,,,,,,,001,2023-11-08_21h25.16.755,vowel_harmony,2023.2.3,MacIntel,60.0024001,477.8721,478.8719,,,,,,,,,,,,,,,,,,,,,,,,,,478.8721,479.4058,z,0,0.5157,,479.4058,479.406,,0,234,234,139,1,140,lira,1253,56.9314,947,0.1035,4,notharmonic,1.4,word,m,,,,,,,
,,,,,,,,,,,,001,2023-11-08_21h25.16.755,vowel_harmony,2023.2.3,MacIntel,60.0024001,479.4073,480.4052,,,,,,,,,,,,,,,,,,,,,,,,,,480.4053,480.9048,m,1,0.4791,,480.9049,480.905,,0,235,235,3,1,4,minik,2916,132.4915,2594,0.2836,5,harmonic,1.6,word,m,,,,,,,
,,,,,,,,,,,,001,2023-11-08_21h25.16.755,vowel_harmony,2023.2.3,MacIntel,60.0024001,480.9053,481.9085,,,,,,,,,,,,,,,,,,,,,,,,,,481.9086,482.3421,m,1,0.4172,,482.3422,482.3424,,0,236,236,83,1,84,küçük,14048,638.2854,12467,1.3629,5,harmonic,1.75,word,m,,,,,,,
,,,,,,,,,,,,001,2023-11-08_21h25.16.755,vowel_harmony,2023.2.3,MacIntel,60.0024001,482.3432,483.3417,,,,,,,,,,,,,,,,,,,,,,,,,,483.3417,483.9076,m,1,0.5544,,483.9077,483.9079,,0,237,237,171,1,172,reklam,1565,71.1074,1244,0.136,6,notharmonic,1.9,word,m,,,,,,,
,,,,,,,,,,,,001,2023-11-08_21h25.16.755,vowel_harmony,2023.2.3,MacIntel,60.0024001,483.9083,484.9092,,,,,,,,,,,,,,,,,,,,,,,,,,484.9093,485.5414,m,1,0.6199,,485.5415,485.5416,,0,238,238,127,1,128,şahane,1153,52.3877,1108,0.1211,6,notharmonic,1.8,word,m,,,,,,,
,,,,,,,,,,,,001,2023-11-08_21h25.16.755,vowel_harmony,2023.2.3,MacIntel,60.0024001,485.5423,486.5414,,,,,,,,,,,,,,,,,,,,,,,,,,486.5415,487.0575,z,1,0.4957,,487.0577,487.0578,,0,239,239,272,1,273,daken,,,,,5,notharmonic,1.8,nw,z,,,,,,,
,,,,,,,,,,,,001,2023-11-08_21h25.16.755,vowel_harmony,2023.2.3,MacIntel,60.0024001,487.0585,488.0585,,,,,,,,,,,,,,,,,,,,,,,,,,488.0586,488.6576,z,1,0.5853,,488.6576,498.8521,space,0,240,240,254,1,255,millek,,,,,6,harmonic,1.8,nw,z,10.1819,,,,,,
,,,,,,,,,,,,001,2023-11-08_21h25.16.755,vowel_harmony,2023.2.3,MacIntel,60.0024001,498.868,499.8677,,,,,,,,,,,,,,,,,,,,,,,,,,499.8678,500.3841,m,1,0.4991,,500.3841,500.3843,,0,241,241,59,1,60,köpek,1044,47.4352,901,0.0985,5,harmonic,1.75,word,m,,,,,,,
,,,,,,,,,,,,001,2023-11-08_21h25.16.755,vowel_harmony,2023.2.3,MacIntel,60.0024001,500.3848,501.3857,,,,,,,,,,,,,,,,,,,,,,,,,,501.3857,501.9341,z,1,0.5332,,501.9341,501.9343,,0,242,242,203,1,204,döves,,,,,5,harmonic,1.8,nw,z,,,,,,,
,,,,,,,,,,,,001,2023-11-08_21h25.16.755,vowel_harmony,2023.2.3,MacIntel,60.0024001,501.9348,502.9343,,,,,,,,,,,,,,,,,,,,,,,,,,502.9344,503.5192,m,1,0.5658,,503.5193,503.5195,,0,243,243,115,1,116,saniye,1088,49.4344,984,0.1076,6,notharmonic,1.35,word,m,,,,,,,
,,,,,,,,,,,,001,2023-11-08_21h25.16.755,vowel_harmony,2023.2.3,MacIntel,60.0024001,503.5201,504.5178,,,,,,,,,,,,,,,,,,,,,,,,,,504.5179,505.1012,z,1,0.5664,,505.1013,505.1015,,0,244,244,286,1,287,cedan,,,,,5,notharmonic,1.8,nw,z,,,,,,,
,,,,,,,,,,,,001,2023-11-08_21h25.16.755,vowel_harmony,2023.2.3,MacIntel,60.0024001,505.1025,506.1011,,,,,,,,,,,,,,,,,,,,,,,,,,506.1011,506.7017,z,1,0.5834,,506.7018,506.7019,,0,245,245,332,1,333,tahane,,,,,6,notharmonic,1.85,nw,z,,,,,,,
,,,,,,,,,,,,001,2023-11-08_21h25.16.755,vowel_harmony,2023.2.3,MacIntel,60.0024001,506.7027,507.7022,,,,,,,,,,,,,,,,,,,,,,,,,,507.7023,508.2512,m,1,0.5319,,508.2513,508.2514,,0,246,246,117,1,118,nasip,1069,48.5711,1042,0.1139,5,notharmonic,1.8,word,m,,,,,,,
,,,,,,,,,,,,001,2023-11-08_21h25.16.755,vowel_harmony,2023.2.3,MacIntel,60.0024001,508.2519,509.2514,,,,,,,,,,,,,,,,,,,,,,,,,,509.2514,509.784,m,1,0.5173,,509.7841,509.7842,,0,247,247,25,1,26,rapor,703,31.9415,617,0.0675,5,harmonic,1.8,word,m,,,,,,,
,,,,,,,,,,,,001,2023-11-08_21h25.16.755,vowel_harmony,2023.2.3,MacIntel,60.0024001,509.7847,510.7843,,,,,,,,,,,,,,,,,,,,,,,,,,510.7843,511.3345,m,1,0.5331,,511.3345,511.3347,,0,248,248,14,1,15,yaşam,4348,197.5559,3918,0.4283,5,harmonic,1.4,word,m,,,,,,,
,,,,,,,,,,,,001,2023-11-08_21h25.16.755,vowel_harmony,2023.2.3,MacIntel,60.0024001,511.3353,512.3341,,,,,,,,,,,,,,,,,,,,,,,,,,512.3342,512.7338,m,1,0.3857,,512.7339,512.734,,0,249,249,161,1,162,komik,1617,73.4701,1506,0.1646,5,notharmonic,1.75,word,m,,,,,,,
,,,,,,,,,,,,001,2023-11-08_21h25.16.755,vowel_harmony,2023.2.3,MacIntel,60.0024001,512.7346,513.7375,,,,,,,,,,,,,,,,,,,,,,,,,,513.7376,514.2675,z,1,0.5146,,514.2676,514.2678,,0,250,250,206,1,207,bevek,,,,,5,harmonic,1.75,nw,z,,,,,,,
,,,,,,,,,,,,001,2023-11-08_21h25.16.755,vowel_harmony,2023.2.3,MacIntel,60.0024001,514.2683,515.2678,,,,,,,,,,,,,,,,,,,,,,,,,,515.2678,515.7519,m,1,0.4674,,515.752,515.7521,,0,251,251,36,1,37,meslek,1082,49.1618,976,0.1067,6,harmonic,1.9,word,m,,,,,,,
,,,,,,,,,,,,001,2023-11-08_21h25.16.755,vowel_harmony,2023.2.3,MacIntel,60.0024001,515.7527,516.7512,,,,,,,,,,,,,,,,,,,,,,,,,,516.7512,517.3341,z,0,0.5671,,517.3341,517.3343,,0,252,252,57,1,58,bölüm,1910,86.7828,1605,0.1755,5,harmonic,1.45,word,m,,,,,,,
,,,,,,,,,,,,001,2023-11-08_21h25.16.755,vowel_harmony,2023.2.3,MacIntel,60.0024001,517.3348,518.3344,,,,,,,,,,,,,,,,,,,,,,,,,,518.3344,518.6842,m,1,0.3331,,518.6843,518.6845,,0,253,253,39,1,40,yaygın,1061,48.2076,1019,0.1114,6,harmonic,1.35,word,m,,,,,,,
,,,,,,,,,,,,001,2023-11-08_21h25.16.755,vowel_harmony,2023.2.3,MacIntel,60.0024001,518.6853,519.6844,,,,,,,,,,,,,,,,,,,,,,,,,,519.6844,520.302,z,1,0.6051,,520.302,520.3022,,0,254,254,209,1,210,sapor,,,,,5,harmonic,1.8,nw,z,,,,,,,
,,,,,,,,,,,,001,2023-11-08_21h25.16.755,vowel_harmony,2023.2.3,MacIntel,60.0024001,520.3027,521.3023,,,,,,,,,,,,,,,,,,,,,,,,,,521.3024,521.951,z,1,0.6369,,521.9511,521.9512,,0,255,255,275,1,276,tahçe,,,,,5,notharmonic,1.95,nw,z,,,,,,,
,,,,,,,,,,,,001,2023-11-08_21h25.16.755,vowel_harmony,2023.2.3,MacIntel,60.0024001,521.952,522.951,,,,,,,,,,,,,,,,,,,,,,,,,,522.9511,523.4018,z,1,0.4333,,523.4018,523.402,,0,256,256,287,1,288,haköm,,,,,5,notharmonic,1.9,nw,z,,,,,,,
,,,,,,,,,,,,001,2023-11-08_21h25.16.755,vowel_harmony,2023.2.3,MacIntel,60.0024001,523.4024,524.4009,,,,,,,,,,,,,,,,,,,,,,,,,,524.401,524.8339,m,1,0.4156,,524.834,524.8342,,0,257,257,122,1,123,devam,17666,802.673,16284,1.7802,5,notharmonic,1.55,word,m,,,,,,,
,,,,,,,,,,,,001,2023-11-08_21h25.16.755,vowel_harmony,2023.2.3,MacIntel,60.0024001,524.8346,525.8343,,,,,,,,,,,,,,,,,,,,,,,,,,525.8344,526.3019,m,1,0.4495,,526.3019,526.302,,0,258,258,133,1,134,taze,2268,103.0489,2062,0.2254,4,notharmonic,1.65,word,m,,,,,,,
,,,,,,,,,,,,001,2023-11-08_21h25.16.755,vowel_harmony,2023.2.3,MacIntel,60.0024001,526.3028,527.3008,,,,,,,,,,,,,,,,,,,,,,,,,,527.3009,528.0033,z,1,0.6824,,528.0033,528.0034,,0,259,259,208,1,209,yayram,,,,,6,harmonic,1.85,nw,z,,,,,,,
,,,,,,,,,,,,001,2023-11-08_21h25.16.755,vowel_harmony,2023.2.3,MacIntel,60.0024001,528.0038,529.0009,,,,,,,,,,,,,,,,,,,,,,,,,,529.0011,529.4676,m,1,0.4495,,529.4676,529.4678,,0,260,260,2,1,3,radyo,763,34.6677,636,0.0695,5,harmonic,1.85,word,m,,,,,,,
,,,,,,,,,,,,001,2023-11-08_21h25.16.755,vowel_harmony,2023.2.3,MacIntel,60.0024001,529.4686,530.4676,,,,,,,,,,,,,,,,,,,,,,,,,,530.4676,530.851,z,1,0.3673,,530.851,530.8512,,0,261,261,311,1,312,dedya,,,,,5,notharmonic,1.9,nw,z,,,,,,,
,,,,,,,,,,,,001,2023-11-08_21h25.16.755,vowel_harmony,2023.2.3,MacIntel,60.0024001,530.8518,531.8526,,,,,,,,,,,,,,,,,,,,,,,,,,531.8526,532.3191,m,1,0.447,,532.3191,532.3192,,0,262,262,23,1,24,kurum,986,44.7999,882,0.0964,5,harmonic,1.75,word,m,,,,,,,
,,,,,,,,,,,,001,2023-11-08_21h25.16.755,vowel_harmony,2023.2.3,MacIntel,60.0024001,532.3198,533.3176,,,,,,,,,,,,,,,,,,,,,,,,,,533.3176,533.7676,z,0,0.4317,,533.7677,533.7679,,0,263,263,145,1,146,iddia,2430,110.4096,2295,0.2509,5,notharmonic,1.85,word,m,,,,,,,
,,,,,,,,,,,,001,2023-11-08_21h25.16.755,vowel_harmony,2023.2.3,MacIntel,60.0024001,533.7687,534.7687,,,,,,,,,,,,,,,,,,,,,,,,,,534.7687,535.1844,m,1,0.3997,,535.1845,535.1845,,0,264,264,71,1,72,örnek,3463,157.345,3266,0.357,5,harmonic,1.85,word,m,,,,,,,
,,,,,,,,,,,,001,2023-11-08_21h25.16.755,vowel_harmony,2023.2.3,MacIntel,60.0024001,535.185,536.1839,,,,,,,,,,,,,,,,,,,,,,,,,,536.184,536.684,m,1,0.4845,,536.6841,536.6843,,0,265,265,76,1,77,ilişki,1675,76.1054,1524,0.1666,6,harmonic,1.8,word,m,,,,,,,
,,,,,,,,,,,,001,2023-11-08_21h25.16.755,vowel_harmony,2023.2.3,MacIntel,60.0024001,536.6848,537.6855,,,,,,,,,,,,,,,,,,,,,,,,,,537.6856,538.3006,m,1,0.6027,,538.3007,538.3008,,0,266,266,6,1,7,hayal,4498,204.3713,4079,0.4459,5,harmonic,1.45,word,m,,,,,,,
,,,,,,,,,,,,001,2023-11-08_21h25.16.755,vowel_harmony,2023.2.3,MacIntel,60.0024001,538.3014,539.3008,,,,,,,,,,,,,,,,,,,,,,,,,,539.3009,539.8509,z,1,0.5321,,539.851,539.8512,,0,267,267,204,1,205,gerkez,,,,,6,harmonic,1.9,nw,z,,,,,,,
,,,,,,,,,,,,001,2023-11-08_21h25.16.755,vowel_harmony,2023.2.3,MacIntel,60.0024001,539.8521,540.8509,,,,,,,,,,,,,,,,,,,,,,,,,,540.8509,541.7509,z,1,0.8841,,541.751,541.7512,,0,268,268,323,1,324,devak,,,,,5,notharmonic,1.75,nw,z,,,,,,,
,,,,,,,,,,,,001,2023-11-08_21h25.16.755,vowel_harmony,2023.2.3,MacIntel,60.0024001,541.7518,542.7521,,,,,,,,,,,,,,,,,,,,,,,,,,542.7522,543.3174,m,1,0.5485,,543.3175,543.3175,,0,269,269,74,1,75,başarı,1398,63.5196,1300,0.1421,6,harmonic,1.2,word,m,,,,,,,
,,,,,,,,,,,,001,2023-11-08_21h25.16.755,vowel_harmony,2023.2.3,MacIntel,60.0024001,543.3182,544.3173,,,,,,,,,,,,,,,,,,,,,,,,,,544.3173,544.8511,z,1,0.5154,,544.8511,544.8513,,0,270,270,299,1,300,fihal,,,,,5,notharmonic,1.95,nw,z,,,,,,,
,,,,,,,,,,,,001,2023-11-08_21h25.16.755,vowel_harmony,2023.2.3,MacIntel,60.0024001,544.8518,545.8518,,,,,,,,,,,,,,,,,,,,,,,,,,545.8518,546.5342,m,1,0.6657,,546.5342,546.5344,,0,271,271,37,1,38,hayvan,2363,107.3653,1894,0.2071,6,harmonic,1.5,word,m,,,,,,,
,,,,,,,,,,,,001,2023-11-08_21h25.16.755,vowel_harmony,2023.2.3,MacIntel,60.0024001,546.5349,547.5338,,,,,,,,,,,,,,,,,,,,,,,,,,547.5338,548.301,z,1,0.7484,,548.301,548.3012,,0,272,272,231,1,232,norgun,,,,,6,harmonic,1.75,nw,z,,,,,,,
,,,,,,,,,,,,001,2023-11-08_21h25.16.755,vowel_harmony,2023.2.3,MacIntel,60.0024001,548.3022,549.3007,,,,,,,,,,,,,,,,,,,,,,,,,,549.3008,549.8505,m,1,0.5355,,549.8505,549.8507,,0,273,273,137,1,138,parti,2613,118.7244,2059,0.2251,5,notharmonic,1.8,word,m,,,,,,,
,,,,,,,,,,,,001,2023-11-08_21h25.16.755,vowel_harmony,2023.2.3,MacIntel,60.0024001,549.8512,550.8506,,,,,,,,,,,,,,,,,,,,,,,,,,550.8507,551.3849,m,1,0.5175,,551.385,551.3852,,0,274,274,43,1,44,geniş,3380,153.5738,3185,0.3482,5,harmonic,1.35,word,m,,,,,,,
,,,,,,,,,,,,001,2023-11-08_21h25.16.755,vowel_harmony,2023.2.3,MacIntel,60.0024001,551.386,552.3841,,,,,,,,,,,,,,,,,,,,,,,,,,552.3842,553.2015,m,1,0.8008,,553.2016,553.2017,,0,275,275,166,1,167,maden,402,18.2653,339,0.0371,5,notharmonic,1.45,word,m,,,,,,,
,,,,,,,,,,,,001,2023-11-08_21h25.16.755,vowel_harmony,2023.2.3,MacIntel,60.0024001,553.2023,554.2006,,,,,,,,,,,,,,,,,,,,,,,,,,554.2007,554.885,z,1,0.667,,554.8851,554.8854,,0,276,276,347,1,348,tekram,,,,,6,notharmonic,1.95,nw,z,,,,,,,
,,,,,,,,,,,,001,2023-11-08_21h25.16.755,vowel_harmony,2023.2.3,MacIntel,60.0024001,554.886,555.8841,,,,,,,,,,,,,,,,,,,,,,,,,,555.8841,556.4841,m,1,0.5833,,556.4841,556.4842,,0,277,277,134,1,135,iptal,793,36.0308,725,0.0793,5,notharmonic,1.35,word,m,,,,,,,
,,,,,,,,,,,,001,2023-11-08_21h25.16.755,vowel_harmony,2023.2.3,MacIntel,60.0024001,556.4848,557.4837,,,,,,,,,,,,,,,,,,,,,,,,,,557.4837,558.1337,m,1,0.6341,,558.1338,558.1339,,0,278,278,155,1,156,ilaç,1366,62.0656,1215,0.1328,4,notharmonic,1.75,word,m,,,,,,,
,,,,,,,,,,,,001,2023-11-08_21h25.16.755,vowel_harmony,2023.2.3,MacIntel,60.0024001,558.1345,559.134,,,,,,,,,,,,,,,,,,,,,,,,,,559.134,559.7675,z,1,0.6142,,559.7676,559.7677,,0,279,279,238,1,239,kocı,,,,,4,harmonic,1.95,nw,z,,,,,,,
,,,,,,,,,,,,001,2023-11-08_21h25.16.755,vowel_harmony,2023.2.3,MacIntel,60.0024001,559.7684,560.7671,,,,,,,,,,,,,,,,,,,,,,,,,,560.7672,561.4837,z,1,0.7007,,561.4837,561.4839,,0,280,280,201,1,202,ergiy,,,,,5,harmonic,1.85,nw,z,,,,,,,
,,,,,,,,,,,,001,2023-11-08_21h25.16.755,vowel_harmony,2023.2.3,MacIntel,60.0024001,561.4847,562.4839,,,,,,,,,,,,,,,,,,,,,,,,,,562.4839,563.1182,z,1,0.6211,,563.1182,563.1183,,0,281,281,345,1,346,bardeş,,,,,6,notharmonic,1.95,nw,z,,,,,,,
,,,,,,,,,,,,001,2023-11-08_21h25.16.755,vowel_harmony,2023.2.3,MacIntel,60.0024001,563.1191,564.1171,,,,,,,,,,,,,,,,,,,,,,,,,,564.1172,564.8525,z,1,0.7222,,564.8526,564.8527,,0,282,282,301,1,302,mezak,,,,,5,notharmonic,1.8,nw,z,,,,,,,
,,,,,,,,,,,,001,2023-11-08_21h25.16.755,vowel_harmony,2023.2.3,MacIntel,60.0024001,564.8531,565.8519,,,,,,,,,,,,,,,,,,,,,,,,,,565.8519,566.3835,m,1,0.5143,,566.3836,566.3838,,0,283,283,22,1,23,anlam,1730,78.6043,1617,0.1768,5,harmonic,1.25,word,m,,,,,,,
,,,,,,,,,,,,001,2023-11-08_21h25.16.755,vowel_harmony,2023.2.3,MacIntel,60.0024001,566.3847,567.3833,,,,,,,,,,,,,,,,,,,,,,,,,,567.3833,567.967,m,1,0.5655,,567.9671,567.9673,,0,284,284,82,1,83,aday,1028,46.7082,873,0.0954,4,harmonic,1.45,word,m,,,,,,,
,,,,,,,,,,,,001,2023-11-08_21h25.16.755,vowel_harmony,2023.2.3,MacIntel,60.0024001,567.9679,568.9668,,,,,,,,,,,,,,,,,,,,,,,,,,568.9669,569.8004,m,1,0.8156,,569.8005,569.8006,,0,285,285,116,1,117,daire,621,28.2158,503,0.055,5,notharmonic,1,word,m,,,,,,,
,,,,,,,,,,,,001,2023-11-08_21h25.16.755,vowel_harmony,2023.2.3,MacIntel,60.0024001,569.8011,570.8003,,,,,,,,,,,,,,,,,,,,,,,,,,570.8004,571.4176,m,1,0.6001,,571.4176,571.4178,,0,286,286,152,1,153,tedavi,1865,84.7382,1597,0.1746,6,notharmonic,1.8,word,m,,,,,,,
,,,,,,,,,,,,001,2023-11-08_21h25.16.755,vowel_harmony,2023.2.3,MacIntel,60.0024001,571.4184,572.4172,,,,,,,,,,,,,,,,,,,,,,,,,,572.4173,573.0336,z,1,0.6003,,573.0336,573.0339,,0,287,287,245,1,246,bıyan,,,,,5,harmonic,1.7,nw,z,,,,,,,
,,,,,,,,,,,,001,2023-11-08_21h25.16.755,vowel_harmony,2023.2.3,MacIntel,60.0024001,573.0346,574.0341,,,,,,,,,,,,,,,,,,,,,,,,,,574.0342,574.5502,m,1,0.4995,,574.5503,574.5504,,0,288,288,99,1,100,ilave,3173,144.1685,2619,0.2863,5,notharmonic,1.85,word,m,,,,,,,
,,,,,,,,,,,,001,2023-11-08_21h25.16.755,vowel_harmony,2023.2.3,MacIntel,60.0024001,574.5509,575.5503,,,,,,,,,,,,,,,,,,,,,,,,,,575.5505,576.1501,z,1,0.5865,,576.1502,576.1503,,0,289,289,288,1,289,molit,,,,,5,notharmonic,1.95,nw,z,,,,,,,
,,,,,,,,,,,,001,2023-11-08_21h25.16.755,vowel_harmony,2023.2.3,MacIntel,60.0024001,576.151,577.1504,,,,,,,,,,,,,,,,,,,,,,,,,,577.1505,577.9175,z,1,0.7543,,577.9175,577.9178,,0,290,290,228,1,229,haytam,,,,,6,harmonic,1.75,nw,z,,,,,,,
,,,,,,,,,,,,001,2023-11-08_21h25.16.755,vowel_harmony,2023.2.3,MacIntel,60.0024001,577.9187,578.9172,,,,,,,,,,,,,,,,,,,,,,,,,,578.9172,579.4835,z,1,0.5492,,579.4835,579.4838,,0,291,291,194,1,195,rayna,,,,,5,harmonic,1.7,nw,z,,,,,,,
,,,,,,,,,,,,001,2023-11-08_21h25.16.755,vowel_harmony,2023.2.3,MacIntel,60.0024001,579.4843,580.4837,,,,,,,,,,,,,,,,,,,,,,,,,,580.4837,581.4337,z,1,0.9324,,581.4337,581.434,,0,292,292,193,1,194,yokın,,,,,5,harmonic,1.85,nw,z,,,,,,,
,,,,,,,,,,,,001,2023-11-08_21h25.16.755,vowel_harmony,2023.2.3,MacIntel,60.0024001,581.4345,582.4336,,,,,,,,,,,,,,,,,,,,,,,,,,582.4336,582.9667,m,1,0.5177,,582.9667,582.9669,,0,293,293,103,1,104,tane,5623,255.4868,5075,0.5548,4,notharmonic,1.3,word,m,,,,,,,
,,,,,,,,,,,,001,2023-11-08_21h25.16.755,vowel_harmony,2023.2.3,MacIntel,60.0024001,582.9674,583.9691,,,,,,,,,,,,,,,,,,,,,,,,,,583.9691,584.5167,z,1,0.5328,,584.5167,584.5169,,0,294,294,225,1,226,düvem,,,,,5,harmonic,1.7,nw,z,,,,,,,
,,,,,,,,,,,,001,2023-11-08_21h25.16.755,vowel_harmony,2023.2.3,MacIntel,60.0024001,584.5173,585.5167,,,,,,,,,,,,,,,,,,,,,,,,,,585.5168,586.1005,m,1,0.5673,,586.1006,586.1006,,0,295,295,0,1,1,sanat,3121,141.8059,2485,0.2717,5,harmonic,1.4,word,m,,,,,,,
,,,,,,,,,,,,001,2023-11-08_21h25.16.755,vowel_harmony,2023.2.3,MacIntel,60.0024001,586.1012,587.1002,,,,,,,,,,,,,,,,,,,,,,,,,,587.1004,587.8688,z,1,0.7504,,587.8689,587.8689,,0,296,296,248,1,249,şegim,,,,,5,harmonic,1.9,nw,z,,,,,,,
,,,,,,,,,,,,001,2023-11-08_21h25.16.755,vowel_harmony,2023.2.3,MacIntel,60.0024001,587.8693,588.8671,,,,,,,,,,,,,,,,,,,,,,,,,,588.8672,589.4501,z,1,0.5668,,589.4502,589.4503,,0,297,297,304,1,305,annö,,,,,4,notharmonic,1.95,nw,z,,,,,,,
,,,,,,,,,,,,001,2023-11-08_21h25.16.755,vowel_harmony,2023.2.3,MacIntel,60.0024001,589.4507,590.45,,,,,,,,,,,,,,,,,,,,,,,,,,590.4501,590.985,m,1,0.5164,,590.9851,590.9852,,0,298,298,169,1,170,hikaye,1555,70.653,1405,0.1536,6,notharmonic,1.8,word,m,,,,,,,
,,,,,,,,,,,,001,2023-11-08_21h25.16.755,vowel_harmony,2023.2.3,MacIntel,60.0024001,590.9856,591.9844,,,,,,,,,,,,,,,,,,,,,,,,,,591.9845,592.5675,z,1,0.569,,592.5675,592.5677,,0,299,299,265,1,266,parula,,,,,6,harmonic,1.75,nw,z,,,,,,,
,,,,,,,,,,,,001,2023-11-08_21h25.16.755,vowel_harmony,2023.2.3,MacIntel,60.0024001,592.5682,593.5677,,,,,,,,,,,,,,,,,,,,,,,,,,593.5678,594.1833,z,1,0.5994,,594.1833,594.1835,,0,300,300,333,1,334,heyran,,,,,6,notharmonic,1.85,nw,z,,,,,,,
,,,,,,,,,,,,001,2023-11-08_21h25.16.755,vowel_harmony,2023.2.3,MacIntel,60.0024001,594.184,595.1837,,,,,,,,,,,,,,,,,,,,,,,,,,595.1837,595.8002,m,1,0.5978,,595.8003,595.8006,,0,301,301,46,1,47,takım,4370,198.5555,3726,0.4073,5,harmonic,1.7,word,m,,,,,,,
,,,,,,,,,,,,001,2023-11-08_21h25.16.755,vowel_harmony,2023.2.3,MacIntel,60.0024001,595.8012,596.7999,,,,,,,,,,,,,,,,,,,,,,,,,,596.8,597.3335,m,1,0.5163,,597.3336,597.3338,,0,302,302,179,1,180,dakika,5891,267.6637,5207,0.5692,6,notharmonic,1.75,word,m,,,,,,,
,,,,,,,,,,,,001,2023-11-08_21h25.16.755,vowel_harmony,2023.2.3,MacIntel,60.0024001,597.3345,598.3335,,,,,,,,,,,,,,,,,,,,,,,,,,598.3335,598.9023,z,1,0.551,,598.9024,598.9026,,0,303,303,326,1,327,ailo,,,,,4,notharmonic,1.75,nw,z,,,,,,,
,,,,,,,,,,,,001,2023-11-08_21h25.16.755,vowel_harmony,2023.2.3,MacIntel,60.0024001,598.9032,599.9016,,,,,,,,,,,,,,,,,,,,,,,,,,599.9017,600.4669,z,1,0.5478,,600.4671,600.4674,,0,304,304,278,1,279,sekon,,,,,5,notharmonic,1.85,nw,z,,,,,,,
,,,,,,,,,,,,001,2023-11-08_21h25.16.755,vowel_harmony,2023.2.3,MacIntel,60.0024001,600.4682,601.4672,,,,,,,,,,,,,,,,,,,,,,,,,,601.4672,602.1847,m,1,0.705,,602.1849,602.1851,,0,305,305,102,1,103,esas,1965,89.2818,1795,0.1962,4,notharmonic,1.75,word,m,,,,,,,
,,,,,,,,,,,,001,2023-11-08_21h25.16.755,vowel_harmony,2023.2.3,MacIntel,60.0024001,602.1859,603.1847,,,,,,,,,,,,,,,,,,,,,,,,,,603.1847,603.7332,z,1,0.5317,,603.7332,603.7335,,0,306,306,234,1,235,düzöt,,,,,5,harmonic,2.05,nw,z,,,,,,,
,,,,,,,,,,,,001,2023-11-08_21h25.16.755,vowel_harmony,2023.2.3,MacIntel,60.0024001,603.734,604.733,,,,,,,,,,,,,,,,,,,,,,,,,,604.7331,605.4002,z,1,0.6506,,605.4003,605.4004,,0,307,307,237,1,238,taşal,,,,,5,harmonic,1.8,nw,z,,,,,,,
,,,,,,,,,,,,001,2023-11-08_21h25.16.755,vowel_harmony,2023.2.3,MacIntel,60.0024001,605.401,606.4011,,,,,,,,,,,,,,,,,,,,,,,,,,606.4013,607.2338,m,1,0.8163,,607.2339,607.234,,0,308,308,48,1,49,teşvik,932,42.3464,867,0.0948,6,harmonic,1.8,word,m,,,,,,,
,,,,,,,,,,,,001,2023-11-08_21h25.16.755,vowel_harmony,2023.2.3,MacIntel,60.0024001,607.2346,608.233,,,,,,,,,,,,,,,,,,,,,,,,,,608.233,609.083,z,1,0.832,,609.0831,609.0833,,0,309,309,226,1,227,tefem,,,,,5,harmonic,1.75,nw,z,,,,,,,
,,,,,,,,,,,,001,2023-11-08_21h25.16.755,vowel_harmony,2023.2.3,MacIntel,60.0024001,609.084,610.083,,,,,,,,,,,,,,,,,,,,,,,,,,610.083,611.4194,z,1,1.3166,,611.4194,611.4196,,0,310,310,240,1,241,hoga,,,,,4,harmonic,1.75,nw,z,,,,,,,
,,,,,,,,,,,,001,2023-11-08_21h25.16.755,vowel_harmony,2023.2.3,MacIntel,60.0024001,611.42,612.4162,,,,,,,,,,,,,,,,,,,,,,,,,,612.4164,612.883,m,1,0.4486,,612.8831,612.8833,,0,311,311,56,1,57,sağlam,1818,82.6027,1720,0.188,6,harmonic,1.6,word,m,,,,,,,
,,,,,,,,,,,,001,2023-11-08_21h25.16.755,vowel_harmony,2023.2.3,MacIntel,60.0024001,612.8837,613.8831,,,,,,,,,,,,,,,,,,,,,,,,,,613.8831,614.4685,m,0,0.5666,,614.4686,614.4689,,0,312,312,230,1,231,bikir,,,,,5,harmonic,1.75,nw,z,,,,,,,
,,,,,,,,,,,,001,2023-11-08_21h25.16.755,vowel_harmony,2023.2.3,MacIntel,60.0024001,614.4694,615.4663,,,,,,,,,,,,,,,,,,,,,,,,,,615.4663,616,m,1,0.5176,,616,616.0002,,0,313,313,130,1,131,hamile,1075,48.8437,877,0.0959,6,notharmonic,1.5,word,m,,,,,,,
,,,,,,,,,,,,001,2023-11-08_21h25.16.755,vowel_harmony,2023.2.3,MacIntel,60.0024001,616.0007,616.9998,,,,,,,,,,,,,,,,,,,,,,,,,,616.9998,617.5825,z,1,0.5665,,617.5825,617.5826,,0,314,314,318,1,319,yorgün,,,,,6,notharmonic,1.9,nw,z,,,,,,,
,,,,,,,,,,,,001,2023-11-08_21h25.16.755,vowel_harmony,2023.2.3,MacIntel,60.0024001,617.5832,618.5842,,,,,,,,,,,,,,,,,,,,,,,,,,618.5842,619.1162,z,1,0.5147,,619.1164,619.1165,,0,315,315,219,1,220,barlum,,,,,6,harmonic,1.9,nw,z,,,,,,,
,,,,,,,,,,,,001,2023-11-08_21h25.16.755,vowel_harmony,2023.2.3,MacIntel,60.0024001,619.1171,620.1164,,,,,,,,,,,,,,,,,,,,,,,,,,620.1166,620.6494,z,1,0.5183,,620.6496,620.6498,,0,316,316,309,1,310,yorgen,,,,,6,notharmonic,1.9,nw,z,,,,,,,
,,,,,,,,,,,,001,2023-11-08_21h25.16.755,vowel_harmony,2023.2.3,MacIntel,60.0024001,620.6503,621.6499,,,,,,,,,,,,,,,,,,,,,,,,,,621.6499,622.2329,m,1,0.5696,,622.2329,622.233,,0,317,317,175,1,176,aile,3655,166.0687,3126,0.3417,4,notharmonic,1,word,m,,,,,,,
,,,,,,,,,,,,001,2023-11-08_21h25.16.755,vowel_harmony,2023.2.3,MacIntel,60.0024001,622.2337,623.2326,,,,,,,,,,,,,,,,,,,,,,,,,,623.2327,623.7834,z,1,0.5343,,623.7836,623.7837,,0,318,318,244,1,245,kaof,,,,,4,harmonic,1.9,nw,z,,,,,,,
,,,,,,,,,,,,001,2023-11-08_21h25.16.755,vowel_harmony,2023.2.3,MacIntel,60.0024001,623.7844,624.7844,,,,,,,,,,,,,,,,,,,,,,,,,,624.7846,625.3004,m,1,0.4974,,625.3005,625.3006,,0,319,319,20,1,21,nefes,2871,130.4469,2553,0.2791,5,harmonic,1.8,word,m,,,,,,,
,,,,,,,,,,,,001,2023-11-08_21h25.16.755,vowel_harmony,2023.2.3,MacIntel,60.0024001,625.3012,626.2994,,,,,,,,,,,,,,,,,,,,,,,,,,626.2994,626.8356,z,1,0.5173,,626.8357,626.8359,,0,320,320,303,1,304,fisor,,,,,5,notharmonic,1.9,nw,z,,,,,,,
,,,,,,,,,,,,001,2023-11-08_21h25.16.755,vowel_harmony,2023.2.3,MacIntel,60.0024001,626.8363,627.8327,,,,,,,,,,,,,,,,,,,,,,,,,,627.8327,628.3676,m,1,0.5161,,628.3677,628.3679,,0,321,321,100,1,101,düşman,1065,48.3894,962,0.1052,6,notharmonic,1.85,word,m,,,,,,,
,,,,,,,,,,,,001,2023-11-08_21h25.16.755,vowel_harmony,2023.2.3,MacIntel,60.0024001,628.3685,629.3694,,,,,,,,,,,,,,,,,,,,,,,,,,629.3694,629.9829,z,1,0.5988,,629.9829,629.9831,,0,322,322,335,1,336,lilo,,,,,4,notharmonic,1.8,nw,z,,,,,,,
,,,,,,,,,,,,001,2023-11-08_21h25.16.755,vowel_harmony,2023.2.3,MacIntel,60.0024001,629.9836,630.9828,,,,,,,,,,,,,,,,,,,,,,,,,,630.9829,631.7001,z,1,0.7007,,631.7001,631.7003,,0,323,323,270,1,271,miyaj,,,,,5,notharmonic,1.9,nw,z,,,,,,,
,,,,,,,,,,,,001,2023-11-08_21h25.16.755,vowel_harmony,2023.2.3,MacIntel,60.0024001,631.7008,632.7002,,,,,,,,,,,,,,,,,,,,,,,,,,632.7003,633.2327,m,1,0.5176,,633.2328,633.2329,,0,324,324,95,1,96,takip,4996,226.9984,4651,0.5084,5,notharmonic,1.55,word,m,,,,,,,
,,,,,,,,,,,,001,2023-11-08_21h25.16.755,vowel_harmony,2023.2.3,MacIntel,60.0024001,633.2334,634.2343,,,,,,,,,,,,,,,,,,,,,,,,,,634.2343,634.8673,z,1,0.6149,,634.8674,634.8676,,0,325,325,346,1,347,kidan,,,,,5,notharmonic,1.8,nw,z,,,,,,,
,,,,,,,,,,,,001,2023-11-08_21h25.16.755,vowel_harmony,2023.2.3,MacIntel,60.0024001,634.8682,635.8661,,,,,,,,,,,,,,,,,,,,,,,,,,635.8661,636.3,m,0,0.417,,636.3001,636.3002,,0,326,326,315,1,316,takep,,,,,5,notharmonic,1.85,nw,z,,,,,,,
,,,,,,,,,,,,001,2023-11-08_21h25.16.755,vowel_harmony,2023.2.3,MacIntel,60.0024001,636.3008,637.2992,,,,,,,,,,,,,,,,,,,,,,,,,,637.2993,637.9837,z,1,0.6665,,637.9837,637.9839,,0,327,327,289,1,290,karmen,,,,,6,notharmonic,1.75,nw,z,,,,,,,
,,,,,,,,,,,,001,2023-11-08_21h25.16.755,vowel_harmony,2023.2.3,MacIntel,60.0024001,637.9844,638.9842,,,,,,,,,,,,,,,,,,,,,,,,,,638.9842,639.5003,m,1,0.5003,,639.5004,639.5005,,0,328,328,62,1,63,cümle,1911,86.8283,1765,0.193,5,harmonic,1.85,word,m,,,,,,,
,,,,,,,,,,,,001,2023-11-08_21h25.16.755,vowel_harmony,2023.2.3,MacIntel,60.0024001,639.5011,640.5008,,,,,,,,,,,,,,,,,,,,,,,,,,640.5008,641.0827,z,1,0.5636,,641.0828,641.0829,,0,329,329,223,1,224,kakon,,,,,5,harmonic,1.85,nw,z,,,,,,,
,,,,,,,,,,,,001,2023-11-08_21h25.16.755,vowel_harmony,2023.2.3,MacIntel,60.0024001,641.0834,642.0828,,,,,,,,,,,,,,,,,,,,,,,,,,642.0828,643.1492,m,1,1.05,,643.1492,643.1495,,0,330,330,80,1,81,merkez,1445,65.6551,1255,0.1372,6,harmonic,1.8,word,m,,,,,,,
,,,,,,,,,,,,001,2023-11-08_21h25.16.755,vowel_harmony,2023.2.3,MacIntel,60.0024001,643.1504,644.1502,,,,,,,,,,,,,,,,,,,,,,,,,,644.1503,645.0156,z,1,0.8518,,645.0156,645.0158,,0,331,331,294,1,295,mesap,,,,,5,notharmonic,1.8,nw,z,,,,,,,
,,,,,,,,,,,,001,2023-11-08_21h25.16.755,vowel_harmony,2023.2.3,MacIntel,60.0024001,645.0161,646.016,,,,,,,,,,,,,,,,,,,,,,,,,,646.0161,646.6324,z,1,0.6034,,646.6325,646.6327,,0,332,332,251,1,252,oştay,,,,,5,harmonic,1.95,nw,z,,,,,,,
,,,,,,,,,,,,001,2023-11-08_21h25.16.755,vowel_harmony,2023.2.3,MacIntel,60.0024001,646.6333,647.6343,,,,,,,,,,,,,,,,,,,,,,,,,,647.6343,648.1161,m,1,0.465,,648.1162,648.1164,,0,333,333,136,1,137,beyaz,5517,250.6706,4788,0.5234,5,notharmonic,1.85,word,m,,,,,,,
,,,,,,,,,,,,001,2023-11-08_21h25.16.755,vowel_harmony,2023.2.3,MacIntel,60.0024001,648.117,649.119,,,,,,,,,,,,,,,,,,,,,,,,,,649.119,649.6503,m,1,0.5142,,649.6504,649.6506,,0,334,334,40,1,41,tepki,1695,77.0141,1578,0.1725,5,harmonic,1.55,word,m,,,,,,,
,,,,,,,,,,,,001,2023-11-08_21h25.16.755,vowel_harmony,2023.2.3,MacIntel,60.0024001,649.6512,650.6493,,,,,,,,,,,,,,,,,,,,,,,,,,650.6494,651.6324,m,1,0.9689,,651.6325,651.6327,,0,335,335,157,1,158,aktif,1062,48.2531,986,0.1078,5,notharmonic,1.9,word,m,,,,,,,
,,,,,,,,,,,,001,2023-11-08_21h25.16.755,vowel_harmony,2023.2.3,MacIntel,60.0024001,651.6333,652.6345,,,,,,,,,,,,,,,,,,,,,,,,,,652.6345,653.2495,z,1,0.5979,,653.2495,653.2498,,0,336,336,236,1,237,toklam,,,,,6,harmonic,1.85,nw,z,,,,,,,
,,,,,,,,,,,,001,2023-11-08_21h25.16.755,vowel_harmony,2023.2.3,MacIntel,60.0024001,653.2506,654.2494,,,,,,,,,,,,,,,,,,,,,,,,,,654.2495,654.6991,m,1,0.4347,,654.6991,654.6993,,0,337,337,174,1,175,bugün,13879,630.6067,12842,1.4039,5,notharmonic,1.85,word,m,,,,,,,
,,,,,,,,,,,,001,2023-11-08_21h25.16.755,vowel_harmony,2023.2.3,MacIntel,60.0024001,654.6999,655.6992,,,,,,,,,,,,,,,,,,,,,,,,,,655.6992,656.3003,z,1,0.5878,,656.3004,656.3005,,0,338,338,334,1,335,işgan,,,,,5,notharmonic,1.95,nw,z,,,,,,,
,,,,,,,,,,,,001,2023-11-08_21h25.16.755,vowel_harmony,2023.2.3,MacIntel,60.0024001,656.3012,657.2993,,,,,,,,,,,,,,,,,,,,,,,,,,657.2995,657.7501,m,1,0.4351,,657.7502,657.7503,,0,339,339,5,1,6,bebek,3301,149.9843,2794,0.3054,5,harmonic,1.6,word,m,,,,,,,
,,,,,,,,,,,,001,2023-11-08_21h25.16.755,vowel_harmony,2023.2.3,MacIntel,60.0024001,657.7509,658.7506,,,,,,,,,,,,,,,,,,,,,,,,,,658.7506,659.3182,z,1,0.5496,,659.3183,659.3185,,0,340,340,235,1,236,oşup,,,,,4,harmonic,1.75,nw,z,,,,,,,
,,,,,,,,,,,,001,2023-11-08_21h25.16.755,vowel_harmony,2023.2.3,MacIntel,60.0024001,659.3189,660.3175,,,,,,,,,,,,,,,,,,,,,,,,,,660.3176,660.7329,m,0,0.4024,,660.7329,660.7331,,0,341,341,276,1,277,iptap,,,,,5,notharmonic,1.95,nw,z,,,,,,,
,,,,,,,,,,,,001,2023-11-08_21h25.16.755,vowel_harmony,2023.2.3,MacIntel,60.0024001,660.7335,661.7335,,,,,,,,,,,,,,,,,,,,,,,,,,661.7336,662.5504,m,1,0.8048,,662.5505,662.5507,,0,342,342,144,1,145,garip,2567,116.6343,2355,0.2574,5,notharmonic,1.65,word,m,,,,,,,
,,,,,,,,,,,,001,2023-11-08_21h25.16.755,vowel_harmony,2023.2.3,MacIntel,60.0024001,662.5512,663.55,,,,,,,,,,,,,,,,,,,,,,,,,,663.5501,664.034,m,1,0.4669,,664.0341,664.0342,,0,343,343,27,1,28,bölge,1283,58.2944,1123,0.1228,5,harmonic,1.65,word,m,,,,,,,
,,,,,,,,,,,,001,2023-11-08_21h25.16.755,vowel_harmony,2023.2.3,MacIntel,60.0024001,664.0353,665.0338,,,,,,,,,,,,,,,,,,,,,,,,,,665.0338,665.5818,m,1,0.5318,,665.5819,665.582,,0,344,344,38,1,39,dönem,2820,128.1296,2437,0.2664,5,harmonic,1.4,word,m,,,,,,,
,,,,,,,,,,,,001,2023-11-08_21h25.16.755,vowel_harmony,2023.2.3,MacIntel,60.0024001,665.5825,666.5823,,,,,,,,,,,,,,,,,,,,,,,,,,666.5824,667.0501,m,0,0.4497,,667.0502,667.0504,,0,345,345,283,1,284,fahe,,,,,4,notharmonic,1.95,nw,z,,,,,,,
,,,,,,,,,,,,001,2023-11-08_21h25.16.755,vowel_harmony,2023.2.3,MacIntel,60.0024001,667.0512,668.0503,,,,,,,,,,,,,,,,,,,,,,,,,,668.0503,668.682,z,1,0.6155,,668.6821,668.6823,,0,346,346,241,1,242,porlam,,,,,6,harmonic,2,nw,z,,,,,,,
,,,,,,,,,,,,001,2023-11-08_21h25.16.755,vowel_harmony,2023.2.3,MacIntel,60.0024001,668.683,669.6855,,,,,,,,,,,,,,,,,,,,,,,,,,669.6856,670.3162,m,1,0.6166,,670.3162,670.3164,,0,347,347,125,1,126,ikna,1276,57.9764,1173,0.1282,4,notharmonic,1.85,word,m,,,,,,,
,,,,,,,,,,,,001,2023-11-08_21h25.16.755,vowel_harmony,2023.2.3,MacIntel,60.0024001,670.3169,671.3159,,,,,,,,,,,,,,,,,,,,,,,,,,671.3159,671.8991,z,1,0.567,,671.8992,671.8994,,0,348,348,327,1,328,parkeş,,,,,6,notharmonic,1.9,nw,z,,,,,,,
,,,,,,,,,,,,001,2023-11-08_21h25.16.755,vowel_harmony,2023.2.3,MacIntel,60.0024001,671.9001,672.9002,,,,,,,,,,,,,,,,,,,,,,,,,,672.9002,673.9829,m,1,1.0662,,673.9829,673.9831,,0,349,349,91,1,92,ifade,6177,280.6584,5726,0.626,5,notharmonic,1.7,word,m,,,,,,,
,,,,,,,,,,,,001,2023-11-08_21h25.16.755,vowel_harmony,2023.2.3,MacIntel,60.0024001,673.9836,674.9837,,,,,,,,,,,,,,,,,,,,,,,,,,674.9838,675.4825,m,1,0.4817,,675.4826,675.4827,,0,350,350,177,1,178,tekrar,10788,490.1639,9352,1.0224,6,notharmonic,1.85,word,m,,,,,,,
,,,,,,,,,,,,001,2023-11-08_21h25.16.755,vowel_harmony,2023.2.3,MacIntel,60.0024001,675.4832,676.4822,,,,,,,,,,,,,,,,,,,,,,,,,,676.4822,676.9677,m,1,0.4674,,676.9678,676.9679,,0,351,351,51,1,52,ilginç,2803,127.3572,2690,0.2941,6,harmonic,1.8,word,m,,,,,,,
,,,,,,,,,,,,001,2023-11-08_21h25.16.755,vowel_harmony,2023.2.3,MacIntel,60.0024001,676.9683,677.9656,,,,,,,,,,,,,,,,,,,,,,,,,,677.9658,678.5321,z,1,0.5497,,678.5323,678.5324,,0,352,352,224,1,225,ertre,,,,,5,harmonic,1.95,nw,z,,,,,,,
,,,,,,,,,,,,001,2023-11-08_21h25.16.755,vowel_harmony,2023.2.3,MacIntel,60.0024001,678.533,679.5323,,,,,,,,,,,,,,,,,,,,,,,,,,679.5324,680.1992,z,1,0.6512,,680.1992,680.1994,,0,353,353,356,1,357,mergun,,,,,6,notharmonic,1.95,nw,z,,,,,,,
,,,,,,,,,,,,001,2023-11-08_21h25.16.755,vowel_harmony,2023.2.3,MacIntel,60.0024001,680.1999,681.2002,,,,,,,,,,,,,,,,,,,,,,,,,,681.2003,681.7508,m,1,0.5319,,681.7508,681.751,,0,354,354,4,1,5,metre,1156,52.5241,1015,0.111,5,harmonic,1.7,word,m,,,,,,,
,,,,,,,,,,,,001,2023-11-08_21h25.16.755,vowel_harmony,2023.2.3,MacIntel,60.0024001,681.7513,682.7489,,,,,,,,,,,,,,,,,,,,,,,,,,682.7489,683.4653,z,1,0.7027,,683.4653,683.4655,,0,355,355,296,1,297,işban,,,,,5,notharmonic,1.95,nw,z,,,,,,,
,,,,,,,,,,,,001,2023-11-08_21h25.16.755,vowel_harmony,2023.2.3,MacIntel,60.0024001,683.4659,684.4658,,,,,,,,,,,,,,,,,,,,,,,,,,684.4658,684.9322,m,1,0.4533,,684.9323,684.9323,,0,356,356,126,1,127,adet,4367,198.4192,3768,0.4119,4,notharmonic,1.4,word,m,,,,,,,
,,,,,,,,,,,,001,2023-11-08_21h25.16.755,vowel_harmony,2023.2.3,MacIntel,60.0024001,684.933,685.932,,,,,,,,,,,,,,,,,,,,,,,,,,685.9321,686.5324,z,1,0.5841,,686.5325,686.5326,,0,357,357,195,1,196,netüm,,,,,5,harmonic,1.95,nw,z,,,,,,,
,,,,,,,,,,,,001,2023-11-08_21h25.16.755,vowel_harmony,2023.2.3,MacIntel,60.0024001,686.5334,687.5323,,,,,,,,,,,,,,,,,,,,,,,,,,687.5323,688.0655,m,1,0.517,,688.0655,688.0657,,0,358,358,110,1,111,rüya,1062,48.2531,937,0.1024,4,notharmonic,1.75,word,m,,,,,,,
,,,,,,,,,,,,001,2023-11-08_21h25.16.755,vowel_harmony,2023.2.3,MacIntel,60.0024001,688.0663,689.0657,,,,,,,,,,,,,,,,,,,,,,,,,,689.0657,689.6325,z,1,0.5482,,689.6327,689.6329,,0,359,359,232,1,233,kanur,,,,,5,harmonic,1.7,nw,z,,,,,,,
,,,,,,,,,,,,001,2023-11-08_21h25.16.755,vowel_harmony,2023.2.3,MacIntel,60.0024001,,,,,,,,,,,,,,,,,,,,,,,,,,,,,,,,,,,,,,,,,,,,,,,,,,,,,,,689.6353,691.833,space,2.1798,