Welcome_screen.started,Welcome_screen.stopped,key_respwelcome.keys,key_respwelcome.rt,key_respwelcome.duration,intro_x.thisRepN,intro_x.thisTrialN,intro_x.thisN,intro_x.thisIndex,intro_x.ran,Introduction,participant,session,date,expName,psychopyVersion,OS,frameRate,Fixation.started,Fixation.stopped,Studypractice.started,Studypractice.stopped,key_respstudy.keys,key_respstudy.corr,key_respstudy.rt,key_respstudy.duration,rt,corr,Feedback.started,Feedback.stopped,practice_loop.thisRepN,practice_loop.thisTrialN,practice_loop.thisN,practice_loop.thisIndex,practice_loop.ran,item_nr_p,target_p,isHarmonic_p,target_cond_p,CorrAns_p,Instraction.started,Instraction.stopped,key_respınstraction.keys,key_respınstraction.rt,key_respınstraction.duration,TestTrial.started,TestTrial.stopped,key_respTest.keys,key_respTest.corr,key_respTest.rt,key_respTest.duration,Pause.started,Pause.stopped,key_resp_xx.keys,test_loop.thisRepN,test_loop.thisTrialN,test_loop.thisN,test_loop.thisIndex,test_loop.ran,item_nr,target,BlogFreq_A1,BlogFreqpm_A1,BlogCD_A1,BlogCDPc_A1,WordLength_A1,isHarmonic_A1,old20,target_cond,CorrAns,key_resp_xx.rt,key_resp_xx.duration,Goodbye_screen.started,Goodbye_screen.stopped,key_respgoodbye.keys,key_respgoodbye.rt,key_respgoodbye.duration
0.0148,1.5849,space,1.5577,,0,0,0,0,1,"Deneye hoş geldiniz,

Devam etmek için BOŞLUK tuşuna basınız.",,001,2023-11-08_11h32.04.790,vowel_harmony,2023.2.3,Win32,60.51803437,,,,,,,,,,,,,,,,,,,,,,,,,,,,,,,,,,,,,,,,,,,,,,,,,,,,,,,,,,,
1.5853,2.995,space,1.3836,,0,1,1,1,1,"Bu çalışma Valencia Üniversitesi kapsamında yürütülmektedir. Deneydeki göreviniz, ekrana çıkacak Türkçe sözcüklerin kelime olup olmadığını belirlemenizdir. Eğer sözcük gerçek bir kelime ise ""m"" tuşuna, değil ise ""z"" tuşuna basınız.   

Devam etmek için BOŞLUK tuşuna basınız.",,001,2023-11-08_11h32.04.790,vowel_harmony,2023.2.3,Win32,60.51803437,,,,,,,,,,,,,,,,,,,,,,,,,,,,,,,,,,,,,,,,,,,,,,,,,,,,,,,,,,,
2.9952,9.8474,space,6.8289,,0,2,2,2,1,"Her sözcük için en fazla iki saniyede cevap vermeniz beklenmektedir. Aksi takdirde deney bir sonraki sözcük ile devam eder. 
Bu çalışmada oldukça hızlı ve doğru cevaplama yapmanız beklenmektedir.

Devam etmek için BOŞLUK tuşuna basınız.",,001,2023-11-08_11h32.04.790,vowel_harmony,2023.2.3,Win32,60.51803437,,,,,,,,,,,,,,,,,,,,,,,,,,,,,,,,,,,,,,,,,,,,,,,,,,,,,,,,,,,
9.8477,19.168,space,9.2865,,0,3,3,3,1,"Çalışmaya başlamadan önce ufak bir pratik yer almaktadır.
Kelimedir: ""m""
Kelime değildir: ""z""

Pratik teste başlamak için BOŞLUK tuşuna basınız. ",,001,2023-11-08_11h32.04.790,vowel_harmony,2023.2.3,Win32,60.51803437,,,,,,,,,,,,,,,,,,,,,,,,,,,,,,,,,,,,,,,,,,,,,,,,,,,,,,,,,,,
,,,,,,,,,,,,001,2023-11-08_11h32.04.790,vowel_harmony,2023.2.3,Win32,60.51803437,19.175,20.1683,20.1684,22.7028,m,1,2.5015,,2.5015,1,22.703,24.1922,0,0,0,3,1,4,ihlal,notharmonic,word,m,,,,,,,,,,,,,,,,,,,,,,,,,,,,,,,,,,,,,
,,,,,,,,,,,,001,2023-11-08_11h32.04.790,vowel_harmony,2023.2.3,Win32,60.51803437,24.1925,25.1926,25.1926,26.8705,z,1,1.6585,,1.6585,1,26.8706,28.3713,0,1,1,14,1,15,pimer,harmonic,nw,z,,,,,,,,,,,,,,,,,,,,,,,,,,,,,,,,,,,,,
,,,,,,,,,,,,001,2023-11-08_11h32.04.790,vowel_harmony,2023.2.3,Win32,60.51803437,28.3715,29.3776,29.3777,30.3221,m,1,0.9173,,0.9173,1,30.3221,31.8121,0,2,2,6,1,7,pilot,notharmonic,word,m,,,,,,,,,,,,,,,,,,,,,,,,,,,,,,,,,,,,,
,,,,,,,,,,,,001,2023-11-08_11h32.04.790,vowel_harmony,2023.2.3,Win32,60.51803437,31.8125,32.8065,32.8065,34.2744,z,1,1.4375,,1.4375,1,34.2744,35.7799,0,3,3,8,1,9,tahip,notharmonic,nw,z,,,,,,,,,,,,,,,,,,,,,,,,,,,,,,,,,,,,,
,,,,,,,,,,,,001,2023-11-08_11h32.04.790,vowel_harmony,2023.2.3,Win32,60.51803437,35.7801,36.7746,36.7746,37.608,m,1,0.803,,0.803,1,37.608,39.1089,0,4,4,2,1,3,memur,notharmonic,word,m,,,,,,,,,,,,,,,,,,,,,,,,,,,,,,,,,,,,,
,,,,,,,,,,,,001,2023-11-08_11h32.04.790,vowel_harmony,2023.2.3,Win32,60.51803437,39.1091,40.109,40.109,40.8426,z,1,0.7014,,0.7014,1,40.8426,42.3324,0,5,5,9,1,10,orat,harmonic,nw,z,,,,,,,,,,,,,,,,,,,,,,,,,,,,,,,,,,,,,
,,,,,,,,,,,,001,2023-11-08_11h32.04.790,vowel_harmony,2023.2.3,Win32,60.51803437,42.3326,43.3329,43.3329,43.9499,m,1,0.6006,,0.6006,1,43.95,45.4502,0,6,6,1,1,2,veri,harmonic,word,m,,,,,,,,,,,,,,,,,,,,,,,,,,,,,,,,,,,,,
,,,,,,,,,,,,001,2023-11-08_11h32.04.790,vowel_harmony,2023.2.3,Win32,60.51803437,45.4504,46.4507,46.4507,47.2513,z,1,0.7841,,0.7841,1,47.2513,48.7514,0,7,7,15,1,16,mımal,harmonic,nw,z,,,,,,,,,,,,,,,,,,,,,,,,,,,,,,,,,,,,,
,,,,,,,,,,,,001,2023-11-08_11h32.04.790,vowel_harmony,2023.2.3,Win32,60.51803437,48.7515,49.752,49.752,50.5858,z,1,0.8172,,0.8172,1,50.5858,52.086,0,8,8,13,1,14,pilar,notharmonic,nw,z,,,,,,,,,,,,,,,,,,,,,,,,,,,,,,,,,,,,,
,,,,,,,,,,,,001,2023-11-08_11h32.04.790,vowel_harmony,2023.2.3,Win32,60.51803437,52.0862,53.0863,53.0863,53.7202,m,1,0.6173,,0.6173,1,53.7202,55.2204,0,9,9,0,1,1,ihale,notharmonic,word,m,,,,,,,,,,,,,,,,,,,,,,,,,,,,,,,,,,,,,
,,,,,,,,,,,,001,2023-11-08_11h32.04.790,vowel_harmony,2023.2.3,Win32,60.51803437,55.2206,56.2207,56.2207,56.838,m,1,0.6004,,0.6004,1,56.838,58.3384,0,10,10,4,1,5,mimar,notharmonic,word,m,,,,,,,,,,,,,,,,,,,,,,,,,,,,,,,,,,,,,
,,,,,,,,,,,,001,2023-11-08_11h32.04.790,vowel_harmony,2023.2.3,Win32,60.51803437,58.3386,59.3389,59.3389,60.3393,z,1,0.9839,,0.9839,1,60.3393,61.8396,0,11,11,10,1,11,mahne,notharmonic,nw,z,,,,,,,,,,,,,,,,,,,,,,,,,,,,,,,,,,,,,
,,,,,,,,,,,,001,2023-11-08_11h32.04.790,vowel_harmony,2023.2.3,Win32,60.51803437,61.8398,62.8403,62.8404,63.6073,m,1,0.7506,,0.7506,1,63.6074,65.1077,0,12,12,5,1,6,bahçe,notharmonic,word,m,,,,,,,,,,,,,,,,,,,,,,,,,,,,,,,,,,,,,
,,,,,,,,,,,,001,2023-11-08_11h32.04.790,vowel_harmony,2023.2.3,Win32,60.51803437,65.1079,66.1083,66.1083,67.1751,z,1,1.0504,,1.0504,1,67.1751,68.6753,0,13,13,12,1,13,ihlot,notharmonic,nw,z,,,,,,,,,,,,,,,,,,,,,,,,,,,,,,,,,,,,,
,,,,,,,,,,,,001,2023-11-08_11h32.04.790,vowel_harmony,2023.2.3,Win32,60.51803437,68.6756,69.6759,69.6759,70.3764,m,1,0.6841,,0.6841,1,70.3764,71.8769,0,14,14,7,1,8,oran,harmonic,word,m,,,,,,,,,,,,,,,,,,,,,,,,,,,,,,,,,,,,,
,,,,,,,,,,,,001,2023-11-08_11h32.04.790,vowel_harmony,2023.2.3,Win32,60.51803437,71.877,72.877,72.877,73.7779,z,1,0.8841,,0.8841,1,73.7779,75.2782,0,15,15,11,1,12,geki,harmonic,nw,z,,,,,,,,,,,,,,,,,,,,,,,,,,,,,,,,,,,,,
,,,,,,,,,,,,001,2023-11-08_11h32.04.790,vowel_harmony,2023.2.3,Win32,60.51803437,,,,,,,,,,,,,,,,,,,,,,,75.2786,79.1468,space,3.851,,,,,,,,,,,,,,,,,,,,,,,,,,,,,,,,,
,,,,,,,,,,,,001,2023-11-08_11h32.04.790,vowel_harmony,2023.2.3,Win32,60.51803437,79.2178,80.1578,,,,,,,,,,,,,,,,,,,,,,,,,,80.1579,80.8915,m,1,0.7098,,80.8916,80.8925,,0,0,0,68,1,69,ücret,734,33.35,634,0.0693,5,harmonic,1.85,word,m,,,,,,,
,,,,,,,,,,,,001,2023-11-08_11h32.04.790,vowel_harmony,2023.2.3,Win32,60.51803437,80.8928,81.8977,,,,,,,,,,,,,,,,,,,,,,,,,,81.8977,82.6646,m,1,0.7502,,82.6646,82.6648,,0,1,1,25,1,26,rapor,703,31.9415,617,0.0675,5,harmonic,1.8,word,m,,,,,,,
,,,,,,,,,,,,001,2023-11-08_11h32.04.790,vowel_harmony,2023.2.3,Win32,60.51803437,82.665,83.659,,,,,,,,,,,,,,,,,,,,,,,,,,83.6591,84.6261,z,0,0.9448,,84.6262,84.6262,,0,2,2,119,1,120,kulüp,649,29.488,467,0.0511,5,notharmonic,1.4,word,m,,,,,,,
,,,,,,,,,,,,001,2023-11-08_11h32.04.790,vowel_harmony,2023.2.3,Win32,60.51803437,84.6265,85.6154,,,,,,,,,,,,,,,,,,,,,,,,,,85.6154,86.5938,m,1,0.9518,,86.5938,86.5938,,0,3,3,168,1,169,kilo,3389,153.9827,2646,0.2893,4,notharmonic,1.65,word,m,,,,,,,
,,,,,,,,,,,,001,2023-11-08_11h32.04.790,vowel_harmony,2023.2.3,Win32,60.51803437,86.594,87.5828,,,,,,,,,,,,,,,,,,,,,,,,,,87.5829,88.4668,z,1,0.8672,,88.4668,88.4669,,0,4,4,293,1,294,esnan,,,,,5,notharmonic,1.85,nw,z,,,,,,,
,,,,,,,,,,,,001,2023-11-08_11h32.04.790,vowel_harmony,2023.2.3,Win32,60.51803437,88.4671,89.462,,,,,,,,,,,,,,,,,,,,,,,,,,89.462,90.2509,z,1,0.7674,,90.2509,90.251,,0,5,5,288,1,289,molit,,,,,5,notharmonic,1.95,nw,z,,,,,,,
,,,,,,,,,,,,001,2023-11-08_11h32.04.790,vowel_harmony,2023.2.3,Win32,60.51803437,90.2512,91.2456,,,,,,,,,,,,,,,,,,,,,,,,,,91.2456,91.9124,m,1,0.6371,,91.9125,91.9125,,0,6,6,163,1,164,limon,1658,75.3329,1481,0.1619,5,notharmonic,1.75,word,m,,,,,,,
,,,,,,,,,,,,001,2023-11-08_11h32.04.790,vowel_harmony,2023.2.3,Win32,60.51803437,91.9126,92.9126,,,,,,,,,,,,,,,,,,,,,,,,,,92.9127,93.7856,z,1,0.8508,,93.7857,93.7859,,0,7,7,276,1,277,iptap,,,,,5,notharmonic,1.95,nw,z,,,,,,,
,,,,,,,,,,,,001,2023-11-08_11h32.04.790,vowel_harmony,2023.2.3,Win32,60.51803437,93.7861,94.7799,,,,,,,,,,,,,,,,,,,,,,,,,,94.78,95.4137,m,1,0.601,,95.4138,95.4138,,0,8,8,140,1,141,sahil,481,21.8547,443,0.0484,5,notharmonic,1.45,word,m,,,,,,,
,,,,,,,,,,,,001,2023-11-08_11h32.04.790,vowel_harmony,2023.2.3,Win32,60.51803437,95.4139,96.4142,,,,,,,,,,,,,,,,,,,,,,,,,,96.4142,97.1703,z,1,0.7341,,97.1704,97.1704,,0,9,9,189,1,190,düvre,,,,,5,harmonic,1.85,nw,z,,,,,,,
,,,,,,,,,,,,001,2023-11-08_11h32.04.790,vowel_harmony,2023.2.3,Win32,60.51803437,97.1706,98.1647,,,,,,,,,,,,,,,,,,,,,,,,,,98.1647,98.8542,z,1,0.6674,,98.8542,98.8543,,0,10,10,282,1,283,taöz,,,,,4,notharmonic,1.9,nw,z,,,,,,,
,,,,,,,,,,,,001,2023-11-08_11h32.04.790,vowel_harmony,2023.2.3,Win32,60.51803437,98.8545,99.8487,,,,,,,,,,,,,,,,,,,,,,,,,,99.8488,100.3882,m,1,0.5173,,100.3882,100.3883,,0,11,11,129,1,130,tahmin,2353,106.911,2273,0.2485,6,notharmonic,1.6,word,m,,,,,,,
,,,,,,,,,,,,001,2023-11-08_11h32.04.790,vowel_harmony,2023.2.3,Win32,60.51803437,100.3886,101.3825,,,,,,,,,,,,,,,,,,,,,,,,,,101.3825,102.0329,m,1,0.6235,,102.0329,102.033,,0,12,12,105,1,106,sahip,10887,494.6621,9847,1.0765,5,notharmonic,1.25,word,m,,,,,,,
,,,,,,,,,,,,001,2023-11-08_11h32.04.790,vowel_harmony,2023.2.3,Win32,60.51803437,102.0331,103.0333,,,,,,,,,,,,,,,,,,,,,,,,,,103.0333,103.4333,m,1,0.3719,,103.4333,103.4334,,0,13,13,20,1,21,nefes,2871,130.4469,2553,0.2791,5,harmonic,1.8,word,m,,,,,,,
,,,,,,,,,,,,001,2023-11-08_11h32.04.790,vowel_harmony,2023.2.3,Win32,60.51803437,103.4336,104.4229,,,,,,,,,,,,,,,,,,,,,,,,,,104.4229,105.0841,z,1,0.6387,,105.0842,105.0842,,0,14,14,305,1,306,tamü,,,,,4,notharmonic,1.75,nw,z,,,,,,,
,,,,,,,,,,,,001,2023-11-08_11h32.04.790,vowel_harmony,2023.2.3,Win32,60.51803437,105.0844,106.0845,,,,,,,,,,,,,,,,,,,,,,,,,,106.0845,106.8014,z,1,0.6884,,106.8014,106.8016,,0,15,15,200,1,201,duşın,,,,,5,harmonic,1.9,nw,z,,,,,,,
,,,,,,,,,,,,001,2023-11-08_11h32.04.790,vowel_harmony,2023.2.3,Win32,60.51803437,106.8016,107.7907,,,,,,,,,,,,,,,,,,,,,,,,,,107.7907,108.4688,m,0,0.6539,,108.4688,108.4688,,0,16,16,213,1,214,kaun,,,,,4,harmonic,1.7,nw,z,,,,,,,
,,,,,,,,,,,,001,2023-11-08_11h32.04.790,vowel_harmony,2023.2.3,Win32,60.51803437,108.4689,109.4691,,,,,,,,,,,,,,,,,,,,,,,,,,109.4692,110.4025,z,1,0.9009,,110.4026,110.4027,,0,17,17,219,1,220,barlum,,,,,6,harmonic,1.9,nw,z,,,,,,,
,,,,,,,,,,,,001,2023-11-08_11h32.04.790,vowel_harmony,2023.2.3,Win32,60.51803437,110.4028,111.4033,,,,,,,,,,,,,,,,,,,,,,,,,,111.4033,111.97,m,1,0.5392,,111.9701,111.9701,,0,18,18,93,1,94,siyah,2944,133.7637,2527,0.2763,5,notharmonic,1.6,word,m,,,,,,,
,,,,,,,,,,,,001,2023-11-08_11h32.04.790,vowel_harmony,2023.2.3,Win32,60.51803437,111.9703,112.9705,,,,,,,,,,,,,,,,,,,,,,,,,,112.9705,113.454,m,1,0.4509,,113.454,113.4541,,0,19,19,100,1,101,düşman,1065,48.3894,962,0.1052,6,notharmonic,1.85,word,m,,,,,,,
,,,,,,,,,,,,001,2023-11-08_11h32.04.790,vowel_harmony,2023.2.3,Win32,60.51803437,113.4542,114.4545,,,,,,,,,,,,,,,,,,,,,,,,,,114.4545,115.2549,z,1,0.7675,,115.2549,115.2549,,0,20,20,321,1,322,makih,,,,,5,notharmonic,1.8,nw,z,,,,,,,
,,,,,,,,,,,,001,2023-11-08_11h32.04.790,vowel_harmony,2023.2.3,Win32,60.51803437,115.2551,116.255,,,,,,,,,,,,,,,,,,,,,,,,,,116.2551,117.1277,z,1,0.8505,,117.1278,117.1278,,0,21,21,315,1,316,takep,,,,,5,notharmonic,1.85,nw,z,,,,,,,
,,,,,,,,,,,,001,2023-11-08_11h32.04.790,vowel_harmony,2023.2.3,Win32,60.51803437,117.1281,118.1224,,,,,,,,,,,,,,,,,,,,,,,,,,118.1225,118.7892,z,1,0.641,,118.7892,118.7893,,0,22,22,243,1,244,korguf,,,,,6,harmonic,2,nw,z,,,,,,,
,,,,,,,,,,,,001,2023-11-08_11h32.04.790,vowel_harmony,2023.2.3,Win32,60.51803437,118.7894,119.7898,,,,,,,,,,,,,,,,,,,,,,,,,,119.7898,120.4232,m,1,0.6088,,120.4232,120.4232,,0,23,23,66,1,67,sanık,768,34.8949,699,0.0764,5,harmonic,1.85,word,m,,,,,,,
,,,,,,,,,,,,001,2023-11-08_11h32.04.790,vowel_harmony,2023.2.3,Win32,60.51803437,120.4234,121.4291,,,,,,,,,,,,,,,,,,,,,,,,,,121.4291,122.1573,z,1,0.7006,,122.1574,122.1574,,0,24,24,351,1,352,seğlık,,,,,6,notharmonic,1.9,nw,z,,,,,,,
,,,,,,,,,,,,001,2023-11-08_11h32.04.790,vowel_harmony,2023.2.3,Win32,60.51803437,122.1575,123.1578,,,,,,,,,,,,,,,,,,,,,,,,,,123.1578,123.9911,z,1,0.8106,,123.9912,123.9912,,0,25,25,345,1,346,bardeş,,,,,6,notharmonic,1.95,nw,z,,,,,,,
,,,,,,,,,,,,001,2023-11-08_11h32.04.790,vowel_harmony,2023.2.3,Win32,60.51803437,123.9914,124.9918,,,,,,,,,,,,,,,,,,,,,,,,,,124.9918,125.5418,m,1,0.526,,125.5418,125.5418,,0,26,26,141,1,142,madde,3793,172.3389,3389,0.3705,5,notharmonic,1.7,word,m,,,,,,,
,,,,,,,,,,,,001,2023-11-08_11h32.04.790,vowel_harmony,2023.2.3,Win32,60.51803437,125.542,126.5424,,,,,,,,,,,,,,,,,,,,,,,,,,126.5424,127.126,m,1,0.5506,,127.126,127.1261,,0,27,27,122,1,123,devam,17666,802.673,16284,1.7802,5,notharmonic,1.55,word,m,,,,,,,
,,,,,,,,,,,,001,2023-11-08_11h32.04.790,vowel_harmony,2023.2.3,Win32,60.51803437,127.1263,128.1263,,,,,,,,,,,,,,,,,,,,,,,,,,128.1263,128.7432,z,1,0.5886,,128.7432,128.7433,,0,28,28,246,1,247,orkın,,,,,5,harmonic,1.9,nw,z,,,,,,,
,,,,,,,,,,,,001,2023-11-08_11h32.04.790,vowel_harmony,2023.2.3,Win32,60.51803437,128.7434,129.7491,,,,,,,,,,,,,,,,,,,,,,,,,,129.7491,130.527,z,1,0.7586,,130.5271,130.5271,,0,29,29,300,1,301,nilgi,,,,,5,notharmonic,1.85,nw,z,,,,,,,
,,,,,,,,,,,,001,2023-11-08_11h32.04.790,vowel_harmony,2023.2.3,Win32,60.51803437,130.5273,131.5332,,,,,,,,,,,,,,,,,,,,,,,,,,131.5332,132.2339,z,1,0.6841,,132.2339,132.2339,,0,30,30,202,1,203,güvin,,,,,5,harmonic,1.95,nw,z,,,,,,,
,,,,,,,,,,,,001,2023-11-08_11h32.04.790,vowel_harmony,2023.2.3,Win32,60.51803437,132.2341,133.2283,,,,,,,,,,,,,,,,,,,,,,,,,,133.2283,133.7784,m,1,0.5206,,133.7784,133.7784,,0,31,31,179,1,180,dakika,5891,267.6637,5207,0.5692,6,notharmonic,1.75,word,m,,,,,,,
,,,,,,,,,,,,001,2023-11-08_11h32.04.790,vowel_harmony,2023.2.3,Win32,60.51803437,133.7786,134.7839,,,,,,,,,,,,,,,,,,,,,,,,,,134.784,135.335,m,1,0.5343,,135.3351,135.3351,,0,32,32,59,1,60,köpek,1044,47.4352,901,0.0985,5,harmonic,1.75,word,m,,,,,,,
,,,,,,,,,,,,001,2023-11-08_11h32.04.790,vowel_harmony,2023.2.3,Win32,60.51803437,135.3354,136.3298,,,,,,,,,,,,,,,,,,,,,,,,,,136.3298,136.9964,z,1,0.6341,,136.9964,136.9964,,0,33,33,258,1,259,karıha,,,,,6,harmonic,1.75,nw,z,,,,,,,
,,,,,,,,,,,,001,2023-11-08_11h32.04.790,vowel_harmony,2023.2.3,Win32,60.51803437,136.9965,137.9968,,,,,,,,,,,,,,,,,,,,,,,,,,137.9968,138.497,m,1,0.47,,138.497,138.497,,0,34,34,89,1,90,etki,1234,56.0681,1169,0.1278,4,harmonic,1.4,word,m,,,,,,,
,,,,,,,,,,,,001,2023-11-08_11h32.04.790,vowel_harmony,2023.2.3,Win32,60.51803437,138.4972,139.4974,,,,,,,,,,,,,,,,,,,,,,,,,,139.4974,140.1533,z,1,0.6338,,140.1534,140.1535,,0,35,35,346,1,347,kidan,,,,,5,notharmonic,1.8,nw,z,,,,,,,
,,,,,,,,,,,,001,2023-11-08_11h32.04.790,vowel_harmony,2023.2.3,Win32,60.51803437,140.1538,141.1479,,,,,,,,,,,,,,,,,,,,,,,,,,141.1479,141.7479,z,1,0.5762,,141.7479,141.7479,,0,36,36,324,1,325,pakeh,,,,,5,notharmonic,1.9,nw,z,,,,,,,
,,,,,,,,,,,,001,2023-11-08_11h32.04.790,vowel_harmony,2023.2.3,Win32,60.51803437,141.7481,142.7374,,,,,,,,,,,,,,,,,,,,,,,,,,142.7375,143.3155,m,1,0.5505,,143.3155,143.3156,,0,37,37,14,1,15,yaşam,4348,197.5559,3918,0.4283,5,harmonic,1.4,word,m,,,,,,,
,,,,,,,,,,,,001,2023-11-08_11h32.04.790,vowel_harmony,2023.2.3,Win32,60.51803437,143.3157,144.3158,,,,,,,,,,,,,,,,,,,,,,,,,,144.3158,144.8218,m,1,0.4839,,144.8218,144.8218,,0,38,38,50,1,51,kanun,1198,54.4324,1010,0.1104,5,harmonic,1.6,word,m,,,,,,,
,,,,,,,,,,,,001,2023-11-08_11h32.04.790,vowel_harmony,2023.2.3,Win32,60.51803437,144.8221,145.8164,,,,,,,,,,,,,,,,,,,,,,,,,,145.8165,146.4831,z,1,0.6394,,146.4832,146.4832,,0,39,39,201,1,202,ergiy,,,,,5,harmonic,1.85,nw,z,,,,,,,
,,,,,,,,,,,,001,2023-11-08_11h32.04.790,vowel_harmony,2023.2.3,Win32,60.51803437,146.4834,147.4838,,,,,,,,,,,,,,,,,,,,,,,,,,147.4838,147.9837,m,1,0.4673,,147.9837,147.9837,,0,40,40,53,1,54,gelir,7578,344.3143,7014,0.7668,5,harmonic,1.4,word,m,,,,,,,
,,,,,,,,,,,,001,2023-11-08_11h32.04.790,vowel_harmony,2023.2.3,Win32,60.51803437,147.9839,148.9897,,,,,,,,,,,,,,,,,,,,,,,,,,148.9897,149.5734,m,1,0.567,,149.5734,149.5734,,0,41,41,7,1,8,hizmet,3023,137.3531,2689,0.294,6,harmonic,1.75,word,m,,,,,,,
,,,,,,,,,,,,001,2023-11-08_11h32.04.790,vowel_harmony,2023.2.3,Win32,60.51803437,149.5736,150.5682,,,,,,,,,,,,,,,,,,,,,,,,,,150.5682,151.1185,m,1,0.5173,,151.1185,151.1185,,0,42,42,110,1,111,rüya,1062,48.2531,937,0.1024,4,notharmonic,1.75,word,m,,,,,,,
,,,,,,,,,,,,001,2023-11-08_11h32.04.790,vowel_harmony,2023.2.3,Win32,60.51803437,151.1187,152.1077,,,,,,,,,,,,,,,,,,,,,,,,,,152.1078,152.7415,z,1,0.6171,,152.7415,152.7415,,0,43,43,348,1,349,aife,,,,,4,notharmonic,1.75,nw,z,,,,,,,
,,,,,,,,,,,,001,2023-11-08_11h32.04.790,vowel_harmony,2023.2.3,Win32,60.51803437,152.7418,153.736,,,,,,,,,,,,,,,,,,,,,,,,,,153.736,154.2528,m,0,0.493,,154.2528,154.2528,,0,44,44,225,1,226,düvem,,,,,5,harmonic,1.7,nw,z,,,,,,,
,,,,,,,,,,,,001,2023-11-08_11h32.04.790,vowel_harmony,2023.2.3,Win32,60.51803437,154.2531,155.2589,,,,,,,,,,,,,,,,,,,,,,,,,,155.2589,155.9369,z,1,0.652,,155.9369,155.9369,,0,45,45,218,1,219,tezöl,,,,,5,harmonic,2,nw,z,,,,,,,
,,,,,,,,,,,,001,2023-11-08_11h32.04.790,vowel_harmony,2023.2.3,Win32,60.51803437,155.937,156.9263,,,,,,,,,,,,,,,,,,,,,,,,,,156.9263,157.9602,z,1,1.0174,,157.9603,157.9603,,0,46,46,265,1,266,parula,,,,,6,harmonic,1.75,nw,z,,,,,,,
,,,,,,,,,,,,001,2023-11-08_11h32.04.790,vowel_harmony,2023.2.3,Win32,60.51803437,157.9605,158.9549,,,,,,,,,,,,,,,,,,,,,,,,,,158.9549,159.7776,z,1,0.8008,,159.7776,159.7776,,0,47,47,326,1,327,ailo,,,,,4,notharmonic,1.75,nw,z,,,,,,,
,,,,,,,,,,,,001,2023-11-08_11h32.04.790,vowel_harmony,2023.2.3,Win32,60.51803437,159.7778,160.7722,,,,,,,,,,,,,,,,,,,,,,,,,,160.7722,161.3056,m,1,0.5091,,161.3056,161.3056,,0,48,48,169,1,170,hikaye,1555,70.653,1405,0.1536,6,notharmonic,1.8,word,m,,,,,,,
,,,,,,,,,,,,001,2023-11-08_11h32.04.790,vowel_harmony,2023.2.3,Win32,60.51803437,161.3058,162.3061,,,,,,,,,,,,,,,,,,,,,,,,,,162.3061,162.8452,z,0,0.517,,162.8452,162.8452,,0,49,49,10,1,11,bardak,1728,78.5135,1569,0.1715,6,harmonic,1.6,word,m,,,,,,,
,,,,,,,,,,,,001,2023-11-08_11h32.04.790,vowel_harmony,2023.2.3,Win32,60.51803437,162.8454,163.84,,,,,,,,,,,,,,,,,,,,,,,,,,163.84,164.7569,m,1,0.8839,,164.7569,164.7569,,0,50,50,172,1,173,milyar,1496,67.9723,1078,0.1178,6,notharmonic,1.85,word,m,,,,,,,
,,,,,,,,,,,,001,2023-11-08_11h32.04.790,vowel_harmony,2023.2.3,Win32,60.51803437,164.7571,165.7574,,,,,,,,,,,,,,,,,,,,,,,,,,165.7574,166.4578,m,1,0.6672,,166.4578,166.4579,,0,51,51,128,1,129,tatil,2152,97.7783,1865,0.2039,5,notharmonic,1.7,word,m,,,,,,,
,,,,,,,,,,,,001,2023-11-08_11h32.04.790,vowel_harmony,2023.2.3,Win32,60.51803437,166.458,167.4581,,,,,,,,,,,,,,,,,,,,,,,,,,167.4581,168.2414,m,1,0.7605,,168.2414,168.2415,,0,52,52,127,1,128,şahane,1153,52.3877,1108,0.1211,6,notharmonic,1.8,word,m,,,,,,,
,,,,,,,,,,,,001,2023-11-08_11h32.04.790,vowel_harmony,2023.2.3,Win32,60.51803437,168.2416,169.2421,,,,,,,,,,,,,,,,,,,,,,,,,,169.2421,169.9924,z,1,0.7174,,169.9924,169.9925,,0,53,53,352,1,353,yılden,,,,,6,notharmonic,1.8,nw,z,,,,,,,
,,,,,,,,,,,,001,2023-11-08_11h32.04.790,vowel_harmony,2023.2.3,Win32,60.51803437,169.9926,170.9927,,,,,,,,,,,,,,,,,,,,,,,,,,170.9928,171.9595,m,1,0.9358,,171.9595,171.9596,,0,54,54,114,1,115,nisan,2321,105.457,2044,0.2235,5,notharmonic,1.6,word,m,,,,,,,
,,,,,,,,,,,,001,2023-11-08_11h32.04.790,vowel_harmony,2023.2.3,Win32,60.51803437,171.9598,172.9601,,,,,,,,,,,,,,,,,,,,,,,,,,172.9601,173.7437,z,1,0.7509,,173.7437,173.7437,,0,55,55,275,1,276,tahçe,,,,,5,notharmonic,1.95,nw,z,,,,,,,
,,,,,,,,,,,,001,2023-11-08_11h32.04.790,vowel_harmony,2023.2.3,Win32,60.51803437,173.7438,174.7442,,,,,,,,,,,,,,,,,,,,,,,,,,174.7442,175.4109,z,1,0.6428,,175.4109,175.411,,0,56,56,331,1,332,ehun,,,,,4,notharmonic,1.95,nw,z,,,,,,,
,,,,,,,,,,,,001,2023-11-08_11h32.04.790,vowel_harmony,2023.2.3,Win32,60.51803437,175.4111,176.4114,,,,,,,,,,,,,,,,,,,,,,,,,,176.4115,177.0115,z,1,0.5676,,177.0115,177.0115,,0,57,57,262,1,263,sauk,,,,,4,harmonic,1.85,nw,z,,,,,,,
,,,,,,,,,,,,001,2023-11-08_11h32.04.790,vowel_harmony,2023.2.3,Win32,60.51803437,177.0117,178.0121,,,,,,,,,,,,,,,,,,,,,,,,,,178.0121,178.6954,z,1,0.6572,,178.6954,178.6954,,0,58,58,344,1,345,barika,,,,,6,notharmonic,1.75,nw,z,,,,,,,
,,,,,,,,,,,,001,2023-11-08_11h32.04.790,vowel_harmony,2023.2.3,Win32,60.51803437,178.6956,179.6848,,,,,,,,,,,,,,,,,,,,,,,,,,179.6848,180.2463,m,1,0.5401,,180.2463,180.2463,,0,59,59,79,1,80,durum,6783,308.1926,6431,0.703,5,harmonic,1.7,word,m,,,,,,,
,,,,,,,,,,,,001,2023-11-08_11h32.04.790,vowel_harmony,2023.2.3,Win32,60.51803437,180.2465,181.2467,,,,,,,,,,,,,,,,,,,,,,,,,,181.2467,181.8133,m,1,0.544,,181.8133,181.8133,,0,60,60,135,1,136,hafif,3355,152.4379,3101,0.339,5,notharmonic,1.75,word,m,,,,,,,
,,,,,,,,,,,,001,2023-11-08_11h32.04.790,vowel_harmony,2023.2.3,Win32,60.51803437,181.8134,182.8139,,,,,,,,,,,,,,,,,,,,,,,,,,182.814,183.3032,m,1,0.4671,,183.3033,183.3033,,0,61,61,139,1,140,lira,1253,56.9314,947,0.1035,4,notharmonic,1.4,word,m,,,,,,,
,,,,,,,,,,,,001,2023-11-08_11h32.04.790,vowel_harmony,2023.2.3,Win32,60.51803437,183.3035,184.2979,,,,,,,,,,,,,,,,,,,,,,,,,,184.2979,184.8144,m,1,0.4933,,184.8144,184.8144,,0,62,62,3,1,4,minik,2916,132.4915,2594,0.2836,5,harmonic,1.6,word,m,,,,,,,
,,,,,,,,,,,,001,2023-11-08_11h32.04.790,vowel_harmony,2023.2.3,Win32,60.51803437,184.8146,185.8039,,,,,,,,,,,,,,,,,,,,,,,,,,185.804,186.4044,m,1,0.5839,,186.4044,186.4044,,0,63,63,73,1,74,millet,1658,75.3329,1508,0.1649,6,harmonic,1.7,word,m,,,,,,,
,,,,,,,,,,,,001,2023-11-08_11h32.04.790,vowel_harmony,2023.2.3,Win32,60.51803437,186.4046,187.3991,,,,,,,,,,,,,,,,,,,,,,,,,,187.3991,188.266,z,1,0.8451,,188.266,188.2661,,0,64,64,312,1,313,şahmin,,,,,6,notharmonic,1.8,nw,z,,,,,,,
,,,,,,,,,,,,001,2023-11-08_11h32.04.790,vowel_harmony,2023.2.3,Win32,60.51803437,188.2664,189.2664,,,,,,,,,,,,,,,,,,,,,,,,,,189.2664,189.9166,m,1,0.6173,,189.9166,189.9166,,0,65,65,49,1,50,şeker,4708,213.9128,4170,0.4559,5,harmonic,1.6,word,m,,,,,,,
,,,,,,,,,,,,001,2023-11-08_11h32.04.790,vowel_harmony,2023.2.3,Win32,60.51803437,189.9168,190.9226,,,,,,,,,,,,,,,,,,,,,,,,,,190.9226,191.3837,m,1,0.4437,,191.3837,191.3838,,0,66,66,146,1,147,mavi,2206,100.2319,1934,0.2114,4,notharmonic,1.45,word,m,,,,,,,
,,,,,,,,,,,,001,2023-11-08_11h32.04.790,vowel_harmony,2023.2.3,Win32,60.51803437,191.384,192.3731,,,,,,,,,,,,,,,,,,,,,,,,,,192.3731,193.0678,z,1,0.6673,,193.0678,193.0679,,0,67,67,204,1,205,gerkez,,,,,6,harmonic,1.9,nw,z,,,,,,,
,,,,,,,,,,,,001,2023-11-08_11h32.04.790,vowel_harmony,2023.2.3,Win32,60.51803437,193.068,194.0738,,,,,,,,,,,,,,,,,,,,,,,,,,194.0738,194.9186,m,1,0.8173,,194.9186,194.9187,,0,68,68,124,1,125,ilan,1579,71.7435,1499,0.1639,4,notharmonic,1,word,m,,,,,,,
,,,,,,,,,,,,001,2023-11-08_11h32.04.790,vowel_harmony,2023.2.3,Win32,60.51803437,194.9188,195.919,,,,,,,,,,,,,,,,,,,,,,,,,,195.919,196.6859,z,1,0.7345,,196.6859,196.686,,0,69,69,296,1,297,işban,,,,,5,notharmonic,1.95,nw,z,,,,,,,
,,,,,,,,,,,,001,2023-11-08_11h32.04.790,vowel_harmony,2023.2.3,Win32,60.51803437,196.6862,197.675,,,,,,,,,,,,,,,,,,,,,,,,,,197.6751,198.3365,z,1,0.6384,,198.3366,198.3366,,0,70,70,192,1,193,vecö,,,,,4,harmonic,1.95,nw,z,,,,,,,
,,,,,,,,,,,,001,2023-11-08_11h32.04.790,vowel_harmony,2023.2.3,Win32,60.51803437,198.3368,199.3368,,,,,,,,,,,,,,,,,,,,,,,,,,199.3369,200.1037,z,1,0.7425,,200.1037,200.1038,,0,71,71,340,1,341,minya,,,,,5,notharmonic,1.95,nw,z,,,,,,,
,,,,,,,,,,,,001,2023-11-08_11h32.04.790,vowel_harmony,2023.2.3,Win32,60.51803437,200.104,201.1043,,,,,,,,,,,,,,,,,,,,,,,,,,201.1043,201.9044,z,1,0.7745,,201.9044,201.9045,,0,72,72,252,1,253,anlgı,,,,,5,harmonic,1.9,nw,z,,,,,,,
,,,,,,,,,,,,001,2023-11-08_11h32.04.790,vowel_harmony,2023.2.3,Win32,60.51803437,201.9047,202.905,,,,,,,,,,,,,,,,,,,,,,,,,,202.905,203.5551,z,1,0.6274,,203.5551,203.5551,,0,73,73,224,1,225,ertre,,,,,5,harmonic,1.95,nw,z,,,,,,,
,,,,,,,,,,,,001,2023-11-08_11h32.04.790,vowel_harmony,2023.2.3,Win32,60.51803437,203.5552,204.5611,,,,,,,,,,,,,,,,,,,,,,,,,,204.5612,205.1558,m,1,0.5676,,205.1558,205.1558,,0,74,74,144,1,145,garip,2567,116.6343,2355,0.2574,5,notharmonic,1.65,word,m,,,,,,,
,,,,,,,,,,,,001,2023-11-08_11h32.04.790,vowel_harmony,2023.2.3,Win32,60.51803437,205.1561,206.1561,,,,,,,,,,,,,,,,,,,,,,,,,,206.1561,206.7395,m,1,0.5582,,206.7395,206.7395,,0,75,75,132,1,133,modern,2326,105.6842,2031,0.222,6,notharmonic,1.85,word,m,,,,,,,
,,,,,,,,,,,,001,2023-11-08_11h32.04.790,vowel_harmony,2023.2.3,Win32,60.51803437,206.7397,207.74,,,,,,,,,,,,,,,,,,,,,,,,,,207.7401,208.5071,z,1,0.7341,,208.5072,208.5072,,0,76,76,347,1,348,tekram,,,,,6,notharmonic,1.95,nw,z,,,,,,,
,,,,,,,,,,,,001,2023-11-08_11h32.04.790,vowel_harmony,2023.2.3,Win32,60.51803437,208.5073,209.5131,,,,,,,,,,,,,,,,,,,,,,,,,,209.5131,210.2075,z,1,0.6757,,210.2075,210.2075,,0,77,77,279,1,280,tadde,,,,,5,notharmonic,1.8,nw,z,,,,,,,
,,,,,,,,,,,,001,2023-11-08_11h32.04.790,vowel_harmony,2023.2.3,Win32,60.51803437,210.2077,211.2081,,,,,,,,,,,,,,,,,,,,,,,,,,211.2081,212.0418,z,1,0.8006,,212.0418,212.0418,,0,78,78,186,1,187,habık,,,,,5,harmonic,1.9,nw,z,,,,,,,
,,,,,,,,,,,,001,2023-11-08_11h32.04.790,vowel_harmony,2023.2.3,Win32,60.51803437,212.042,213.0422,,,,,,,,,,,,,,,,,,,,,,,,,,213.0422,213.509,m,1,0.4339,,213.5091,213.5091,,0,79,79,2,1,3,radyo,763,34.6677,636,0.0695,5,harmonic,1.85,word,m,,,,,,,
,,,,,,,,,,,,001,2023-11-08_11h32.04.790,vowel_harmony,2023.2.3,Win32,60.51803437,213.5092,214.5095,,,,,,,,,,,,,,,,,,,,,,,,,,214.5095,215.0931,m,1,0.5521,,215.0931,215.0931,,0,80,80,57,1,58,bölüm,1910,86.7828,1605,0.1755,5,harmonic,1.45,word,m,,,,,,,
,,,,,,,,,,,,001,2023-11-08_11h32.04.790,vowel_harmony,2023.2.3,Win32,60.51803437,215.0932,216.0934,,,,,,,,,,,,,,,,,,,,,,,,,,216.0934,216.7603,z,1,0.6347,,216.7603,216.7603,,0,81,81,359,1,360,kardez,,,,,6,notharmonic,1.95,nw,z,,,,,,,
,,,,,,,,,,,,001,2023-11-08_11h32.04.790,vowel_harmony,2023.2.3,Win32,60.51803437,216.7605,217.766,,,,,,,,,,,,,,,,,,,,,,,,,,217.766,218.4666,z,1,0.6838,,218.4667,218.4668,,0,82,82,358,1,359,yangin,,,,,6,notharmonic,1.9,nw,z,,,,,,,
,,,,,,,,,,,,001,2023-11-08_11h32.04.790,vowel_harmony,2023.2.3,Win32,60.51803437,218.467,219.4613,,,,,,,,,,,,,,,,,,,,,,,,,,219.4613,220.1116,z,1,0.6193,,220.1116,220.1116,,0,83,83,203,1,204,döves,,,,,5,harmonic,1.8,nw,z,,,,,,,
,,,,,,,,,,,,001,2023-11-08_11h32.04.790,vowel_harmony,2023.2.3,Win32,60.51803437,220.1118,221.1118,,,,,,,,,,,,,,,,,,,,,,,,,,221.1118,221.6287,m,1,0.4946,,221.6287,221.6287,,0,84,84,26,1,27,sebze,1094,49.707,961,0.1051,5,harmonic,1.9,word,m,,,,,,,
,,,,,,,,,,,,001,2023-11-08_11h32.04.790,vowel_harmony,2023.2.3,Win32,60.51803437,221.6289,222.6292,,,,,,,,,,,,,,,,,,,,,,,,,,222.6292,223.1461,z,1,0.4948,,223.1462,223.1462,,0,85,85,287,1,288,haköm,,,,,5,notharmonic,1.9,nw,z,,,,,,,
,,,,,,,,,,,,001,2023-11-08_11h32.04.790,vowel_harmony,2023.2.3,Win32,60.51803437,223.1466,224.1464,,,,,,,,,,,,,,,,,,,,,,,,,,224.1464,224.6464,m,1,0.4759,,224.6464,224.6465,,0,86,86,40,1,41,tepki,1695,77.0141,1578,0.1725,5,harmonic,1.55,word,m,,,,,,,
,,,,,,,,,,,,001,2023-11-08_11h32.04.790,vowel_harmony,2023.2.3,Win32,60.51803437,224.6466,225.6523,,,,,,,,,,,,,,,,,,,,,,,,,,225.6524,226.6472,m,1,0.9737,,226.6472,226.6473,,0,87,87,88,1,89,yalnız,5891,267.6637,5440,0.5947,6,harmonic,1.6,word,m,,,,,,,
,,,,,,,,,,,,001,2023-11-08_11h32.04.790,vowel_harmony,2023.2.3,Win32,60.51803437,226.6474,227.6533,,,,,,,,,,,,,,,,,,,,,,,,,,227.6533,228.2978,z,1,0.6245,,228.2979,228.2979,,0,88,88,285,1,286,iklon,,,,,5,notharmonic,1.85,nw,z,,,,,,,
,,,,,,,,,,,,001,2023-11-08_11h32.04.790,vowel_harmony,2023.2.3,Win32,60.51803437,228.2981,229.2983,,,,,,,,,,,,,,,,,,,,,,,,,,229.2983,229.8709,m,1,0.5506,,229.8709,229.8709,,0,89,89,117,1,118,nasip,1069,48.5711,1042,0.1139,5,notharmonic,1.8,word,m,,,,,,,
,,,,,,,,,,,,001,2023-11-08_11h32.04.790,vowel_harmony,2023.2.3,Win32,60.51803437,229.8712,230.8656,,,,,,,,,,,,,,,,,,,,,,,,,,230.8656,231.3993,z,1,0.5028,,231.3994,231.3995,,0,90,90,319,1,320,biho,,,,,4,notharmonic,2,nw,z,,,,,,,
,,,,,,,,,,,,001,2023-11-08_11h32.04.790,vowel_harmony,2023.2.3,Win32,60.51803437,231.3995,232.4053,,,,,,,,,,,,,,,,,,,,,,,,,,232.4053,233.0221,z,1,0.6004,,233.0222,233.0223,,0,91,91,328,1,329,kirul,,,,,5,notharmonic,1.95,nw,z,,,,,,,
,,,,,,,,,,,,001,2023-11-08_11h32.04.790,vowel_harmony,2023.2.3,Win32,60.51803437,233.0225,234.0169,,,,,,,,,,,,,,,,,,,,,,,,,,234.0169,234.717,z,1,0.6739,,234.717,234.7171,,0,92,92,228,1,229,haytam,,,,,6,harmonic,1.75,nw,z,,,,,,,
,,,,,,,,,,,,001,2023-11-08_11h32.04.790,vowel_harmony,2023.2.3,Win32,60.51803437,234.7172,235.7062,,,,,,,,,,,,,,,,,,,,,,,,,,235.7062,236.2516,m,1,0.5215,,236.2516,236.2516,,0,93,93,9,1,10,karar,8108,368.3954,7436,0.8129,5,harmonic,1.6,word,m,,,,,,,
,,,,,,,,,,,,001,2023-11-08_11h32.04.790,vowel_harmony,2023.2.3,Win32,60.51803437,236.2518,237.2514,,,,,,,,,,,,,,,,,,,,,,,,,,237.2514,237.8513,z,1,0.5766,,237.8513,237.8514,,0,94,94,197,1,198,ranar,,,,,5,harmonic,1.75,nw,z,,,,,,,
,,,,,,,,,,,,001,2023-11-08_11h32.04.790,vowel_harmony,2023.2.3,Win32,60.51803437,237.8515,238.8576,,,,,,,,,,,,,,,,,,,,,,,,,,238.8576,239.4356,z,1,0.5505,,239.4356,239.4356,,0,95,95,353,1,354,ikno,,,,,4,notharmonic,1.95,nw,z,,,,,,,
,,,,,,,,,,,,001,2023-11-08_11h32.04.790,vowel_harmony,2023.2.3,Win32,60.51803437,239.4358,240.4247,,,,,,,,,,,,,,,,,,,,,,,,,,240.4247,240.9695,z,1,0.5174,,240.9695,240.9696,,0,96,96,188,1,189,tonık,,,,,5,harmonic,1.85,nw,z,,,,,,,
,,,,,,,,,,,,001,2023-11-08_11h32.04.790,vowel_harmony,2023.2.3,Win32,60.51803437,240.9698,241.9588,,,,,,,,,,,,,,,,,,,,,,,,,,241.9588,242.4865,m,1,0.5111,,242.4866,242.4866,,0,97,97,70,1,71,yarın,3440,156.3,3222,0.3522,5,harmonic,1.85,word,m,,,,,,,
,,,,,,,,,,,,001,2023-11-08_11h32.04.790,vowel_harmony,2023.2.3,Win32,60.51803437,242.4869,243.493,,,,,,,,,,,,,,,,,,,,,,,,,,243.493,244.1542,z,1,0.6341,,244.1542,244.1542,,0,98,98,350,1,351,resun,,,,,5,notharmonic,1.85,nw,z,,,,,,,
,,,,,,,,,,,,001,2023-11-08_11h32.04.790,vowel_harmony,2023.2.3,Win32,60.51803437,244.1544,245.1545,,,,,,,,,,,,,,,,,,,,,,,,,,245.1545,245.7381,m,1,0.5556,,245.7381,245.7382,,0,99,99,52,1,53,resim,2506,113.8627,2188,0.2392,5,harmonic,1.4,word,m,,,,,,,
,,,,,,,,,,,,001,2023-11-08_11h32.04.790,vowel_harmony,2023.2.3,Win32,60.51803437,245.7383,246.7385,,,,,,,,,,,,,,,,,,,,,,,,,,246.7385,247.4779,z,1,0.7174,,247.478,247.478,,0,100,100,301,1,302,mezak,,,,,5,notharmonic,1.8,nw,z,,,,,,,
,,,,,,,,,,,,001,2023-11-08_11h32.04.790,vowel_harmony,2023.2.3,Win32,60.51803437,247.4782,248.4724,,,,,,,,,,,,,,,,,,,,,,,,,,248.4724,249.0892,z,1,0.5925,,249.0893,249.0893,,0,101,101,223,1,224,kakon,,,,,5,harmonic,1.85,nw,z,,,,,,,
,,,,,,,,,,,,001,2023-11-08_11h32.04.790,vowel_harmony,2023.2.3,Win32,60.51803437,249.0894,250.0951,,,,,,,,,,,,,,,,,,,,,,,,,,250.0952,250.6623,z,1,0.5502,,250.6623,250.6624,,0,102,102,355,1,356,adül,,,,,4,notharmonic,1.85,nw,z,,,,,,,
,,,,,,,,,,,,001,2023-11-08_11h32.04.790,vowel_harmony,2023.2.3,Win32,60.51803437,250.6626,251.6623,,,,,,,,,,,,,,,,,,,,,,,,,,251.6623,252.2237,m,1,0.539,,252.2237,252.2237,,0,103,103,29,1,30,huzur,1911,86.8283,1799,0.1967,5,harmonic,1.8,word,m,,,,,,,
,,,,,,,,,,,,001,2023-11-08_11h32.04.790,vowel_harmony,2023.2.3,Win32,60.51803437,252.2238,253.2297,,,,,,,,,,,,,,,,,,,,,,,,,,253.2297,253.7468,m,1,0.5004,,253.7468,253.7468,,0,104,104,145,1,146,iddia,2430,110.4096,2295,0.2509,5,notharmonic,1.85,word,m,,,,,,,
,,,,,,,,,,,,001,2023-11-08_11h32.04.790,vowel_harmony,2023.2.3,Win32,60.51803437,253.7471,254.7415,,,,,,,,,,,,,,,,,,,,,,,,,,254.7415,255.4084,z,1,0.6339,,255.4085,255.4085,,0,105,105,180,1,181,ayaro,,,,,5,harmonic,1.8,nw,z,,,,,,,
,,,,,,,,,,,,001,2023-11-08_11h32.04.790,vowel_harmony,2023.2.3,Win32,60.51803437,255.4086,256.4143,,,,,,,,,,,,,,,,,,,,,,,,,,256.4144,257.0646,z,1,0.6339,,257.0647,257.0647,,0,106,106,248,1,249,şegim,,,,,5,harmonic,1.9,nw,z,,,,,,,
,,,,,,,,,,,,001,2023-11-08_11h32.04.790,vowel_harmony,2023.2.3,Win32,60.51803437,257.065,258.0594,,,,,,,,,,,,,,,,,,,,,,,,,,258.0594,258.6487,m,1,0.5671,,258.6488,258.6488,,0,107,107,82,1,83,aday,1028,46.7082,873,0.0954,4,harmonic,1.45,word,m,,,,,,,
,,,,,,,,,,,,001,2023-11-08_11h32.04.790,vowel_harmony,2023.2.3,Win32,60.51803437,258.6491,259.6433,,,,,,,,,,,,,,,,,,,,,,,,,,259.6433,260.2768,z,1,0.6026,,260.2768,260.2769,,0,108,108,184,1,185,yapor,,,,,5,harmonic,1.9,nw,z,,,,,,,
,,,,,,,,,,,,001,2023-11-08_11h32.04.790,vowel_harmony,2023.2.3,Win32,60.51803437,260.2771,261.2773,,,,,,,,,,,,,,,,,,,,,,,,,,261.2773,261.7943,m,1,0.484,,261.7943,261.7943,,0,109,109,22,1,23,anlam,1730,78.6043,1617,0.1768,5,harmonic,1.25,word,m,,,,,,,
,,,,,,,,,,,,001,2023-11-08_11h32.04.790,vowel_harmony,2023.2.3,Win32,60.51803437,261.7944,262.7834,,,,,,,,,,,,,,,,,,,,,,,,,,262.7834,263.334,m,1,0.5338,,263.334,263.334,,0,110,110,121,1,122,mesaj,1604,72.8794,1386,0.1515,5,notharmonic,1.8,word,m,,,,,,,
,,,,,,,,,,,,001,2023-11-08_11h32.04.790,vowel_harmony,2023.2.3,Win32,60.51803437,263.3343,264.3285,,,,,,,,,,,,,,,,,,,,,,,,,,264.3286,264.8512,z,1,0.5005,,264.8512,264.8512,,0,111,111,235,1,236,oşup,,,,,4,harmonic,1.75,nw,z,,,,,,,
,,,,,,,,,,,,001,2023-11-08_11h32.04.790,vowel_harmony,2023.2.3,Win32,60.51803437,264.8515,265.8457,,,,,,,,,,,,,,,,,,,,,,,,,,265.8457,266.4293,z,1,0.5568,,266.4293,266.4293,,0,112,112,187,1,188,remrin,,,,,6,harmonic,1.9,nw,z,,,,,,,
,,,,,,,,,,,,001,2023-11-08_11h32.04.790,vowel_harmony,2023.2.3,Win32,60.51803437,266.4294,267.4185,,,,,,,,,,,,,,,,,,,,,,,,,,267.4185,267.8858,m,1,0.4506,,267.8858,267.8858,,0,113,113,65,1,66,fikir,2552,115.9528,2413,0.2638,5,harmonic,1.9,word,m,,,,,,,
,,,,,,,,,,,,001,2023-11-08_11h32.04.790,vowel_harmony,2023.2.3,Win32,60.51803437,267.8861,268.8857,,,,,,,,,,,,,,,,,,,,,,,,,,268.8858,269.4304,m,1,0.5173,,269.4304,269.4305,,0,114,114,45,1,46,bilgi,5981,271.7529,5353,0.5852,5,harmonic,1.5,word,m,,,,,,,
,,,,,,,,,,,,001,2023-11-08_11h32.04.790,vowel_harmony,2023.2.3,Win32,60.51803437,269.4307,270.4198,,,,,,,,,,,,,,,,,,,,,,,,,,270.4198,270.9369,m,1,0.5003,,270.9369,270.937,,0,115,115,103,1,104,tane,5623,255.4868,5075,0.5548,4,notharmonic,1.3,word,m,,,,,,,
,,,,,,,,,,,,001,2023-11-08_11h32.04.790,vowel_harmony,2023.2.3,Win32,60.51803437,270.9373,271.9312,,,,,,,,,,,,,,,,,,,,,,,,,,271.9312,272.3817,m,1,0.4173,,272.3817,272.3817,,0,116,116,174,1,175,bugün,13879,630.6067,12842,1.4039,5,notharmonic,1.85,word,m,,,,,,,
,,,,,,,,,,,,001,2023-11-08_11h32.04.790,vowel_harmony,2023.2.3,Win32,60.51803437,272.3818,273.382,,,,,,,,,,,,,,,,,,,,,,,,,,273.382,273.8822,m,1,0.4672,,273.8822,273.8823,,0,117,117,31,1,32,fazla,18293,831.1614,16694,1.825,5,harmonic,1,word,m,,,,,,,
,,,,,,,,,,,,001,2023-11-08_11h32.04.790,vowel_harmony,2023.2.3,Win32,60.51803437,273.8825,274.872,,,,,,,,,,,,,,,,,,,,,,,,,,274.872,275.4387,m,1,0.5509,,275.4388,275.4389,,0,118,118,109,1,110,milyon,3936,178.8362,2958,0.3234,6,notharmonic,1.75,word,m,,,,,,,
,,,,,,,,,,,,001,2023-11-08_11h32.04.790,vowel_harmony,2023.2.3,Win32,60.51803437,275.4391,276.4387,,,,,,,,,,,,,,,,,,,,,,,,,,276.4387,276.9558,m,1,0.5007,,276.9559,276.9559,,0,119,119,76,1,77,ilişki,1675,76.1054,1524,0.1666,6,harmonic,1.8,word,m,,,,,,,
,,,,,,,,,,,,001,2023-11-08_11h32.04.790,vowel_harmony,2023.2.3,Win32,60.51803437,276.9561,277.9503,,,,,,,,,,,,,,,,,,,,,,,,,,277.9503,278.584,z,1,0.6005,,278.5841,286.4037,space,0,120,120,250,1,251,kakuk,,,,,5,harmonic,1.9,nw,z,7.8032,,,,,,
,,,,,,,,,,,,001,2023-11-08_11h32.04.790,vowel_harmony,2023.2.3,Win32,60.51803437,286.4105,287.404,,,,,,,,,,,,,,,,,,,,,,,,,,287.4041,288.0767,z,1,0.6506,,288.0768,288.0768,,0,121,121,185,1,186,örtin,,,,,5,harmonic,1.9,nw,z,,,,,,,
,,,,,,,,,,,,001,2023-11-08_11h32.04.790,vowel_harmony,2023.2.3,Win32,60.51803437,288.0771,289.0714,,,,,,,,,,,,,,,,,,,,,,,,,,289.0714,289.7389,z,1,0.6385,,289.7389,289.739,,0,122,122,253,1,254,meslet,,,,,6,harmonic,1.85,nw,z,,,,,,,
,,,,,,,,,,,,001,2023-11-08_11h32.04.790,vowel_harmony,2023.2.3,Win32,60.51803437,289.7392,290.7384,,,,,,,,,,,,,,,,,,,,,,,,,,290.7384,291.2554,z,1,0.4869,,291.2554,291.2555,,0,123,123,247,1,248,hafgın,,,,,6,harmonic,2,nw,z,,,,,,,
,,,,,,,,,,,,001,2023-11-08_11h32.04.790,vowel_harmony,2023.2.3,Win32,60.51803437,291.2557,292.2445,,,,,,,,,,,,,,,,,,,,,,,,,,292.2445,292.8726,z,1,0.6025,,292.8726,292.8727,,0,124,124,230,1,231,bikir,,,,,5,harmonic,1.75,nw,z,,,,,,,
,,,,,,,,,,,,001,2023-11-08_11h32.04.790,vowel_harmony,2023.2.3,Win32,60.51803437,292.8729,293.8732,,,,,,,,,,,,,,,,,,,,,,,,,,293.8732,294.4068,z,1,0.5004,,294.4068,294.4068,,0,125,125,357,1,358,işarek,,,,,6,notharmonic,1.95,nw,z,,,,,,,
,,,,,,,,,,,,001,2023-11-08_11h32.04.790,vowel_harmony,2023.2.3,Win32,60.51803437,294.4069,295.4069,,,,,,,,,,,,,,,,,,,,,,,,,,295.4069,295.9741,z,1,0.5355,,295.9741,295.9741,,0,126,126,256,1,257,yaruza,,,,,6,harmonic,1.9,nw,z,,,,,,,
,,,,,,,,,,,,001,2023-11-08_11h32.04.790,vowel_harmony,2023.2.3,Win32,60.51803437,295.9742,296.9744,,,,,,,,,,,,,,,,,,,,,,,,,,296.9744,297.5411,z,1,0.5342,,297.5411,297.5411,,0,127,127,244,1,245,kaof,,,,,4,harmonic,1.9,nw,z,,,,,,,
,,,,,,,,,,,,001,2023-11-08_11h32.04.790,vowel_harmony,2023.2.3,Win32,60.51803437,297.5413,298.5415,,,,,,,,,,,,,,,,,,,,,,,,,,298.5415,299.1418,z,1,0.5725,,299.1419,299.1419,,0,128,128,215,1,216,aydo,,,,,4,harmonic,1.9,nw,z,,,,,,,
,,,,,,,,,,,,001,2023-11-08_11h32.04.790,vowel_harmony,2023.2.3,Win32,60.51803437,299.1421,300.1478,,,,,,,,,,,,,,,,,,,,,,,,,,300.1478,300.6424,z,1,0.467,,300.6424,300.6424,,0,129,129,236,1,237,toklam,,,,,6,harmonic,1.85,nw,z,,,,,,,
,,,,,,,,,,,,001,2023-11-08_11h32.04.790,vowel_harmony,2023.2.3,Win32,60.51803437,300.6426,301.6429,,,,,,,,,,,,,,,,,,,,,,,,,,301.6429,302.2431,m,1,0.5719,,302.2431,302.2432,,0,130,130,23,1,24,kurum,986,44.7999,882,0.0964,5,harmonic,1.75,word,m,,,,,,,
,,,,,,,,,,,,001,2023-11-08_11h32.04.790,vowel_harmony,2023.2.3,Win32,60.51803437,302.2435,303.2433,,,,,,,,,,,,,,,,,,,,,,,,,,303.2434,303.7433,m,1,0.4722,,303.7434,303.7434,,0,131,131,55,1,56,akıl,2208,100.3228,2004,0.2191,4,harmonic,1,word,m,,,,,,,
,,,,,,,,,,,,001,2023-11-08_11h32.04.790,vowel_harmony,2023.2.3,Win32,60.51803437,303.7435,304.7495,,,,,,,,,,,,,,,,,,,,,,,,,,304.7495,305.3,m,1,0.5338,,305.3,305.3,,0,132,132,153,1,154,inşaat,432,19.6284,376,0.0411,6,notharmonic,1.6,word,m,,,,,,,
,,,,,,,,,,,,001,2023-11-08_11h32.04.790,vowel_harmony,2023.2.3,Win32,60.51803437,305.3002,306.2945,,,,,,,,,,,,,,,,,,,,,,,,,,306.2945,306.9282,z,1,0.6009,,306.9282,306.9282,,0,133,133,306,1,307,otet,,,,,4,notharmonic,1.95,nw,z,,,,,,,
,,,,,,,,,,,,001,2023-11-08_11h32.04.790,vowel_harmony,2023.2.3,Win32,60.51803437,306.9284,307.9286,,,,,,,,,,,,,,,,,,,,,,,,,,307.9286,308.5455,m,1,0.5898,,308.5455,308.5455,,0,134,134,58,1,59,ayak,2143,97.3694,1931,0.2111,4,harmonic,1,word,m,,,,,,,
,,,,,,,,,,,,001,2023-11-08_11h32.04.790,vowel_harmony,2023.2.3,Win32,60.51803437,308.5456,309.5347,,,,,,,,,,,,,,,,,,,,,,,,,,309.5347,310.196,z,1,0.6407,,310.1961,310.1961,,0,135,135,320,1,321,finak,,,,,5,notharmonic,1.85,nw,z,,,,,,,
,,,,,,,,,,,,001,2023-11-08_11h32.04.790,vowel_harmony,2023.2.3,Win32,60.51803437,310.1962,311.2019,,,,,,,,,,,,,,,,,,,,,,,,,,311.2019,311.6966,m,1,0.472,,311.6966,311.6966,,0,136,136,80,1,81,merkez,1445,65.6551,1255,0.1372,6,harmonic,1.8,word,m,,,,,,,
,,,,,,,,,,,,001,2023-11-08_11h32.04.790,vowel_harmony,2023.2.3,Win32,60.51803437,311.6968,312.7025,,,,,,,,,,,,,,,,,,,,,,,,,,312.7025,313.1471,m,1,0.4181,,313.1471,313.1471,,0,137,137,155,1,156,ilaç,1366,62.0656,1215,0.1328,4,notharmonic,1.75,word,m,,,,,,,
,,,,,,,,,,,,001,2023-11-08_11h32.04.790,vowel_harmony,2023.2.3,Win32,60.51803437,313.1473,314.1473,,,,,,,,,,,,,,,,,,,,,,,,,,314.1474,314.6979,z,1,0.519,,314.6979,314.6979,,0,138,138,263,1,264,duzur,,,,,5,harmonic,1.8,nw,z,,,,,,,
,,,,,,,,,,,,001,2023-11-08_11h32.04.790,vowel_harmony,2023.2.3,Win32,60.51803437,314.698,315.6981,,,,,,,,,,,,,,,,,,,,,,,,,,315.6982,316.315,z,1,0.5842,,316.3151,316.3152,,0,139,139,222,1,223,gelü,,,,,4,harmonic,1.75,nw,z,,,,,,,
,,,,,,,,,,,,001,2023-11-08_11h32.04.790,vowel_harmony,2023.2.3,Win32,60.51803437,316.3154,317.3155,,,,,,,,,,,,,,,,,,,,,,,,,,317.3155,317.8994,z,1,0.5513,,317.8994,317.8995,,0,140,140,237,1,238,taşal,,,,,5,harmonic,1.8,nw,z,,,,,,,
,,,,,,,,,,,,001,2023-11-08_11h32.04.790,vowel_harmony,2023.2.3,Win32,60.51803437,317.8998,318.9048,,,,,,,,,,,,,,,,,,,,,,,,,,318.9048,319.4221,z,1,0.5007,,319.4221,319.4222,,0,141,141,341,1,342,işgan,,,,,5,notharmonic,1.95,nw,z,,,,,,,
,,,,,,,,,,,,001,2023-11-08_11h32.04.790,vowel_harmony,2023.2.3,Win32,60.51803437,319.4224,320.4166,,,,,,,,,,,,,,,,,,,,,,,,,,320.4166,320.9332,m,1,0.4935,,320.9333,320.9333,,0,142,142,17,1,18,yakın,7990,363.0339,7595,0.8303,5,harmonic,1.8,word,m,,,,,,,
,,,,,,,,,,,,001,2023-11-08_11h32.04.790,vowel_harmony,2023.2.3,Win32,60.51803437,320.9335,321.9396,,,,,,,,,,,,,,,,,,,,,,,,,,321.9396,322.5339,m,1,0.5758,,322.5339,322.5339,,0,143,143,96,1,97,dahil,3189,144.8955,3060,0.3345,5,notharmonic,1.7,word,m,,,,,,,
,,,,,,,,,,,,001,2023-11-08_11h32.04.790,vowel_harmony,2023.2.3,Win32,60.51803437,322.5341,323.5401,,,,,,,,,,,,,,,,,,,,,,,,,,323.5402,323.9681,m,1,0.4007,,323.9681,323.9681,,0,144,144,84,1,85,ülke,3121,141.8059,2801,0.3062,4,harmonic,1.65,word,m,,,,,,,
,,,,,,,,,,,,001,2023-11-08_11h32.04.790,vowel_harmony,2023.2.3,Win32,60.51803437,323.9682,324.9685,,,,,,,,,,,,,,,,,,,,,,,,,,324.9685,325.5851,z,1,0.584,,325.5851,325.5852,,0,145,145,209,1,210,sapor,,,,,5,harmonic,1.8,nw,z,,,,,,,
,,,,,,,,,,,,001,2023-11-08_11h32.04.790,vowel_harmony,2023.2.3,Win32,60.51803437,325.5853,326.5857,,,,,,,,,,,,,,,,,,,,,,,,,,326.5857,327.0859,m,1,0.4713,,327.0859,327.086,,0,146,146,131,1,132,hakim,1677,76.1962,1559,0.1704,5,notharmonic,1,word,m,,,,,,,
,,,,,,,,,,,,001,2023-11-08_11h32.04.790,vowel_harmony,2023.2.3,Win32,60.51803437,327.0864,328.0864,,,,,,,,,,,,,,,,,,,,,,,,,,328.0864,328.6029,z,1,0.4906,,328.6029,328.6029,,0,147,147,267,1,268,nokuma,,,,,6,harmonic,1.75,nw,z,,,,,,,
,,,,,,,,,,,,001,2023-11-08_11h32.04.790,vowel_harmony,2023.2.3,Win32,60.51803437,328.6031,329.6033,,,,,,,,,,,,,,,,,,,,,,,,,,329.6033,330.0426,m,1,0.417,,330.0426,330.0427,,0,148,148,115,1,116,saniye,1088,49.4344,984,0.1076,6,notharmonic,1.35,word,m,,,,,,,
,,,,,,,,,,,,001,2023-11-08_11h32.04.790,vowel_harmony,2023.2.3,Win32,60.51803437,330.043,331.0374,,,,,,,,,,,,,,,,,,,,,,,,,,331.0374,331.6435,m,1,0.584,,331.6436,331.6437,,0,149,149,48,1,49,teşvik,932,42.3464,867,0.0948,6,harmonic,1.8,word,m,,,,,,,
,,,,,,,,,,,,001,2023-11-08_11h32.04.790,vowel_harmony,2023.2.3,Win32,60.51803437,331.644,332.6379,,,,,,,,,,,,,,,,,,,,,,,,,,332.6379,333.288,m,1,0.6261,,333.288,333.2881,,0,150,150,116,1,117,daire,621,28.2158,503,0.055,5,notharmonic,1,word,m,,,,,,,
,,,,,,,,,,,,001,2023-11-08_11h32.04.790,vowel_harmony,2023.2.3,Win32,60.51803437,333.2883,334.2775,,,,,,,,,,,,,,,,,,,,,,,,,,334.2776,334.7553,m,1,0.458,,334.7554,334.7554,,0,151,151,104,1,105,cevap,5232,237.7213,4822,0.5271,5,notharmonic,1.85,word,m,,,,,,,
,,,,,,,,,,,,001,2023-11-08_11h32.04.790,vowel_harmony,2023.2.3,Win32,60.51803437,334.7555,335.7556,,,,,,,,,,,,,,,,,,,,,,,,,,335.7556,336.2061,m,1,0.4228,,336.2061,336.2061,,0,152,152,92,1,93,sahne,1380,62.7017,1238,0.1353,5,notharmonic,1.65,word,m,,,,,,,
,,,,,,,,,,,,001,2023-11-08_11h32.04.790,vowel_harmony,2023.2.3,Win32,60.51803437,336.2064,337.212,,,,,,,,,,,,,,,,,,,,,,,,,,337.212,337.84,z,1,0.6017,,337.84,337.8401,,0,153,153,240,1,241,hoga,,,,,4,harmonic,1.75,nw,z,,,,,,,
,,,,,,,,,,,,001,2023-11-08_11h32.04.790,vowel_harmony,2023.2.3,Win32,60.51803437,337.8403,338.8291,,,,,,,,,,,,,,,,,,,,,,,,,,338.8291,339.2798,m,1,0.4339,,339.2798,339.2799,,0,154,154,62,1,63,cümle,1911,86.8283,1765,0.193,5,harmonic,1.85,word,m,,,,,,,
,,,,,,,,,,,,001,2023-11-08_11h32.04.790,vowel_harmony,2023.2.3,Win32,60.51803437,339.2801,340.2801,,,,,,,,,,,,,,,,,,,,,,,,,,340.2801,340.9077,z,1,0.6082,,340.9077,340.9077,,0,155,155,330,1,331,vahçe,,,,,5,notharmonic,1.9,nw,z,,,,,,,
,,,,,,,,,,,,001,2023-11-08_11h32.04.790,vowel_harmony,2023.2.3,Win32,60.51803437,340.9079,341.8974,,,,,,,,,,,,,,,,,,,,,,,,,,341.8974,342.4143,m,1,0.5006,,342.4143,342.4143,,0,156,156,97,1,98,mevcut,3007,136.6262,2842,0.3107,6,notharmonic,1.95,word,m,,,,,,,
,,,,,,,,,,,,001,2023-11-08_11h32.04.790,vowel_harmony,2023.2.3,Win32,60.51803437,342.4145,343.4088,,,,,,,,,,,,,,,,,,,,,,,,,,343.4088,343.9257,m,1,0.4842,,343.9257,343.9258,,0,157,157,67,1,68,bayram,1948,88.5094,1648,0.1802,6,harmonic,1.85,word,m,,,,,,,
,,,,,,,,,,,,001,2023-11-08_11h32.04.790,vowel_harmony,2023.2.3,Win32,60.51803437,343.9259,344.9259,,,,,,,,,,,,,,,,,,,,,,,,,,344.9259,345.4595,m,1,0.5076,,345.4596,345.4596,,0,158,158,28,1,29,parlak,1142,51.888,1088,0.1189,6,harmonic,1.7,word,m,,,,,,,
,,,,,,,,,,,,001,2023-11-08_11h32.04.790,vowel_harmony,2023.2.3,Win32,60.51803437,345.4597,346.46,,,,,,,,,,,,,,,,,,,,,,,,,,346.46,347.0602,m,1,0.5722,,347.0602,347.0602,,0,159,159,130,1,131,hamile,1075,48.8437,877,0.0959,6,notharmonic,1.5,word,m,,,,,,,
,,,,,,,,,,,,001,2023-11-08_11h32.04.790,vowel_harmony,2023.2.3,Win32,60.51803437,347.0604,348.066,,,,,,,,,,,,,,,,,,,,,,,,,,348.0661,348.6277,z,1,0.5448,,348.6277,348.6278,,0,160,160,291,1,292,mepan,,,,,5,notharmonic,1.75,nw,z,,,,,,,
,,,,,,,,,,,,001,2023-11-08_11h32.04.790,vowel_harmony,2023.2.3,Win32,60.51803437,348.628,349.6334,,,,,,,,,,,,,,,,,,,,,,,,,,349.6334,350.1338,m,1,0.4837,,350.1338,350.1339,,0,161,161,120,1,121,ihmal,1002,45.5269,977,0.1068,5,notharmonic,1.65,word,m,,,,,,,
,,,,,,,,,,,,001,2023-11-08_11h32.04.790,vowel_harmony,2023.2.3,Win32,60.51803437,350.1342,351.1342,,,,,,,,,,,,,,,,,,,,,,,,,,351.1342,351.6511,m,1,0.5005,,351.6512,351.6513,,0,162,162,159,1,160,vakit,3476,157.9357,3298,0.3605,5,notharmonic,1.65,word,m,,,,,,,
,,,,,,,,,,,,001,2023-11-08_11h32.04.790,vowel_harmony,2023.2.3,Win32,60.51803437,351.6516,352.6458,,,,,,,,,,,,,,,,,,,,,,,,,,352.6458,353.246,z,0,0.5684,,353.246,353.2461,,0,163,163,171,1,172,reklam,1565,71.1074,1244,0.136,6,notharmonic,1.9,word,m,,,,,,,
,,,,,,,,,,,,001,2023-11-08_11h32.04.790,vowel_harmony,2023.2.3,Win32,60.51803437,353.2461,354.2463,,,,,,,,,,,,,,,,,,,,,,,,,,354.2463,354.9526,m,1,0.6841,,354.9526,354.9526,,0,164,164,47,1,48,kaza,740,33.6227,679,0.0742,4,harmonic,1.85,word,m,,,,,,,
,,,,,,,,,,,,001,2023-11-08_11h32.04.790,vowel_harmony,2023.2.3,Win32,60.51803437,354.9528,355.9525,,,,,,,,,,,,,,,,,,,,,,,,,,355.9525,356.4638,m,1,0.4899,,356.4638,356.4639,,0,165,165,4,1,5,metre,1156,52.5241,1015,0.111,5,harmonic,1.7,word,m,,,,,,,
,,,,,,,,,,,,001,2023-11-08_11h32.04.790,vowel_harmony,2023.2.3,Win32,60.51803437,356.4642,357.4697,,,,,,,,,,,,,,,,,,,,,,,,,,357.4698,358.0367,z,1,0.5504,,358.0368,358.0368,,0,166,166,227,1,228,zekö,,,,,4,harmonic,1.9,nw,z,,,,,,,
,,,,,,,,,,,,001,2023-11-08_11h32.04.790,vowel_harmony,2023.2.3,Win32,60.51803437,358.037,359.0315,,,,,,,,,,,,,,,,,,,,,,,,,,359.0315,359.6042,z,1,0.5508,,359.6043,359.6044,,0,167,167,238,1,239,kocı,,,,,4,harmonic,1.95,nw,z,,,,,,,
,,,,,,,,,,,,001,2023-11-08_11h32.04.790,vowel_harmony,2023.2.3,Win32,60.51803437,359.6046,360.5988,,,,,,,,,,,,,,,,,,,,,,,,,,360.5988,361.3381,z,1,0.7173,,361.3382,361.3383,,0,168,168,299,1,300,fihal,,,,,5,notharmonic,1.95,nw,z,,,,,,,
,,,,,,,,,,,,001,2023-11-08_11h32.04.790,vowel_harmony,2023.2.3,Win32,60.51803437,361.3385,362.3327,,,,,,,,,,,,,,,,,,,,,,,,,,362.3327,362.8552,m,1,0.4999,,362.8552,362.8553,,0,169,169,178,1,179,dikkat,6230,283.0665,5888,0.6437,6,notharmonic,2.05,word,m,,,,,,,
,,,,,,,,,,,,001,2023-11-08_11h32.04.790,vowel_harmony,2023.2.3,Win32,60.51803437,362.8556,363.85,,,,,,,,,,,,,,,,,,,,,,,,,,363.8501,364.7669,m,1,0.8911,,364.7669,364.7669,,0,170,170,142,1,143,siyasi,2909,132.1734,2445,0.2673,6,notharmonic,1.8,word,m,,,,,,,
,,,,,,,,,,,,001,2023-11-08_11h32.04.790,vowel_harmony,2023.2.3,Win32,60.51803437,364.7671,365.7674,,,,,,,,,,,,,,,,,,,,,,,,,,365.7674,366.4676,m,0,0.672,,366.4676,366.4676,,0,171,171,239,1,240,şekik,,,,,5,harmonic,1.7,nw,z,,,,,,,
,,,,,,,,,,,,001,2023-11-08_11h32.04.790,vowel_harmony,2023.2.3,Win32,60.51803437,366.4678,367.4735,,,,,,,,,,,,,,,,,,,,,,,,,,367.4736,368.4184,m,1,0.9227,,368.4184,368.4185,,0,172,172,157,1,158,aktif,1062,48.2531,986,0.1078,5,notharmonic,1.9,word,m,,,,,,,
,,,,,,,,,,,,001,2023-11-08_11h32.04.790,vowel_harmony,2023.2.3,Win32,60.51803437,368.4187,369.4077,,,,,,,,,,,,,,,,,,,,,,,,,,369.4077,369.9249,m,1,0.5008,,369.9249,369.9249,,0,173,173,12,1,13,konu,5400,245.3546,5110,0.5586,4,harmonic,1,word,m,,,,,,,
,,,,,,,,,,,,001,2023-11-08_11h32.04.790,vowel_harmony,2023.2.3,Win32,60.51803437,369.9251,370.9193,,,,,,,,,,,,,,,,,,,,,,,,,,370.9193,371.5029,z,1,0.5557,,371.5029,371.503,,0,174,174,311,1,312,dedya,,,,,5,notharmonic,1.9,nw,z,,,,,,,
,,,,,,,,,,,,001,2023-11-08_11h32.04.790,vowel_harmony,2023.2.3,Win32,60.51803437,371.5031,372.5033,,,,,,,,,,,,,,,,,,,,,,,,,,372.5033,373.2758,m,1,0.7503,,373.2758,373.2758,,0,175,175,33,1,34,moda,1381,62.7472,1231,0.1346,4,harmonic,1.55,word,m,,,,,,,
,,,,,,,,,,,,001,2023-11-08_11h32.04.790,vowel_harmony,2023.2.3,Win32,60.51803437,373.2761,374.2706,,,,,,,,,,,,,,,,,,,,,,,,,,374.2707,374.8708,z,1,0.5674,,374.8708,374.8708,,0,176,176,199,1,200,movu,,,,,4,harmonic,1.9,nw,z,,,,,,,
,,,,,,,,,,,,001,2023-11-08_11h32.04.790,vowel_harmony,2023.2.3,Win32,60.51803437,374.8709,375.8713,,,,,,,,,,,,,,,,,,,,,,,,,,375.8713,376.5109,z,1,0.6175,,376.5109,376.511,,0,177,177,298,1,299,yelsın,,,,,6,notharmonic,1.95,nw,z,,,,,,,
,,,,,,,,,,,,001,2023-11-08_11h32.04.790,vowel_harmony,2023.2.3,Win32,60.51803437,376.5113,377.5052,,,,,,,,,,,,,,,,,,,,,,,,,,377.5052,379.0392,z,1,1.5029,,379.0392,379.0393,,0,178,178,322,1,323,normin,,,,,6,notharmonic,1.95,nw,z,,,,,,,
,,,,,,,,,,,,001,2023-11-08_11h32.04.790,vowel_harmony,2023.2.3,Win32,60.51803437,379.0454,380.0396,,,,,,,,,,,,,,,,,,,,,,,,,,380.0396,380.8624,m,1,0.8007,,380.8624,380.8625,,0,179,179,61,1,62,yıldız,1775,80.649,1532,0.1675,6,harmonic,1.6,word,m,,,,,,,
,,,,,,,,,,,,001,2023-11-08_11h32.04.790,vowel_harmony,2023.2.3,Win32,60.51803437,380.8627,381.8569,,,,,,,,,,,,,,,,,,,,,,,,,,381.8569,382.5738,m,1,0.6839,,382.5738,382.5738,,0,180,180,102,1,103,esas,1965,89.2818,1795,0.1962,4,notharmonic,1.75,word,m,,,,,,,
,,,,,,,,,,,,001,2023-11-08_11h32.04.790,vowel_harmony,2023.2.3,Win32,60.51803437,382.574,383.5739,,,,,,,,,,,,,,,,,,,,,,,,,,383.5739,384.0577,m,1,0.4575,,384.0577,384.0577,,0,181,181,123,1,124,haber,4559,207.1429,4151,0.4538,5,notharmonic,1.85,word,m,,,,,,,
,,,,,,,,,,,,001,2023-11-08_11h32.04.790,vowel_harmony,2023.2.3,Win32,60.51803437,384.0579,385.0582,,,,,,,,,,,,,,,,,,,,,,,,,,385.0582,385.4915,m,1,0.4044,,385.4915,385.4915,,0,182,182,36,1,37,meslek,1082,49.1618,976,0.1067,6,harmonic,1.9,word,m,,,,,,,
,,,,,,,,,,,,001,2023-11-08_11h32.04.790,vowel_harmony,2023.2.3,Win32,60.51803437,385.4917,386.4919,,,,,,,,,,,,,,,,,,,,,,,,,,386.4919,387.0755,z,1,0.5528,,387.0755,387.0756,,0,183,183,241,1,242,porlam,,,,,6,harmonic,2,nw,z,,,,,,,
,,,,,,,,,,,,001,2023-11-08_11h32.04.790,vowel_harmony,2023.2.3,Win32,60.51803437,387.0757,388.0813,,,,,,,,,,,,,,,,,,,,,,,,,,388.0813,388.632,z,1,0.5341,,388.632,388.632,,0,184,184,342,1,343,kulön,,,,,5,notharmonic,1.9,nw,z,,,,,,,
,,,,,,,,,,,,001,2023-11-08_11h32.04.790,vowel_harmony,2023.2.3,Win32,60.51803437,388.6323,389.6322,,,,,,,,,,,,,,,,,,,,,,,,,,389.6322,390.1932,m,1,0.5428,,390.1932,390.1932,,0,185,185,173,1,174,sade,1193,54.2052,1114,0.1218,4,notharmonic,1.55,word,m,,,,,,,
,,,,,,,,,,,,001,2023-11-08_11h32.04.790,vowel_harmony,2023.2.3,Win32,60.51803437,390.1934,391.1825,,,,,,,,,,,,,,,,,,,,,,,,,,391.1826,391.6999,m,1,0.5003,,391.6999,391.7,,0,186,186,86,1,87,gerçek,8983,408.1519,8058,0.8809,6,harmonic,1.7,word,m,,,,,,,
,,,,,,,,,,,,001,2023-11-08_11h32.04.790,vowel_harmony,2023.2.3,Win32,60.51803437,391.7001,392.6944,,,,,,,,,,,,,,,,,,,,,,,,,,392.6944,393.3612,z,1,0.6341,,393.3613,393.3614,,0,187,187,231,1,232,norgun,,,,,6,harmonic,1.75,nw,z,,,,,,,
,,,,,,,,,,,,001,2023-11-08_11h32.04.790,vowel_harmony,2023.2.3,Win32,60.51803437,393.3614,394.3503,,,,,,,,,,,,,,,,,,,,,,,,,,394.3503,394.9346,z,1,0.5674,,394.9346,394.9347,,0,188,188,206,1,207,bevek,,,,,5,harmonic,1.75,nw,z,,,,,,,
,,,,,,,,,,,,001,2023-11-08_11h32.04.790,vowel_harmony,2023.2.3,Win32,60.51803437,394.9349,395.929,,,,,,,,,,,,,,,,,,,,,,,,,,395.929,396.4623,m,1,0.508,,396.4623,396.4624,,0,189,189,156,1,157,medya,1784,81.0579,1495,0.1634,5,notharmonic,1.35,word,m,,,,,,,
,,,,,,,,,,,,001,2023-11-08_11h32.04.790,vowel_harmony,2023.2.3,Win32,60.51803437,396.4625,397.4686,,,,,,,,,,,,,,,,,,,,,,,,,,397.4686,398.013,z,1,0.5172,,398.0131,398.0131,,0,190,190,290,1,291,aipa,,,,,4,notharmonic,1.95,nw,z,,,,,,,
,,,,,,,,,,,,001,2023-11-08_11h32.04.790,vowel_harmony,2023.2.3,Win32,60.51803437,398.0133,399.0136,,,,,,,,,,,,,,,,,,,,,,,,,,399.0136,399.48,m,1,0.4396,,399.48,399.4801,,0,191,191,151,1,152,ateş,2108,95.7792,1803,0.1971,4,notharmonic,1.65,word,m,,,,,,,
,,,,,,,,,,,,001,2023-11-08_11h32.04.790,vowel_harmony,2023.2.3,Win32,60.51803437,399.4802,400.486,,,,,,,,,,,,,,,,,,,,,,,,,,400.4861,401.0977,m,1,0.5839,,401.0977,401.0977,,0,192,192,118,1,119,meşhur,1092,49.6161,1057,0.1156,6,notharmonic,1.9,word,m,,,,,,,
,,,,,,,,,,,,001,2023-11-08_11h32.04.790,vowel_harmony,2023.2.3,Win32,60.51803437,401.0979,402.0867,,,,,,,,,,,,,,,,,,,,,,,,,,402.0867,402.6041,m,1,0.5007,,402.6041,402.6043,,0,193,193,13,1,14,nokta,2085,94.7341,1939,0.212,5,harmonic,1.5,word,m,,,,,,,
,,,,,,,,,,,,001,2023-11-08_11h32.04.790,vowel_harmony,2023.2.3,Win32,60.51803437,402.6045,403.5986,,,,,,,,,,,,,,,,,,,,,,,,,,403.5986,404.2877,z,1,0.6675,,404.2878,404.2878,,0,194,194,294,1,295,mesap,,,,,5,notharmonic,1.8,nw,z,,,,,,,
,,,,,,,,,,,,001,2023-11-08_11h32.04.790,vowel_harmony,2023.2.3,Win32,60.51803437,404.2881,405.2826,,,,,,,,,,,,,,,,,,,,,,,,,,405.2826,405.8659,z,1,0.5599,,405.8659,405.8659,,0,195,195,198,1,199,yarbız,,,,,6,harmonic,1.95,nw,z,,,,,,,
,,,,,,,,,,,,001,2023-11-08_11h32.04.790,vowel_harmony,2023.2.3,Win32,60.51803437,405.866,406.8721,,,,,,,,,,,,,,,,,,,,,,,,,,406.8721,407.4498,m,1,0.5607,,407.4498,407.4498,,0,196,196,72,1,73,çorba,1674,76.0599,1513,0.1654,5,harmonic,1.75,word,m,,,,,,,
,,,,,,,,,,,,001,2023-11-08_11h32.04.790,vowel_harmony,2023.2.3,Win32,60.51803437,407.45,408.4395,,,,,,,,,,,,,,,,,,,,,,,,,,408.4395,409.0174,z,1,0.5503,,409.0174,409.0174,,0,197,197,274,1,275,pisan,,,,,5,notharmonic,1.75,nw,z,,,,,,,
,,,,,,,,,,,,001,2023-11-08_11h32.04.790,vowel_harmony,2023.2.3,Win32,60.51803437,409.0175,410.0232,,,,,,,,,,,,,,,,,,,,,,,,,,410.0232,410.6344,z,1,0.5915,,410.6344,410.6345,,0,198,198,334,1,335,işgan,,,,,5,notharmonic,1.95,nw,z,,,,,,,
,,,,,,,,,,,,001,2023-11-08_11h32.04.790,vowel_harmony,2023.2.3,Win32,60.51803437,410.6346,411.635,,,,,,,,,,,,,,,,,,,,,,,,,,411.635,412.435,z,1,0.7772,,412.435,412.435,,0,199,199,307,1,308,merbat,,,,,6,notharmonic,1.95,nw,z,,,,,,,
,,,,,,,,,,,,001,2023-11-08_11h32.04.790,vowel_harmony,2023.2.3,Win32,60.51803437,412.4352,413.4354,,,,,,,,,,,,,,,,,,,,,,,,,,413.4355,413.9583,m,1,0.5005,,413.9583,413.9583,,0,200,200,167,1,168,adalet,1611,73.1975,1388,0.1517,6,notharmonic,1.65,word,m,,,,,,,
,,,,,,,,,,,,001,2023-11-08_11h32.04.790,vowel_harmony,2023.2.3,Win32,60.51803437,413.9586,414.9529,,,,,,,,,,,,,,,,,,,,,,,,,,414.9529,415.9199,z,1,0.9337,,415.9199,415.92,,0,201,201,325,1,326,garit,,,,,5,notharmonic,1.85,nw,z,,,,,,,
,,,,,,,,,,,,001,2023-11-08_11h32.04.790,vowel_harmony,2023.2.3,Win32,60.51803437,415.9201,416.9091,,,,,,,,,,,,,,,,,,,,,,,,,,416.9092,417.5371,z,1,0.607,,417.5371,417.5371,,0,202,202,337,1,338,bakem,,,,,5,notharmonic,1.7,nw,z,,,,,,,
,,,,,,,,,,,,001,2023-11-08_11h32.04.790,vowel_harmony,2023.2.3,Win32,60.51803437,417.5372,418.5432,,,,,,,,,,,,,,,,,,,,,,,,,,418.5432,419.0712,m,1,0.5052,,419.0712,419.0712,,0,203,203,30,1,31,çevre,1662,75.5147,1409,0.154,5,harmonic,1.55,word,m,,,,,,,
,,,,,,,,,,,,001,2023-11-08_11h32.04.790,vowel_harmony,2023.2.3,Win32,60.51803437,419.0714,420.0769,,,,,,,,,,,,,,,,,,,,,,,,,,420.0769,420.7049,z,1,0.6113,,420.7049,420.705,,0,204,204,232,1,233,kanur,,,,,5,harmonic,1.7,nw,z,,,,,,,
,,,,,,,,,,,,001,2023-11-08_11h32.04.790,vowel_harmony,2023.2.3,Win32,60.51803437,420.7052,421.7055,,,,,,,,,,,,,,,,,,,,,,,,,,421.7055,422.2556,z,1,0.5174,,422.2556,422.2556,,0,205,205,193,1,194,yokın,,,,,5,harmonic,1.85,nw,z,,,,,,,
,,,,,,,,,,,,001,2023-11-08_11h32.04.790,vowel_harmony,2023.2.3,Win32,60.51803437,422.2557,423.2561,,,,,,,,,,,,,,,,,,,,,,,,,,423.2561,424.2565,m,1,0.9675,,424.2565,424.2565,,0,206,206,74,1,75,başarı,1398,63.5196,1300,0.1421,6,harmonic,1.2,word,m,,,,,,,
,,,,,,,,,,,,001,2023-11-08_11h32.04.790,vowel_harmony,2023.2.3,Win32,60.51803437,424.2567,425.2624,,,,,,,,,,,,,,,,,,,,,,,,,,425.2624,425.8796,z,1,0.6005,,425.8797,425.8797,,0,207,207,271,1,272,mimal,,,,,5,notharmonic,1.8,nw,z,,,,,,,
,,,,,,,,,,,,001,2023-11-08_11h32.04.790,vowel_harmony,2023.2.3,Win32,60.51803437,425.8801,426.8742,,,,,,,,,,,,,,,,,,,,,,,,,,426.8742,427.4578,m,1,0.555,,427.4578,427.4578,,0,208,208,158,1,159,klasik,1871,85.0108,1734,0.1896,6,notharmonic,2,word,m,,,,,,,
,,,,,,,,,,,,001,2023-11-08_11h32.04.790,vowel_harmony,2023.2.3,Win32,60.51803437,427.4581,428.4638,,,,,,,,,,,,,,,,,,,,,,,,,,428.4638,429.0581,z,1,0.5774,,429.0582,429.0582,,0,209,209,281,1,282,afel,,,,,4,notharmonic,1.8,nw,z,,,,,,,
,,,,,,,,,,,,001,2023-11-08_11h32.04.790,vowel_harmony,2023.2.3,Win32,60.51803437,429.0584,430.0587,,,,,,,,,,,,,,,,,,,,,,,,,,430.0588,430.5755,z,1,0.4843,,430.5755,430.5755,,0,210,210,264,1,265,vepü,,,,,4,harmonic,2,nw,z,,,,,,,
,,,,,,,,,,,,001,2023-11-08_11h32.04.790,vowel_harmony,2023.2.3,Win32,60.51803437,430.5757,431.5759,,,,,,,,,,,,,,,,,,,,,,,,,,431.576,432.2655,z,1,0.6674,,432.2656,432.2656,,0,211,211,310,1,311,yandeş,,,,,6,notharmonic,1.95,nw,z,,,,,,,
,,,,,,,,,,,,001,2023-11-08_11h32.04.790,vowel_harmony,2023.2.3,Win32,60.51803437,432.2658,433.2599,,,,,,,,,,,,,,,,,,,,,,,,,,433.26,433.832,m,1,0.55,,433.832,433.832,,0,212,212,46,1,47,takım,4370,198.5555,3726,0.4073,5,harmonic,1.7,word,m,,,,,,,
,,,,,,,,,,,,001,2023-11-08_11h32.04.790,vowel_harmony,2023.2.3,Win32,60.51803437,433.8321,434.8272,,,,,,,,,,,,,,,,,,,,,,,,,,434.8272,435.3438,z,1,0.4922,,435.3438,435.3438,,0,213,213,211,1,212,yarum,,,,,5,harmonic,1.75,nw,z,,,,,,,
,,,,,,,,,,,,001,2023-11-08_11h32.04.790,vowel_harmony,2023.2.3,Win32,60.51803437,435.3441,436.3499,,,,,,,,,,,,,,,,,,,,,,,,,,436.3499,436.9779,z,1,0.6059,,436.9779,436.9779,,0,214,214,181,1,182,rapkı,,,,,5,harmonic,1.85,nw,z,,,,,,,
,,,,,,,,,,,,001,2023-11-08_11h32.04.790,vowel_harmony,2023.2.3,Win32,60.51803437,436.9781,437.9784,,,,,,,,,,,,,,,,,,,,,,,,,,437.9784,438.4342,m,1,0.4338,,438.4342,438.4343,,0,215,215,137,1,138,parti,2613,118.7244,2059,0.2251,5,notharmonic,1.8,word,m,,,,,,,
,,,,,,,,,,,,001,2023-11-08_11h32.04.790,vowel_harmony,2023.2.3,Win32,60.51803437,438.4345,439.4343,,,,,,,,,,,,,,,,,,,,,,,,,,439.4343,440.0681,m,1,0.6169,,440.0681,440.0682,,0,216,216,162,1,163,hariç,1267,57.5675,1233,0.1348,5,notharmonic,1.75,word,m,,,,,,,
,,,,,,,,,,,,001,2023-11-08_11h32.04.790,vowel_harmony,2023.2.3,Win32,60.51803437,440.0683,441.0628,,,,,,,,,,,,,,,,,,,,,,,,,,441.0628,441.5131,m,1,0.4173,,441.5131,441.5131,,0,217,217,38,1,39,dönem,2820,128.1296,2437,0.2664,5,harmonic,1.4,word,m,,,,,,,
,,,,,,,,,,,,001,2023-11-08_11h32.04.790,vowel_harmony,2023.2.3,Win32,60.51803437,441.5132,442.5135,,,,,,,,,,,,,,,,,,,,,,,,,,442.5135,443.0661,z,1,0.5305,,443.0661,443.0662,,0,218,218,217,1,218,sanfız,,,,,6,harmonic,1.85,nw,z,,,,,,,
,,,,,,,,,,,,001,2023-11-08_11h32.04.790,vowel_harmony,2023.2.3,Win32,60.51803437,443.0663,444.0641,,,,,,,,,,,,,,,,,,,,,,,,,,444.0641,444.5368,m,1,0.4507,,444.5369,444.537,,0,219,219,64,1,65,lise,888,40.3472,816,0.0892,4,harmonic,1.5,word,m,,,,,,,
,,,,,,,,,,,,001,2023-11-08_11h32.04.790,vowel_harmony,2023.2.3,Win32,60.51803437,444.5372,445.5313,,,,,,,,,,,,,,,,,,,,,,,,,,445.5314,446.1481,z,1,0.5878,,446.1481,446.1481,,0,220,220,212,1,213,ortat,,,,,5,harmonic,1.7,nw,z,,,,,,,
,,,,,,,,,,,,001,2023-11-08_11h32.04.790,vowel_harmony,2023.2.3,Win32,60.51803437,446.1483,447.1371,,,,,,,,,,,,,,,,,,,,,,,,,,447.1373,447.7046,m,1,0.5507,,447.7046,447.7047,,0,221,221,149,1,150,ceza,2611,118.6335,2169,0.2371,4,notharmonic,1.5,word,m,,,,,,,
,,,,,,,,,,,,001,2023-11-08_11h32.04.790,vowel_harmony,2023.2.3,Win32,60.51803437,447.7049,448.7044,,,,,,,,,,,,,,,,,,,,,,,,,,448.7044,449.3492,z,1,0.6272,,449.3492,449.3492,,0,222,222,329,1,330,taif,,,,,4,notharmonic,1.8,nw,z,,,,,,,
,,,,,,,,,,,,001,2023-11-08_11h32.04.790,vowel_harmony,2023.2.3,Win32,60.51803437,449.3494,450.3498,,,,,,,,,,,,,,,,,,,,,,,,,,450.3498,451.0223,m,1,0.6504,,451.0224,451.0225,,0,223,223,81,1,82,üretim,1593,72.3796,1283,0.1403,6,harmonic,1.6,word,m,,,,,,,
,,,,,,,,,,,,001,2023-11-08_11h32.04.790,vowel_harmony,2023.2.3,Win32,60.51803437,451.0227,452.0172,,,,,,,,,,,,,,,,,,,,,,,,,,452.0172,452.6339,m,1,0.5916,,452.6339,452.6339,,0,224,224,136,1,137,beyaz,5517,250.6706,4788,0.5234,5,notharmonic,1.85,word,m,,,,,,,
,,,,,,,,,,,,001,2023-11-08_11h32.04.790,vowel_harmony,2023.2.3,Win32,60.51803437,452.6341,453.6344,,,,,,,,,,,,,,,,,,,,,,,,,,453.6344,454.1238,m,1,0.4675,,454.1239,454.124,,0,225,225,8,1,9,güven,1433,65.1098,1300,0.1421,5,harmonic,1.35,word,m,,,,,,,
,,,,,,,,,,,,001,2023-11-08_11h32.04.790,vowel_harmony,2023.2.3,Win32,60.51803437,454.1242,455.1181,,,,,,,,,,,,,,,,,,,,,,,,,,455.1181,455.6544,z,1,0.5142,,455.6544,455.6545,,0,226,226,251,1,252,oştay,,,,,5,harmonic,1.95,nw,z,,,,,,,
,,,,,,,,,,,,001,2023-11-08_11h32.04.790,vowel_harmony,2023.2.3,Win32,60.51803437,455.6546,456.6577,,,,,,,,,,,,,,,,,,,,,,,,,,456.6578,457.1582,m,1,0.484,,457.1583,457.1584,,0,227,227,18,1,19,normal,4154,188.7413,3788,0.4141,6,harmonic,1.75,word,m,,,,,,,
,,,,,,,,,,,,001,2023-11-08_11h32.04.790,vowel_harmony,2023.2.3,Win32,60.51803437,457.1586,458.1527,,,,,,,,,,,,,,,,,,,,,,,,,,458.1527,458.6863,m,1,0.5008,,458.6863,458.6864,,0,228,228,34,1,35,hoca,1893,86.0104,1526,0.1668,4,harmonic,1.45,word,m,,,,,,,
,,,,,,,,,,,,001,2023-11-08_11h32.04.790,vowel_harmony,2023.2.3,Win32,60.51803437,458.6865,459.6754,,,,,,,,,,,,,,,,,,,,,,,,,,459.6754,460.126,m,0,0.4337,,460.126,460.1261,,0,229,229,284,1,285,deval,,,,,5,notharmonic,1.75,nw,z,,,,,,,
,,,,,,,,,,,,001,2023-11-08_11h32.04.790,vowel_harmony,2023.2.3,Win32,60.51803437,460.1263,461.1261,,,,,,,,,,,,,,,,,,,,,,,,,,461.1261,461.8043,z,1,0.6615,,461.8043,461.8044,,0,230,230,261,1,262,kardok,,,,,6,harmonic,1.95,nw,z,,,,,,,
,,,,,,,,,,,,001,2023-11-08_11h32.04.790,vowel_harmony,2023.2.3,Win32,60.51803437,461.8046,462.8045,,,,,,,,,,,,,,,,,,,,,,,,,,462.8046,463.488,z,1,0.6595,,463.488,463.4881,,0,231,231,270,1,271,miyaj,,,,,5,notharmonic,1.9,nw,z,,,,,,,
,,,,,,,,,,,,001,2023-11-08_11h32.04.790,vowel_harmony,2023.2.3,Win32,60.51803437,463.4881,464.4938,,,,,,,,,,,,,,,,,,,,,,,,,,464.4939,465.0055,m,1,0.4862,,465.0055,465.0055,,0,232,232,150,1,151,sabit,1046,47.5261,915,0.1,5,notharmonic,1.75,word,m,,,,,,,
,,,,,,,,,,,,001,2023-11-08_11h32.04.790,vowel_harmony,2023.2.3,Win32,60.51803437,465.0056,466.0059,,,,,,,,,,,,,,,,,,,,,,,,,,466.006,466.5392,m,1,0.509,,466.5392,466.5392,,0,233,233,0,1,1,sanat,3121,141.8059,2485,0.2717,5,harmonic,1.4,word,m,,,,,,,
,,,,,,,,,,,,001,2023-11-08_11h32.04.790,vowel_harmony,2023.2.3,Win32,60.51803437,466.5396,467.5397,,,,,,,,,,,,,,,,,,,,,,,,,,467.5397,468.079,m,1,0.517,,468.079,468.0791,,0,234,234,21,1,22,duygu,1877,85.2834,1760,0.1924,5,harmonic,1.8,word,m,,,,,,,
,,,,,,,,,,,,001,2023-11-08_11h32.04.790,vowel_harmony,2023.2.3,Win32,60.51803437,468.0795,469.0791,,,,,,,,,,,,,,,,,,,,,,,,,,469.0791,469.4736,m,1,0.3767,,469.4736,469.4737,,0,235,235,54,1,55,yedek,825,37.4847,732,0.08,5,harmonic,1.65,word,m,,,,,,,
,,,,,,,,,,,,001,2023-11-08_11h32.04.790,vowel_harmony,2023.2.3,Win32,60.51803437,469.4739,470.4742,,,,,,,,,,,,,,,,,,,,,,,,,,470.4742,470.8908,m,1,0.3908,,470.8908,470.8909,,0,236,236,75,1,76,roman,1499,68.1086,1281,0.14,5,harmonic,1.6,word,m,,,,,,,
,,,,,,,,,,,,001,2023-11-08_11h32.04.790,vowel_harmony,2023.2.3,Win32,60.51803437,470.891,471.8914,,,,,,,,,,,,,,,,,,,,,,,,,,471.8914,472.4809,z,1,0.5672,,472.481,472.481,,0,237,237,255,1,256,yokın,,,,,5,harmonic,1.85,nw,z,,,,,,,
,,,,,,,,,,,,001,2023-11-08_11h32.04.790,vowel_harmony,2023.2.3,Win32,60.51803437,472.4812,473.4753,,,,,,,,,,,,,,,,,,,,,,,,,,473.4753,474.198,z,1,0.7007,,474.198,474.198,,0,238,238,277,1,278,balsin,,,,,6,notharmonic,1.85,nw,z,,,,,,,
,,,,,,,,,,,,001,2023-11-08_11h32.04.790,vowel_harmony,2023.2.3,Win32,60.51803437,474.1985,475.1924,,,,,,,,,,,,,,,,,,,,,,,,,,475.1924,476.093,z,1,0.8675,,476.093,476.0931,,0,239,239,323,1,324,devak,,,,,5,notharmonic,1.75,nw,z,,,,,,,
,,,,,,,,,,,,001,2023-11-08_11h32.04.790,vowel_harmony,2023.2.3,Win32,60.51803437,476.0932,477.0934,,,,,,,,,,,,,,,,,,,,,,,,,,477.0934,477.8935,z,1,0.777,,477.8935,482.112,space,0,240,240,273,1,274,nimal,,,,,5,notharmonic,1.9,nw,z,4.202,,,,,,
,,,,,,,,,,,,001,2023-11-08_11h32.04.790,vowel_harmony,2023.2.3,Win32,60.51803437,482.1182,483.1124,,,,,,,,,,,,,,,,,,,,,,,,,,483.1124,483.8519,z,1,0.7172,,483.852,483.8521,,0,241,241,297,1,298,sapet,,,,,5,notharmonic,1.85,nw,z,,,,,,,
,,,,,,,,,,,,001,2023-11-08_11h32.04.790,vowel_harmony,2023.2.3,Win32,60.51803437,483.8523,484.8518,,,,,,,,,,,,,,,,,,,,,,,,,,484.8518,485.3798,m,1,0.5063,,485.3798,485.3799,,0,242,242,170,1,171,basit,3385,153.801,3177,0.3473,5,notharmonic,1.65,word,m,,,,,,,
,,,,,,,,,,,,001,2023-11-08_11h32.04.790,vowel_harmony,2023.2.3,Win32,60.51803437,485.3801,486.3857,,,,,,,,,,,,,,,,,,,,,,,,,,486.3857,486.8531,m,1,0.4507,,486.8531,486.8531,,0,243,243,15,1,16,hayat,7922,359.9443,7314,0.7996,5,harmonic,1.9,word,m,,,,,,,
,,,,,,,,,,,,001,2023-11-08_11h32.04.790,vowel_harmony,2023.2.3,Win32,60.51803437,486.8533,487.8474,,,,,,,,,,,,,,,,,,,,,,,,,,487.8475,488.4701,m,1,0.6006,,488.4702,488.4703,,0,244,244,71,1,72,örnek,3463,157.345,3266,0.357,5,harmonic,1.85,word,m,,,,,,,
,,,,,,,,,,,,001,2023-11-08_11h32.04.790,vowel_harmony,2023.2.3,Win32,60.51803437,488.4707,489.4647,,,,,,,,,,,,,,,,,,,,,,,,,,489.4648,490.0316,z,1,0.5343,,490.0317,490.0317,,0,245,245,234,1,235,düzöt,,,,,5,harmonic,2.05,nw,z,,,,,,,
,,,,,,,,,,,,001,2023-11-08_11h32.04.790,vowel_harmony,2023.2.3,Win32,60.51803437,490.0319,491.0319,,,,,,,,,,,,,,,,,,,,,,,,,,491.0319,491.5883,m,1,0.5337,,491.5883,491.5886,,0,246,246,78,1,79,ulusal,1551,70.4713,1355,0.1481,6,harmonic,1.75,word,m,,,,,,,
,,,,,,,,,,,,001,2023-11-08_11h32.04.790,vowel_harmony,2023.2.3,Win32,60.51803437,491.5889,492.5827,,,,,,,,,,,,,,,,,,,,,,,,,,492.5827,493.1828,z,1,0.5738,,493.1829,493.1829,,0,247,247,268,1,269,haldum,,,,,6,harmonic,2,nw,z,,,,,,,
,,,,,,,,,,,,001,2023-11-08_11h32.04.790,vowel_harmony,2023.2.3,Win32,60.51803437,493.183,494.1833,,,,,,,,,,,,,,,,,,,,,,,,,,494.1833,494.6501,m,1,0.4389,,494.6502,494.6502,,0,248,248,90,1,91,tarif,2834,128.7657,2611,0.2854,5,notharmonic,1.5,word,m,,,,,,,
,,,,,,,,,,,,001,2023-11-08_11h32.04.790,vowel_harmony,2023.2.3,Win32,60.51803437,494.6504,495.6391,,,,,,,,,,,,,,,,,,,,,,,,,,495.6391,496.2063,m,1,0.5503,,496.2064,496.2065,,0,249,249,11,1,12,umut,1988,90.3268,1818,0.1987,4,harmonic,1.55,word,m,,,,,,,
,,,,,,,,,,,,001,2023-11-08_11h32.04.790,vowel_harmony,2023.2.3,Win32,60.51803437,496.2066,497.201,,,,,,,,,,,,,,,,,,,,,,,,,,497.2011,497.7678,z,1,0.5426,,497.7678,497.7678,,0,250,250,309,1,310,yorgen,,,,,6,notharmonic,1.9,nw,z,,,,,,,
,,,,,,,,,,,,001,2023-11-08_11h32.04.790,vowel_harmony,2023.2.3,Win32,60.51803437,497.768,498.7571,,,,,,,,,,,,,,,,,,,,,,,,,,498.7572,499.402,z,1,0.6175,,499.402,499.402,,0,251,251,333,1,334,heyran,,,,,6,notharmonic,1.85,nw,z,,,,,,,
,,,,,,,,,,,,001,2023-11-08_11h32.04.790,vowel_harmony,2023.2.3,Win32,60.51803437,499.4022,500.4024,,,,,,,,,,,,,,,,,,,,,,,,,,500.4024,500.9026,m,1,0.4783,,500.9026,500.9027,,0,252,252,111,1,112,kahve,2634,119.6785,2283,0.2496,5,notharmonic,1.85,word,m,,,,,,,
,,,,,,,,,,,,001,2023-11-08_11h32.04.790,vowel_harmony,2023.2.3,Win32,60.51803437,500.903,501.9029,,,,,,,,,,,,,,,,,,,,,,,,,,501.9029,502.4029,z,1,0.4733,,502.4029,502.403,,0,253,253,214,1,215,vecü,,,,,4,harmonic,1.95,nw,z,,,,,,,
,,,,,,,,,,,,001,2023-11-08_11h32.04.790,vowel_harmony,2023.2.3,Win32,60.51803437,502.4031,503.3924,,,,,,,,,,,,,,,,,,,,,,,,,,503.3924,503.8036,m,1,0.3836,,503.8036,503.8037,,0,254,254,126,1,127,adet,4367,198.4192,3768,0.4119,4,notharmonic,1.4,word,m,,,,,,,
,,,,,,,,,,,,001,2023-11-08_11h32.04.790,vowel_harmony,2023.2.3,Win32,60.51803437,503.8038,504.8095,,,,,,,,,,,,,,,,,,,,,,,,,,504.8095,505.3542,z,1,0.5171,,505.3542,505.3543,,0,255,255,233,1,234,devpi,,,,,5,harmonic,1.8,nw,z,,,,,,,
,,,,,,,,,,,,001,2023-11-08_11h32.04.790,vowel_harmony,2023.2.3,Win32,60.51803437,505.3544,506.3547,,,,,,,,,,,,,,,,,,,,,,,,,,506.3547,506.944,z,1,0.5672,,506.9441,506.9441,,0,256,256,269,1,270,vekü,,,,,4,harmonic,2,nw,z,,,,,,,
,,,,,,,,,,,,001,2023-11-08_11h32.04.790,vowel_harmony,2023.2.3,Win32,60.51803437,506.9443,507.9441,,,,,,,,,,,,,,,,,,,,,,,,,,507.9441,508.4219,z,1,0.4506,,508.4219,508.422,,0,257,257,304,1,305,annö,,,,,4,notharmonic,1.95,nw,z,,,,,,,
,,,,,,,,,,,,001,2023-11-08_11h32.04.790,vowel_harmony,2023.2.3,Win32,60.51803437,508.4223,509.4225,,,,,,,,,,,,,,,,,,,,,,,,,,509.4225,509.9618,m,1,0.5173,,509.9618,509.9619,,0,258,258,43,1,44,geniş,3380,153.5738,3185,0.3482,5,harmonic,1.35,word,m,,,,,,,
,,,,,,,,,,,,001,2023-11-08_11h32.04.790,vowel_harmony,2023.2.3,Win32,60.51803437,509.962,510.9564,,,,,,,,,,,,,,,,,,,,,,,,,,510.9564,511.4622,m,1,0.4834,,511.4623,511.4623,,0,259,259,133,1,134,taze,2268,103.0489,2062,0.2254,4,notharmonic,1.65,word,m,,,,,,,
,,,,,,,,,,,,001,2023-11-08_11h32.04.790,vowel_harmony,2023.2.3,Win32,60.51803437,511.4625,512.4566,,,,,,,,,,,,,,,,,,,,,,,,,,512.4566,513.007,z,1,0.5218,,513.007,513.007,,0,260,260,229,1,230,tonam,,,,,5,harmonic,1.8,nw,z,,,,,,,
,,,,,,,,,,,,001,2023-11-08_11h32.04.790,vowel_harmony,2023.2.3,Win32,60.51803437,513.0072,514.0128,,,,,,,,,,,,,,,,,,,,,,,,,,514.0129,514.5745,z,1,0.5338,,514.5745,514.5746,,0,261,261,257,1,258,zerü,,,,,4,harmonic,1.8,nw,z,,,,,,,
,,,,,,,,,,,,001,2023-11-08_11h32.04.790,vowel_harmony,2023.2.3,Win32,60.51803437,514.5747,515.5748,,,,,,,,,,,,,,,,,,,,,,,,,,515.5748,516.0646,m,1,0.4677,,516.0646,516.0647,,0,262,262,91,1,92,ifade,6177,280.6584,5726,0.626,5,notharmonic,1.7,word,m,,,,,,,
,,,,,,,,,,,,001,2023-11-08_11h32.04.790,vowel_harmony,2023.2.3,Win32,60.51803437,516.0649,517.0587,,,,,,,,,,,,,,,,,,,,,,,,,,517.0587,517.6314,m,1,0.5503,,517.6315,517.6316,,0,263,263,160,1,161,hakem,603,27.3979,473,0.0517,5,notharmonic,1.3,word,m,,,,,,,
,,,,,,,,,,,,001,2023-11-08_11h32.04.790,vowel_harmony,2023.2.3,Win32,60.51803437,517.6317,518.6258,,,,,,,,,,,,,,,,,,,,,,,,,,518.6258,519.076,m,1,0.4188,,519.0761,519.0761,,0,264,264,143,1,144,kitap,8359,379.7998,6786,0.7418,5,notharmonic,1.9,word,m,,,,,,,
,,,,,,,,,,,,001,2023-11-08_11h32.04.790,vowel_harmony,2023.2.3,Win32,60.51803437,519.0762,520.0765,,,,,,,,,,,,,,,,,,,,,,,,,,520.0766,520.6992,m,1,0.6005,,520.6992,520.6993,,0,265,265,112,1,113,sezon,2315,105.1844,1917,0.2096,5,notharmonic,1.8,word,m,,,,,,,
,,,,,,,,,,,,001,2023-11-08_11h32.04.790,vowel_harmony,2023.2.3,Win32,60.51803437,520.6995,521.6939,,,,,,,,,,,,,,,,,,,,,,,,,,521.6939,522.1774,m,1,0.4522,,522.1774,522.1774,,0,266,266,154,1,155,sakin,1855,84.2838,1635,0.1787,5,notharmonic,1.05,word,m,,,,,,,
,,,,,,,,,,,,001,2023-11-08_11h32.04.790,vowel_harmony,2023.2.3,Win32,60.51803437,522.1775,523.1664,,,,,,,,,,,,,,,,,,,,,,,,,,523.1664,523.6506,m,1,0.4671,,523.6506,523.6507,,0,267,267,6,1,7,hayal,4498,204.3713,4079,0.4459,5,harmonic,1.45,word,m,,,,,,,
,,,,,,,,,,,,001,2023-11-08_11h32.04.790,vowel_harmony,2023.2.3,Win32,60.51803437,523.6509,524.6451,,,,,,,,,,,,,,,,,,,,,,,,,,524.6451,525.1949,z,1,0.5272,,525.1949,525.195,,0,268,268,191,1,192,doab,,,,,4,harmonic,2,nw,z,,,,,,,
,,,,,,,,,,,,001,2023-11-08_11h32.04.790,vowel_harmony,2023.2.3,Win32,60.51803437,525.1951,526.1955,,,,,,,,,,,,,,,,,,,,,,,,,,526.1955,526.8957,z,1,0.6674,,526.8957,526.8958,,0,269,269,226,1,227,tefem,,,,,5,harmonic,1.75,nw,z,,,,,,,
,,,,,,,,,,,,001,2023-11-08_11h32.04.790,vowel_harmony,2023.2.3,Win32,60.51803437,526.896,527.8851,,,,,,,,,,,,,,,,,,,,,,,,,,527.8851,528.4462,m,1,0.5438,,528.4462,528.4462,,0,270,270,106,1,107,esnaf,315,14.3124,284,0.031,5,notharmonic,1.55,word,m,,,,,,,
,,,,,,,,,,,,001,2023-11-08_11h32.04.790,vowel_harmony,2023.2.3,Win32,60.51803437,528.4463,529.4524,,,,,,,,,,,,,,,,,,,,,,,,,,529.4524,529.897,m,1,0.4174,,529.897,529.8971,,0,271,271,5,1,6,bebek,3301,149.9843,2794,0.3054,5,harmonic,1.6,word,m,,,,,,,
,,,,,,,,,,,,001,2023-11-08_11h32.04.790,vowel_harmony,2023.2.3,Win32,60.51803437,529.8972,530.8863,,,,,,,,,,,,,,,,,,,,,,,,,,530.8863,531.5201,z,1,0.6172,,531.5201,531.5202,,0,272,272,195,1,196,netüm,,,,,5,harmonic,1.95,nw,z,,,,,,,
,,,,,,,,,,,,001,2023-11-08_11h32.04.790,vowel_harmony,2023.2.3,Win32,60.51803437,531.5203,532.5147,,,,,,,,,,,,,,,,,,,,,,,,,,532.5147,533.1043,m,1,0.5673,,533.1044,533.1045,,0,273,273,101,1,102,imza,1358,61.7021,1253,0.137,4,notharmonic,1.65,word,m,,,,,,,
,,,,,,,,,,,,001,2023-11-08_11h32.04.790,vowel_harmony,2023.2.3,Win32,60.51803437,533.1049,534.0986,,,,,,,,,,,,,,,,,,,,,,,,,,534.0986,534.7154,m,1,0.5837,,534.7154,534.7155,,0,274,274,147,1,148,işaret,1888,85.7832,1787,0.1954,6,notharmonic,1,word,m,,,,,,,
,,,,,,,,,,,,001,2023-11-08_11h32.04.790,vowel_harmony,2023.2.3,Win32,60.51803437,534.7157,535.7046,,,,,,,,,,,,,,,,,,,,,,,,,,535.7046,536.2493,m,1,0.519,,536.2493,536.2493,,0,275,275,69,1,70,forma,719,32.6685,597,0.0653,5,harmonic,1.8,word,m,,,,,,,
,,,,,,,,,,,,001,2023-11-08_11h32.04.790,vowel_harmony,2023.2.3,Win32,60.51803437,536.2495,537.2384,,,,,,,,,,,,,,,,,,,,,,,,,,537.2384,537.783,z,1,0.5251,,537.7831,537.7831,,0,276,276,190,1,191,reklen,,,,,6,harmonic,1.8,nw,z,,,,,,,
,,,,,,,,,,,,001,2023-11-08_11h32.04.790,vowel_harmony,2023.2.3,Win32,60.51803437,537.7833,538.7834,,,,,,,,,,,,,,,,,,,,,,,,,,538.7835,539.3673,m,1,0.5613,,539.3673,539.3673,,0,277,277,39,1,40,yaygın,1061,48.2076,1019,0.1114,6,harmonic,1.35,word,m,,,,,,,
,,,,,,,,,,,,001,2023-11-08_11h32.04.790,vowel_harmony,2023.2.3,Win32,60.51803437,539.3675,540.3676,,,,,,,,,,,,,,,,,,,,,,,,,,540.3676,541.168,z,1,0.7687,,541.168,541.168,,0,278,278,313,1,314,ikas,,,,,4,notharmonic,1.85,nw,z,,,,,,,
,,,,,,,,,,,,001,2023-11-08_11h32.04.790,vowel_harmony,2023.2.3,Win32,60.51803437,541.1681,542.1683,,,,,,,,,,,,,,,,,,,,,,,,,,542.1683,542.8077,z,1,0.6173,,542.8077,542.8079,,0,279,279,339,1,340,asmel,,,,,5,notharmonic,1.95,nw,z,,,,,,,
,,,,,,,,,,,,001,2023-11-08_11h32.04.790,vowel_harmony,2023.2.3,Win32,60.51803437,542.808,543.8023,,,,,,,,,,,,,,,,,,,,,,,,,,543.8023,544.8025,z,1,0.9755,,544.8025,544.8026,,0,280,280,254,1,255,millek,,,,,6,harmonic,1.8,nw,z,,,,,,,
,,,,,,,,,,,,001,2023-11-08_11h32.04.790,vowel_harmony,2023.2.3,Win32,60.51803437,544.8027,545.8029,,,,,,,,,,,,,,,,,,,,,,,,,,545.8029,546.403,z,1,0.5752,,546.403,546.403,,0,281,281,343,1,344,tarne,,,,,5,notharmonic,1.85,nw,z,,,,,,,
,,,,,,,,,,,,001,2023-11-08_11h32.04.790,vowel_harmony,2023.2.3,Win32,60.51803437,546.4033,547.4035,,,,,,,,,,,,,,,,,,,,,,,,,,547.4035,547.9706,z,1,0.5354,,547.9706,547.9706,,0,282,282,207,1,208,örtre,,,,,5,harmonic,1.85,nw,z,,,,,,,
,,,,,,,,,,,,001,2023-11-08_11h32.04.790,vowel_harmony,2023.2.3,Win32,60.51803437,547.9708,548.9764,,,,,,,,,,,,,,,,,,,,,,,,,,548.9764,549.571,m,1,0.5735,,549.571,549.571,,0,283,283,165,1,166,gazete,1402,63.7013,1270,0.1388,6,notharmonic,1.8,word,m,,,,,,,
,,,,,,,,,,,,001,2023-11-08_11h32.04.790,vowel_harmony,2023.2.3,Win32,60.51803437,549.5711,550.5714,,,,,,,,,,,,,,,,,,,,,,,,,,550.5714,551.2549,m,1,0.6601,,551.2549,551.255,,0,284,284,19,1,20,ödül,1063,48.2985,926,0.1012,4,harmonic,1.7,word,m,,,,,,,
,,,,,,,,,,,,001,2023-11-08_11h32.04.790,vowel_harmony,2023.2.3,Win32,60.51803437,551.2551,552.2554,,,,,,,,,,,,,,,,,,,,,,,,,,552.2554,552.9558,z,1,0.6734,,552.9558,552.9558,,0,285,285,318,1,319,yorgün,,,,,6,notharmonic,1.9,nw,z,,,,,,,
,,,,,,,,,,,,001,2023-11-08_11h32.04.790,vowel_harmony,2023.2.3,Win32,60.51803437,552.956,553.9561,,,,,,,,,,,,,,,,,,,,,,,,,,553.9562,554.5064,m,1,0.5185,,554.5064,554.5064,,0,286,286,37,1,38,hayvan,2363,107.3653,1894,0.2071,6,harmonic,1.5,word,m,,,,,,,
,,,,,,,,,,,,001,2023-11-08_11h32.04.790,vowel_harmony,2023.2.3,Win32,60.51803437,554.5066,555.5069,,,,,,,,,,,,,,,,,,,,,,,,,,555.5069,556.1402,z,1,0.6014,,556.1402,556.1402,,0,287,287,335,1,336,lilo,,,,,4,notharmonic,1.8,nw,z,,,,,,,
,,,,,,,,,,,,001,2023-11-08_11h32.04.790,vowel_harmony,2023.2.3,Win32,60.51803437,556.1404,557.1406,,,,,,,,,,,,,,,,,,,,,,,,,,557.1406,557.93,z,1,0.7671,,557.93,557.9301,,0,288,288,221,1,222,yaypın,,,,,6,harmonic,1.75,nw,z,,,,,,,
,,,,,,,,,,,,001,2023-11-08_11h32.04.790,vowel_harmony,2023.2.3,Win32,60.51803437,557.9302,558.9302,,,,,,,,,,,,,,,,,,,,,,,,,,558.9302,559.4249,m,0,0.472,,559.425,559.425,,0,289,289,278,1,279,sekon,,,,,5,notharmonic,1.85,nw,z,,,,,,,
,,,,,,,,,,,,001,2023-11-08_11h32.04.790,vowel_harmony,2023.2.3,Win32,60.51803437,559.4251,560.4253,,,,,,,,,,,,,,,,,,,,,,,,,,560.4253,560.9756,m,1,0.517,,560.9756,560.9756,,0,290,290,164,1,165,sinema,1575,71.5618,1304,0.1426,6,notharmonic,1.8,word,m,,,,,,,
,,,,,,,,,,,,001,2023-11-08_11h32.04.790,vowel_harmony,2023.2.3,Win32,60.51803437,560.9758,561.9758,,,,,,,,,,,,,,,,,,,,,,,,,,561.9758,562.5821,z,1,0.5842,,562.5821,562.5822,,0,291,291,196,1,197,bilön,,,,,5,harmonic,1.9,nw,z,,,,,,,
,,,,,,,,,,,,001,2023-11-08_11h32.04.790,vowel_harmony,2023.2.3,Win32,60.51803437,562.5824,563.5765,,,,,,,,,,,,,,,,,,,,,,,,,,563.5765,564.2993,z,1,0.7006,,564.2994,564.2994,,0,292,292,356,1,357,mergun,,,,,6,notharmonic,1.95,nw,z,,,,,,,
,,,,,,,,,,,,001,2023-11-08_11h32.04.790,vowel_harmony,2023.2.3,Win32,60.51803437,564.2996,565.2938,,,,,,,,,,,,,,,,,,,,,,,,,,565.2939,565.8606,m,1,0.5338,,565.8606,565.8607,,0,293,293,83,1,84,küçük,14048,638.2854,12467,1.3629,5,harmonic,1.75,word,m,,,,,,,
,,,,,,,,,,,,001,2023-11-08_11h32.04.790,vowel_harmony,2023.2.3,Win32,60.51803437,565.8608,566.8609,,,,,,,,,,,,,,,,,,,,,,,,,,566.861,567.4447,z,1,0.5555,,567.4447,567.4447,,0,294,294,272,1,273,daken,,,,,5,notharmonic,1.8,nw,z,,,,,,,
,,,,,,,,,,,,001,2023-11-08_11h32.04.790,vowel_harmony,2023.2.3,Win32,60.51803437,567.4448,568.4339,,,,,,,,,,,,,,,,,,,,,,,,,,568.4339,568.9844,z,1,0.5337,,568.9844,568.9845,,0,295,295,220,1,221,denbi,,,,,5,harmonic,1.75,nw,z,,,,,,,
,,,,,,,,,,,,001,2023-11-08_11h32.04.790,vowel_harmony,2023.2.3,Win32,60.51803437,568.9848,569.9846,,,,,,,,,,,,,,,,,,,,,,,,,,569.9847,570.7458,m,1,0.7342,,570.7458,570.7459,,0,296,296,166,1,167,maden,402,18.2653,339,0.0371,5,notharmonic,1.45,word,m,,,,,,,
,,,,,,,,,,,,001,2023-11-08_11h32.04.790,vowel_harmony,2023.2.3,Win32,60.51803437,570.746,571.7351,,,,,,,,,,,,,,,,,,,,,,,,,,571.7351,572.2523,m,1,0.5004,,572.2524,572.2525,,0,297,297,32,1,33,temel,4231,192.2399,3851,0.421,5,harmonic,1.55,word,m,,,,,,,
,,,,,,,,,,,,001,2023-11-08_11h32.04.790,vowel_harmony,2023.2.3,Win32,60.51803437,572.2527,573.247,,,,,,,,,,,,,,,,,,,,,,,,,,573.247,573.8028,m,1,0.534,,573.8029,573.803,,0,298,298,152,1,153,tedavi,1865,84.7382,1597,0.1746,6,notharmonic,1.8,word,m,,,,,,,
,,,,,,,,,,,,001,2023-11-08_11h32.04.790,vowel_harmony,2023.2.3,Win32,60.51803437,573.8032,574.803,,,,,,,,,,,,,,,,,,,,,,,,,,574.803,575.3201,z,1,0.5004,,575.3201,575.3201,,0,299,299,249,1,250,hurıt,,,,,5,harmonic,1.95,nw,z,,,,,,,
,,,,,,,,,,,,001,2023-11-08_11h32.04.790,vowel_harmony,2023.2.3,Win32,60.51803437,575.3203,576.3203,,,,,,,,,,,,,,,,,,,,,,,,,,576.3203,576.7481,m,0,0.4097,,576.7481,576.7481,,0,300,300,216,1,217,çeyret,,,,,6,harmonic,1.9,nw,z,,,,,,,
,,,,,,,,,,,,001,2023-11-08_11h32.04.790,vowel_harmony,2023.2.3,Win32,60.51803437,576.7483,577.754,,,,,,,,,,,,,,,,,,,,,,,,,,577.754,578.349,z,1,0.5677,,578.349,578.349,,0,301,301,314,1,315,seral,,,,,5,notharmonic,1.7,nw,z,,,,,,,
,,,,,,,,,,,,001,2023-11-08_11h32.04.790,vowel_harmony,2023.2.3,Win32,60.51803437,578.3491,579.3494,,,,,,,,,,,,,,,,,,,,,,,,,,579.3494,579.8828,z,1,0.5015,,579.8828,579.8829,,0,302,302,286,1,287,cedan,,,,,5,notharmonic,1.8,nw,z,,,,,,,
,,,,,,,,,,,,001,2023-11-08_11h32.04.790,vowel_harmony,2023.2.3,Win32,60.51803437,579.883,580.8831,,,,,,,,,,,,,,,,,,,,,,,,,,580.8832,581.4891,z,1,0.584,,581.4891,581.4892,,0,303,303,338,1,339,pardön,,,,,6,notharmonic,1.95,nw,z,,,,,,,
,,,,,,,,,,,,001,2023-11-08_11h32.04.790,vowel_harmony,2023.2.3,Win32,60.51803437,581.4896,582.4838,,,,,,,,,,,,,,,,,,,,,,,,,,582.4838,583.1399,z,1,0.6342,,583.1399,583.1399,,0,304,304,295,1,296,haylin,,,,,6,notharmonic,1.8,nw,z,,,,,,,
,,,,,,,,,,,,001,2023-11-08_11h32.04.790,vowel_harmony,2023.2.3,Win32,60.51803437,583.1401,584.1401,,,,,,,,,,,,,,,,,,,,,,,,,,584.1401,584.6846,z,1,0.5248,,584.6846,584.6847,,0,305,305,317,1,318,mevul,,,,,5,notharmonic,1.95,nw,z,,,,,,,
,,,,,,,,,,,,001,2023-11-08_11h32.04.790,vowel_harmony,2023.2.3,Win32,60.51803437,584.6849,585.6738,,,,,,,,,,,,,,,,,,,,,,,,,,585.6738,586.2686,m,1,0.5719,,586.2686,586.2686,,0,306,306,85,1,86,geçmiş,4195,190.6042,4039,0.4415,6,harmonic,1.55,word,m,,,,,,,
,,,,,,,,,,,,001,2023-11-08_11h32.04.790,vowel_harmony,2023.2.3,Win32,60.51803437,586.2688,587.2745,,,,,,,,,,,,,,,,,,,,,,,,,,587.2745,588.1192,z,1,0.8176,,588.1192,588.1192,,0,307,307,327,1,328,parkeş,,,,,6,notharmonic,1.9,nw,z,,,,,,,
,,,,,,,,,,,,001,2023-11-08_11h32.04.790,vowel_harmony,2023.2.3,Win32,60.51803437,588.1194,589.1198,,,,,,,,,,,,,,,,,,,,,,,,,,589.1198,589.6865,m,1,0.5392,,589.6865,589.6866,,0,308,308,56,1,57,sağlam,1818,82.6027,1720,0.188,6,harmonic,1.6,word,m,,,,,,,
,,,,,,,,,,,,001,2023-11-08_11h32.04.790,vowel_harmony,2023.2.3,Win32,60.51803437,589.6868,590.6758,,,,,,,,,,,,,,,,,,,,,,,,,,590.6758,591.2597,z,1,0.5674,,591.2597,591.2598,,0,309,309,308,1,309,hafer,,,,,5,notharmonic,1.85,nw,z,,,,,,,
,,,,,,,,,,,,001,2023-11-08_11h32.04.790,vowel_harmony,2023.2.3,Win32,60.51803437,591.2601,592.2542,,,,,,,,,,,,,,,,,,,,,,,,,,592.2542,592.8377,z,1,0.5563,,592.8377,592.8377,,0,310,310,336,1,337,diyam,,,,,5,notharmonic,1.85,nw,z,,,,,,,
,,,,,,,,,,,,001,2023-11-08_11h32.04.790,vowel_harmony,2023.2.3,Win32,60.51803437,592.8379,593.8381,,,,,,,,,,,,,,,,,,,,,,,,,,593.8382,594.6269,m,1,0.7668,,594.6269,594.627,,0,311,311,138,1,139,kardeş,1270,57.7038,1174,0.1283,6,notharmonic,1.9,word,m,,,,,,,
,,,,,,,,,,,,001,2023-11-08_11h32.04.790,vowel_harmony,2023.2.3,Win32,60.51803437,594.6272,595.6221,,,,,,,,,,,,,,,,,,,,,,,,,,595.6221,596.2391,z,1,0.5839,,596.2392,596.2392,,0,312,312,303,1,304,fisor,,,,,5,notharmonic,1.9,nw,z,,,,,,,
,,,,,,,,,,,,001,2023-11-08_11h32.04.790,vowel_harmony,2023.2.3,Win32,60.51803437,596.2394,597.2395,,,,,,,,,,,,,,,,,,,,,,,,,,597.2395,597.7896,z,1,0.5176,,597.7896,597.7897,,0,313,313,349,1,350,harten,,,,,6,notharmonic,1.85,nw,z,,,,,,,
,,,,,,,,,,,,001,2023-11-08_11h32.04.790,vowel_harmony,2023.2.3,Win32,60.51803437,597.7898,598.7788,,,,,,,,,,,,,,,,,,,,,,,,,,598.7789,599.4233,m,1,0.6176,,599.4234,599.4235,,0,314,314,107,1,108,merak,5806,263.8016,5524,0.6039,5,notharmonic,1.65,word,m,,,,,,,
,,,,,,,,,,,,001,2023-11-08_11h32.04.790,vowel_harmony,2023.2.3,Win32,60.51803437,599.4236,600.4126,,,,,,,,,,,,,,,,,,,,,,,,,,600.4127,600.9408,z,1,0.5116,,600.9409,600.9409,,0,315,315,266,1,267,düştön,,,,,6,harmonic,1.9,nw,z,,,,,,,
,,,,,,,,,,,,001,2023-11-08_11h32.04.790,vowel_harmony,2023.2.3,Win32,60.51803437,600.9411,601.9299,,,,,,,,,,,,,,,,,,,,,,,,,,601.9299,602.4914,m,1,0.5368,,602.4915,602.4915,,0,316,316,113,1,114,model,1200,54.5232,1082,0.1183,5,notharmonic,1.75,word,m,,,,,,,
,,,,,,,,,,,,001,2023-11-08_11h32.04.790,vowel_harmony,2023.2.3,Win32,60.51803437,602.4916,603.4919,,,,,,,,,,,,,,,,,,,,,,,,,,603.4919,604.0647,m,1,0.5506,,604.0648,604.0649,,0,317,317,87,1,88,mümkün,6604,300.0596,6264,0.6848,6,harmonic,1.9,word,m,,,,,,,
,,,,,,,,,,,,001,2023-11-08_11h32.04.790,vowel_harmony,2023.2.3,Win32,60.51803437,604.0651,605.0591,,,,,,,,,,,,,,,,,,,,,,,,,,605.0591,605.5652,m,1,0.484,,605.5652,605.5653,,0,318,318,35,1,36,hava,4975,226.0443,4398,0.4808,4,harmonic,1,word,m,,,,,,,
,,,,,,,,,,,,001,2023-11-08_11h32.04.790,vowel_harmony,2023.2.3,Win32,60.51803437,605.5655,606.565,,,,,,,,,,,,,,,,,,,,,,,,,,606.565,607.0766,m,1,0.4894,,607.0766,607.0766,,0,319,319,108,1,109,tarih,2806,127.4935,2483,0.2714,5,notharmonic,1.55,word,m,,,,,,,
,,,,,,,,,,,,001,2023-11-08_11h32.04.790,vowel_harmony,2023.2.3,Win32,60.51803437,607.0768,608.0825,,,,,,,,,,,,,,,,,,,,,,,,,,608.0825,608.6438,z,1,0.5339,,608.6438,608.6439,,0,320,320,205,1,206,kahay,,,,,5,harmonic,1.9,nw,z,,,,,,,
,,,,,,,,,,,,001,2023-11-08_11h32.04.790,vowel_harmony,2023.2.3,Win32,60.51803437,608.644,609.6496,,,,,,,,,,,,,,,,,,,,,,,,,,609.6496,610.2109,z,1,0.5392,,610.2109,610.2109,,0,321,321,354,1,355,taden,,,,,5,notharmonic,1.7,nw,z,,,,,,,
,,,,,,,,,,,,001,2023-11-08_11h32.04.790,vowel_harmony,2023.2.3,Win32,60.51803437,610.2111,611.2169,,,,,,,,,,,,,,,,,,,,,,,,,,611.2169,611.8451,z,1,0.6055,,611.8451,611.8451,,0,322,322,289,1,290,karmen,,,,,6,notharmonic,1.75,nw,z,,,,,,,
,,,,,,,,,,,,001,2023-11-08_11h32.04.790,vowel_harmony,2023.2.3,Win32,60.51803437,611.8452,612.8454,,,,,,,,,,,,,,,,,,,,,,,,,,612.8454,613.5514,m,1,0.6838,,613.5514,613.5515,,0,323,323,134,1,135,iptal,793,36.0308,725,0.0793,5,notharmonic,1.35,word,m,,,,,,,
,,,,,,,,,,,,001,2023-11-08_11h32.04.790,vowel_harmony,2023.2.3,Win32,60.51803437,613.5516,614.5461,,,,,,,,,,,,,,,,,,,,,,,,,,614.5461,615.1962,m,1,0.6244,,615.1962,615.1963,,0,324,324,95,1,96,takip,4996,226.9984,4651,0.5084,5,notharmonic,1.55,word,m,,,,,,,
,,,,,,,,,,,,001,2023-11-08_11h32.04.790,vowel_harmony,2023.2.3,Win32,60.51803437,615.1964,616.1968,,,,,,,,,,,,,,,,,,,,,,,,,,616.1968,617.5364,z,1,1.3176,,617.5364,617.5364,,0,325,325,280,1,281,adalek,,,,,6,notharmonic,1.85,nw,z,,,,,,,
,,,,,,,,,,,,001,2023-11-08_11h32.04.790,vowel_harmony,2023.2.3,Win32,60.51803437,617.5427,618.5309,,,,,,,,,,,,,,,,,,,,,,,,,,618.5309,619.3146,z,1,0.7555,,619.3146,619.3146,,0,326,326,292,1,293,kinam,,,,,5,notharmonic,1.85,nw,z,,,,,,,
,,,,,,,,,,,,001,2023-11-08_11h32.04.790,vowel_harmony,2023.2.3,Win32,60.51803437,619.3148,620.315,,,,,,,,,,,,,,,,,,,,,,,,,,620.315,620.9543,m,1,0.6172,,620.9543,620.9544,,0,327,327,175,1,176,aile,3655,166.0687,3126,0.3417,4,notharmonic,1,word,m,,,,,,,
,,,,,,,,,,,,001,2023-11-08_11h32.04.790,vowel_harmony,2023.2.3,Win32,60.51803437,620.9546,621.9489,,,,,,,,,,,,,,,,,,,,,,,,,,621.9489,622.4991,m,1,0.5172,,622.4991,622.4992,,0,328,328,161,1,162,komik,1617,73.4701,1506,0.1646,5,notharmonic,1.75,word,m,,,,,,,
,,,,,,,,,,,,001,2023-11-08_11h32.04.790,vowel_harmony,2023.2.3,Win32,60.51803437,622.4994,623.505,,,,,,,,,,,,,,,,,,,,,,,,,,623.505,624.1164,m,1,0.5842,,624.1164,624.1164,,0,329,329,125,1,126,ikna,1276,57.9764,1173,0.1282,4,notharmonic,1.85,word,m,,,,,,,
,,,,,,,,,,,,001,2023-11-08_11h32.04.790,vowel_harmony,2023.2.3,Win32,60.51803437,624.1165,625.1169,,,,,,,,,,,,,,,,,,,,,,,,,,625.1169,625.6229,m,1,0.4841,,625.6229,625.623,,0,330,330,94,1,95,final,876,39.802,778,0.0851,5,notharmonic,1,word,m,,,,,,,
,,,,,,,,,,,,001,2023-11-08_11h32.04.790,vowel_harmony,2023.2.3,Win32,60.51803437,625.6232,626.6174,,,,,,,,,,,,,,,,,,,,,,,,,,626.6174,627.2343,m,1,0.5837,,627.2343,627.2343,,0,331,331,177,1,178,tekrar,10788,490.1639,9352,1.0224,6,notharmonic,1.85,word,m,,,,,,,
,,,,,,,,,,,,001,2023-11-08_11h32.04.790,vowel_harmony,2023.2.3,Win32,60.51803437,627.2345,628.2347,,,,,,,,,,,,,,,,,,,,,,,,,,628.2348,628.9015,z,1,0.6388,,628.9015,628.9015,,0,332,332,208,1,209,yayram,,,,,6,harmonic,1.85,nw,z,,,,,,,
,,,,,,,,,,,,001,2023-11-08_11h32.04.790,vowel_harmony,2023.2.3,Win32,60.51803437,628.9017,629.902,,,,,,,,,,,,,,,,,,,,,,,,,,629.902,630.4413,m,1,0.517,,630.4413,630.4414,,0,333,333,51,1,52,ilginç,2803,127.3572,2690,0.2941,6,harmonic,1.8,word,m,,,,,,,
,,,,,,,,,,,,001,2023-11-08_11h32.04.790,vowel_harmony,2023.2.3,Win32,60.51803437,630.4415,631.4358,,,,,,,,,,,,,,,,,,,,,,,,,,631.4359,632.0361,m,1,0.5674,,632.0361,632.0361,,0,334,334,98,1,99,paket,1532,69.608,1392,0.1522,5,notharmonic,1.55,word,m,,,,,,,
,,,,,,,,,,,,001,2023-11-08_11h32.04.790,vowel_harmony,2023.2.3,Win32,60.51803437,632.0363,633.0253,,,,,,,,,,,,,,,,,,,,,,,,,,633.0253,633.6701,z,1,0.6175,,633.6701,633.6702,,0,335,335,283,1,284,fahe,,,,,4,notharmonic,1.95,nw,z,,,,,,,
,,,,,,,,,,,,001,2023-11-08_11h32.04.790,vowel_harmony,2023.2.3,Win32,60.51803437,633.6703,634.6704,,,,,,,,,,,,,,,,,,,,,,,,,,634.6704,635.3431,z,1,0.6504,,635.3431,635.3432,,0,336,336,260,1,261,yarlam,,,,,6,harmonic,1.75,nw,z,,,,,,,
,,,,,,,,,,,,001,2023-11-08_11h32.04.790,vowel_harmony,2023.2.3,Win32,60.51803437,635.3434,636.3378,,,,,,,,,,,,,,,,,,,,,,,,,,636.3378,637.3381,m,1,0.9716,,637.3381,637.3381,,0,337,337,44,1,45,kayıt,1234,56.0681,1058,0.1157,5,harmonic,1.35,word,m,,,,,,,
,,,,,,,,,,,,001,2023-11-08_11h32.04.790,vowel_harmony,2023.2.3,Win32,60.51803437,637.3383,638.3385,,,,,,,,,,,,,,,,,,,,,,,,,,638.3385,639.1222,z,1,0.751,,639.1222,639.1222,,0,338,338,210,1,211,şevci,,,,,5,harmonic,1.75,nw,z,,,,,,,
,,,,,,,,,,,,001,2023-11-08_11h32.04.790,vowel_harmony,2023.2.3,Win32,60.51803437,639.1223,640.1225,,,,,,,,,,,,,,,,,,,,,,,,,,640.1226,640.606,m,1,0.4543,,640.6061,640.6061,,0,339,339,41,1,42,zengin,2193,99.6412,2015,0.2203,6,harmonic,1.65,word,m,,,,,,,
,,,,,,,,,,,,001,2023-11-08_11h32.04.790,vowel_harmony,2023.2.3,Win32,60.51803437,640.6063,641.595,,,,,,,,,,,,,,,,,,,,,,,,,,641.595,642.1567,m,1,0.5338,,642.1567,642.1568,,0,340,340,176,1,177,harika,4682,212.7315,4422,0.4834,6,notharmonic,1.9,word,m,,,,,,,
,,,,,,,,,,,,001,2023-11-08_11h32.04.790,vowel_harmony,2023.2.3,Win32,60.51803437,642.1569,643.1568,,,,,,,,,,,,,,,,,,,,,,,,,,643.1568,643.8073,z,1,0.6225,,643.8073,643.8074,,0,341,341,332,1,333,tahane,,,,,6,notharmonic,1.85,nw,z,,,,,,,
,,,,,,,,,,,,001,2023-11-08_11h32.04.790,vowel_harmony,2023.2.3,Win32,60.51803437,643.8074,644.8075,,,,,,,,,,,,,,,,,,,,,,,,,,644.8075,645.2579,m,1,0.4225,,645.2579,645.258,,0,342,342,60,1,61,doğu,2105,95.6429,1823,0.1993,4,harmonic,1.05,word,m,,,,,,,
,,,,,,,,,,,,001,2023-11-08_11h32.04.790,vowel_harmony,2023.2.3,Win32,60.51803437,645.2582,646.2581,,,,,,,,,,,,,,,,,,,,,,,,,,646.2581,646.7584,m,1,0.4725,,646.7585,646.7586,,0,343,343,27,1,28,bölge,1283,58.2944,1123,0.1228,5,harmonic,1.65,word,m,,,,,,,
,,,,,,,,,,,,001,2023-11-08_11h32.04.790,vowel_harmony,2023.2.3,Win32,60.51803437,646.7587,647.748,,,,,,,,,,,,,,,,,,,,,,,,,,647.748,648.2157,m,1,0.4513,,648.2158,648.2159,,0,344,344,148,1,149,selam,1868,84.8745,1764,0.1928,5,notharmonic,1.35,word,m,,,,,,,
,,,,,,,,,,,,001,2023-11-08_11h32.04.790,vowel_harmony,2023.2.3,Win32,60.51803437,648.2161,649.2094,,,,,,,,,,,,,,,,,,,,,,,,,,649.2094,649.7594,z,1,0.527,,649.7594,649.7594,,0,345,345,182,1,183,orsın,,,,,5,harmonic,1.95,nw,z,,,,,,,
,,,,,,,,,,,,001,2023-11-08_11h32.04.790,vowel_harmony,2023.2.3,Win32,60.51803437,649.7596,650.7599,,,,,,,,,,,,,,,,,,,,,,,,,,650.76,651.2098,m,1,0.4266,,651.2098,651.2099,,0,346,346,42,1,43,ürün,2268,103.0489,1954,0.2136,4,harmonic,1.1,word,m,,,,,,,
,,,,,,,,,,,,001,2023-11-08_11h32.04.790,vowel_harmony,2023.2.3,Win32,60.51803437,651.21,652.2104,,,,,,,,,,,,,,,,,,,,,,,,,,652.2104,652.7331,m,1,0.5004,,652.7331,652.7332,,0,347,347,77,1,78,ufak,3252,147.758,2980,0.3258,4,harmonic,1.5,word,m,,,,,,,
,,,,,,,,,,,,001,2023-11-08_11h32.04.790,vowel_harmony,2023.2.3,Win32,60.51803437,652.7334,653.7276,,,,,,,,,,,,,,,,,,,,,,,,,,653.7276,654.1613,m,0,0.4045,,654.1613,654.1613,,0,348,348,316,1,317,misaf,,,,,5,notharmonic,1.85,nw,z,,,,,,,
,,,,,,,,,,,,001,2023-11-08_11h32.04.790,vowel_harmony,2023.2.3,Win32,60.51803437,654.1614,655.1618,,,,,,,,,,,,,,,,,,,,,,,,,,655.1618,655.8008,z,1,0.6173,,655.8008,655.801,,0,349,349,259,1,260,hayuk,,,,,5,harmonic,1.95,nw,z,,,,,,,
,,,,,,,,,,,,001,2023-11-08_11h32.04.790,vowel_harmony,2023.2.3,Win32,60.51803437,655.8012,656.801,,,,,,,,,,,,,,,,,,,,,,,,,,656.8011,657.3688,m,1,0.5509,,657.3688,657.369,,0,350,350,1,1,2,erkek,6188,281.1582,5195,0.5679,5,harmonic,1.65,word,m,,,,,,,
,,,,,,,,,,,,001,2023-11-08_11h32.04.790,vowel_harmony,2023.2.3,Win32,60.51803437,657.3691,658.3629,,,,,,,,,,,,,,,,,,,,,,,,,,658.3629,658.9964,m,1,0.6051,,658.9964,658.9964,,0,351,351,16,1,17,yavaş,5087,231.1331,2886,0.3155,5,harmonic,1.6,word,m,,,,,,,
,,,,,,,,,,,,001,2023-11-08_11h32.04.790,vowel_harmony,2023.2.3,Win32,60.51803437,658.9966,659.9968,,,,,,,,,,,,,,,,,,,,,,,,,,659.9968,660.5137,z,1,0.4843,,660.5138,660.5138,,0,352,352,245,1,246,bıyan,,,,,5,harmonic,1.7,nw,z,,,,,,,
,,,,,,,,,,,,001,2023-11-08_11h32.04.790,vowel_harmony,2023.2.3,Win32,60.51803437,660.514,661.5028,,,,,,,,,,,,,,,,,,,,,,,,,,661.5028,662.0809,z,1,0.5549,,662.0809,662.081,,0,353,353,242,1,243,kahon,,,,,5,harmonic,1.85,nw,z,,,,,,,
,,,,,,,,,,,,001,2023-11-08_11h32.04.790,vowel_harmony,2023.2.3,Win32,60.51803437,662.0812,663.0813,,,,,,,,,,,,,,,,,,,,,,,,,,663.0813,663.6649,z,1,0.5519,,663.6649,663.665,,0,354,354,302,1,303,işgar,,,,,5,notharmonic,1.9,nw,z,,,,,,,
,,,,,,,,,,,,001,2023-11-08_11h32.04.790,vowel_harmony,2023.2.3,Win32,60.51803437,663.6651,664.654,,,,,,,,,,,,,,,,,,,,,,,,,,664.654,665.2655,m,1,0.5837,,665.2656,665.2656,,0,355,355,63,1,64,sultan,1756,79.7857,1368,0.1496,6,harmonic,1.55,word,m,,,,,,,
,,,,,,,,,,,,001,2023-11-08_11h32.04.790,vowel_harmony,2023.2.3,Win32,60.51803437,665.2657,666.2713,,,,,,,,,,,,,,,,,,,,,,,,,,666.2713,666.7493,z,1,0.4505,,666.7493,666.7494,,0,356,356,183,1,184,orkın,,,,,5,harmonic,1.9,nw,z,,,,,,,
,,,,,,,,,,,,001,2023-11-08_11h32.04.790,vowel_harmony,2023.2.3,Win32,60.51803437,666.7495,667.7495,,,,,,,,,,,,,,,,,,,,,,,,,,667.7495,668.2831,m,1,0.5067,,668.2831,668.2832,,0,357,357,99,1,100,ilave,3173,144.1685,2619,0.2863,5,notharmonic,1.85,word,m,,,,,,,
,,,,,,,,,,,,001,2023-11-08_11h32.04.790,vowel_harmony,2023.2.3,Win32,60.51803437,668.2833,669.2837,,,,,,,,,,,,,,,,,,,,,,,,,,669.2837,669.7396,m,1,0.4338,,669.7397,669.7398,,0,358,358,24,1,25,yorgun,1153,52.3877,1108,0.1211,6,harmonic,1.55,word,m,,,,,,,
,,,,,,,,,,,,001,2023-11-08_11h32.04.790,vowel_harmony,2023.2.3,Win32,60.51803437,669.7401,670.7343,,,,,,,,,,,,,,,,,,,,,,,,,,670.7343,671.3071,z,1,0.5506,,671.3071,671.3071,,0,359,359,194,1,195,rayna,,,,,5,harmonic,1.7,nw,z,,,,,,,
,,,,,,,,,,,,001,2023-11-08_11h32.04.790,vowel_harmony,2023.2.3,Win32,60.51803437,,,,,,,,,,,,,,,,,,,,,,,,,,,,,,,,,,,,,,,,,,,,,,,,,,,,,,,671.3075,673.2187,space,1.8843,