Welcome_screen.started,Welcome_screen.stopped,key_respwelcome.keys,key_respwelcome.rt,key_respwelcome.duration,intro_x.thisRepN,intro_x.thisTrialN,intro_x.thisN,intro_x.thisIndex,intro_x.ran,Introduction,participant,session,date,expName,psychopyVersion,OS,frameRate,Fixation.started,Fixation.stopped,Studypractice.started,Studypractice.stopped,key_respstudy.keys,key_respstudy.corr,key_respstudy.rt,key_respstudy.duration,rt,corr,Feedback.started,Feedback.stopped,practice_loop.thisRepN,practice_loop.thisTrialN,practice_loop.thisN,practice_loop.thisIndex,practice_loop.ran,item_nr_p,target_p,isHarmonic_p,target_cond_p,CorrAns_p,Instraction.started,Instraction.stopped,key_respınstraction.keys,key_respınstraction.rt,key_respınstraction.duration,TestTrial.started,TestTrial.stopped,key_respTest.keys,key_respTest.corr,key_respTest.rt,key_respTest.duration,Pause.started,Pause.stopped,key_resp_xx.keys,test_loop.thisRepN,test_loop.thisTrialN,test_loop.thisN,test_loop.thisIndex,test_loop.ran,item_nr,target,BlogFreq_A1,BlogFreqpm_A1,BlogCD_A1,BlogCDPc_A1,WordLength_A1,isHarmonic_A1,old20,target_cond,CorrAns,key_resp_xx.rt,key_resp_xx.duration,Goodbye_screen.started,Goodbye_screen.stopped,key_respgoodbye.keys,key_respgoodbye.rt,key_respgoodbye.duration
0.0157,2.3978,space,2.3692,,0,0,0,0,1,"Deneye hoş geldiniz,

Devam etmek için BOŞLUK tuşuna basınız.",,001,2023-11-08_23h56.28.002,vowel_harmony,2023.2.3,Win32,143.9884809,,,,,,,,,,,,,,,,,,,,,,,,,,,,,,,,,,,,,,,,,,,,,,,,,,,,,,,,,,,
2.3982,17.3288,space,14.9231,,0,1,1,1,1,"Bu çalışma Valencia Üniversitesi kapsamında yürütülmektedir. Deneydeki göreviniz, ekrana çıkacak Türkçe sözcüklerin kelime olup olmadığını belirlemenizdir. Eğer sözcük gerçek bir kelime ise ""m"" tuşuna, değil ise ""z"" tuşuna basınız.   

Devam etmek için BOŞLUK tuşuna basınız.",,001,2023-11-08_23h56.28.002,vowel_harmony,2023.2.3,Win32,143.9884809,,,,,,,,,,,,,,,,,,,,,,,,,,,,,,,,,,,,,,,,,,,,,,,,,,,,,,,,,,,
17.329,25.7099,space,8.3698,,0,2,2,2,1,"Her sözcük için en fazla iki saniyede cevap vermeniz beklenmektedir. Aksi takdirde deney bir sonraki sözcük ile devam eder. 
Bu çalışmada oldukça hızlı ve doğru cevaplama yapmanız beklenmektedir.

Devam etmek için BOŞLUK tuşuna basınız.",,001,2023-11-08_23h56.28.002,vowel_harmony,2023.2.3,Win32,143.9884809,,,,,,,,,,,,,,,,,,,,,,,,,,,,,,,,,,,,,,,,,,,,,,,,,,,,,,,,,,,
25.7101,33.7445,space,8.0214,,0,3,3,3,1,"Çalışmaya başlamadan önce ufak bir pratik yer almaktadır.
Kelimedir: ""m""
Kelime değildir: ""z""

Pratik teste başlamak için BOŞLUK tuşuna basınız. ",,001,2023-11-08_23h56.28.002,vowel_harmony,2023.2.3,Win32,143.9884809,,,,,,,,,,,,,,,,,,,,,,,,,,,,,,,,,,,,,,,,,,,,,,,,,,,,,,,,,,,
,,,,,,,,,,,,001,2023-11-08_23h56.28.002,vowel_harmony,2023.2.3,Win32,143.9884809,33.7509,34.7514,34.7515,35.6196,m,1,0.8546,,0.8546,1,35.6198,37.1196,0,0,0,4,1,5,mimar,notharmonic,word,m,,,,,,,,,,,,,,,,,,,,,,,,,,,,,,,,,,,,,
,,,,,,,,,,,,001,2023-11-08_23h56.28.002,vowel_harmony,2023.2.3,Win32,143.9884809,37.1199,38.1194,38.1194,39.1262,m,1,0.9959,,0.9959,1,39.1263,40.6262,0,1,1,2,1,3,memur,notharmonic,word,m,,,,,,,,,,,,,,,,,,,,,,,,,,,,,,,,,,,,,
,,,,,,,,,,,,001,2023-11-08_23h56.28.002,vowel_harmony,2023.2.3,Win32,143.9884809,40.6266,41.6262,41.6262,42.279,m,1,0.6414,,0.6414,1,42.279,43.7798,0,2,2,1,1,2,veri,harmonic,word,m,,,,,,,,,,,,,,,,,,,,,,,,,,,,,,,,,,,,,
,,,,,,,,,,,,001,2023-11-08_23h56.28.002,vowel_harmony,2023.2.3,Win32,143.9884809,43.78,44.779,44.779,45.4039,m,1,0.6166,,0.6166,1,45.4039,46.9048,0,3,3,7,1,8,oran,harmonic,word,m,,,,,,,,,,,,,,,,,,,,,,,,,,,,,,,,,,,,,
,,,,,,,,,,,,001,2023-11-08_23h56.28.002,vowel_harmony,2023.2.3,Win32,143.9884809,46.905,47.9039,47.904,48.4743,m,1,0.5625,,0.5625,1,48.4743,49.9734,0,4,4,3,1,4,ihlal,notharmonic,word,m,,,,,,,,,,,,,,,,,,,,,,,,,,,,,,,,,,,,,
,,,,,,,,,,,,001,2023-11-08_23h56.28.002,vowel_harmony,2023.2.3,Win32,143.9884809,49.9735,50.9733,50.9733,52.008,z,1,1.0231,,1.0231,1,52.0081,53.5081,0,5,5,12,1,13,ihlot,notharmonic,nw,z,,,,,,,,,,,,,,,,,,,,,,,,,,,,,,,,,,,,,
,,,,,,,,,,,,001,2023-11-08_23h56.28.002,vowel_harmony,2023.2.3,Win32,143.9884809,53.5083,54.508,54.508,55.8414,m,0,1.321,,1.321,0,55.8414,57.3413,0,6,6,14,1,15,pimer,harmonic,nw,z,,,,,,,,,,,,,,,,,,,,,,,,,,,,,,,,,,,,,
,,,,,,,,,,,,001,2023-11-08_23h56.28.002,vowel_harmony,2023.2.3,Win32,143.9884809,57.3415,58.3413,58.3413,59.2302,z,1,0.8799,,0.8799,1,59.2302,60.7308,0,7,7,9,1,10,orat,harmonic,nw,z,,,,,,,,,,,,,,,,,,,,,,,,,,,,,,,,,,,,,
,,,,,,,,,,,,001,2023-11-08_23h56.28.002,vowel_harmony,2023.2.3,Win32,143.9884809,60.7311,61.7302,61.7302,62.2718,m,1,0.5316,,0.5316,1,62.2719,63.7718,0,8,8,0,1,1,ihale,notharmonic,word,m,,,,,,,,,,,,,,,,,,,,,,,,,,,,,,,,,,,,,
,,,,,,,,,,,,001,2023-11-08_23h56.28.002,vowel_harmony,2023.2.3,Win32,143.9884809,63.772,64.7726,64.7726,65.619,z,1,0.8348,,0.8348,1,65.619,67.1189,0,9,9,13,1,14,pilar,notharmonic,nw,z,,,,,,,,,,,,,,,,,,,,,,,,,,,,,,,,,,,,,
,,,,,,,,,,,,001,2023-11-08_23h56.28.002,vowel_harmony,2023.2.3,Win32,143.9884809,67.1192,68.119,68.1191,68.8898,z,1,0.7594,,0.7594,1,68.8899,70.3898,0,10,10,15,1,16,mımal,harmonic,nw,z,,,,,,,,,,,,,,,,,,,,,,,,,,,,,,,,,,,,,
,,,,,,,,,,,,001,2023-11-08_23h56.28.002,vowel_harmony,2023.2.3,Win32,143.9884809,70.39,71.3897,71.3898,72.1675,z,1,0.7688,,0.7688,1,72.1675,73.6678,0,11,11,8,1,9,tahip,notharmonic,nw,z,,,,,,,,,,,,,,,,,,,,,,,,,,,,,,,,,,,,,
,,,,,,,,,,,,001,2023-11-08_23h56.28.002,vowel_harmony,2023.2.3,Win32,143.9884809,73.668,74.6684,74.6684,75.2925,m,1,0.6117,,0.6117,1,75.2925,76.7925,0,12,12,6,1,7,pilot,notharmonic,word,m,,,,,,,,,,,,,,,,,,,,,,,,,,,,,,,,,,,,,
,,,,,,,,,,,,001,2023-11-08_23h56.28.002,vowel_harmony,2023.2.3,Win32,143.9884809,76.7927,77.7924,77.7924,78.3977,z,1,0.5977,,0.5977,1,78.3977,79.8965,0,13,13,11,1,12,geki,harmonic,nw,z,,,,,,,,,,,,,,,,,,,,,,,,,,,,,,,,,,,,,
,,,,,,,,,,,,001,2023-11-08_23h56.28.002,vowel_harmony,2023.2.3,Win32,143.9884809,79.8968,80.8966,80.8966,81.8896,m,1,0.9832,,0.9832,1,81.8896,83.3896,0,14,14,5,1,6,bahçe,notharmonic,word,m,,,,,,,,,,,,,,,,,,,,,,,,,,,,,,,,,,,,,
,,,,,,,,,,,,001,2023-11-08_23h56.28.002,vowel_harmony,2023.2.3,Win32,143.9884809,83.3897,84.3896,84.3896,85.0424,z,1,0.6426,,0.6426,1,85.0425,86.5423,0,15,15,10,1,11,mahne,notharmonic,nw,z,,,,,,,,,,,,,,,,,,,,,,,,,,,,,,,,,,,,,
,,,,,,,,,,,,001,2023-11-08_23h56.28.002,vowel_harmony,2023.2.3,Win32,143.9884809,,,,,,,,,,,,,,,,,,,,,,,86.5426,103.5077,space,16.9556,,,,,,,,,,,,,,,,,,,,,,,,,,,,,,,,,
,,,,,,,,,,,,001,2023-11-08_23h56.28.002,vowel_harmony,2023.2.3,Win32,143.9884809,103.5422,104.5142,,,,,,,,,,,,,,,,,,,,,,,,,,104.5144,105.0214,m,1,0.4997,,105.0215,105.0222,,0,0,0,50,1,51,kanun,1198,54.4324,1010,0.1104,5,harmonic,1.6,word,m,,,,,,,
,,,,,,,,,,,,001,2023-11-08_23h56.28.002,vowel_harmony,2023.2.3,Win32,143.9884809,105.0224,106.0212,,,,,,,,,,,,,,,,,,,,,,,,,,106.0212,106.6531,m,1,0.6258,,106.6532,106.6533,,0,1,1,95,1,96,takip,4996,226.9984,4651,0.5084,5,notharmonic,1.55,word,m,,,,,,,
,,,,,,,,,,,,001,2023-11-08_23h56.28.002,vowel_harmony,2023.2.3,Win32,143.9884809,106.6534,107.6531,,,,,,,,,,,,,,,,,,,,,,,,,,107.6531,108.0768,m,1,0.4189,,108.0768,108.0769,,0,2,2,130,1,131,hamile,1075,48.8437,877,0.0959,6,notharmonic,1.5,word,m,,,,,,,
,,,,,,,,,,,,001,2023-11-08_23h56.28.002,vowel_harmony,2023.2.3,Win32,143.9884809,108.077,109.0768,,,,,,,,,,,,,,,,,,,,,,,,,,109.0768,109.6114,m,1,0.5312,,109.6115,109.6115,,0,3,3,170,1,171,basit,3385,153.801,3177,0.3473,5,notharmonic,1.65,word,m,,,,,,,
,,,,,,,,,,,,001,2023-11-08_23h56.28.002,vowel_harmony,2023.2.3,Win32,143.9884809,109.6117,110.6115,,,,,,,,,,,,,,,,,,,,,,,,,,110.6115,111.0559,m,1,0.4364,,111.0559,111.0559,,0,4,4,142,1,143,siyasi,2909,132.1734,2445,0.2673,6,notharmonic,1.8,word,m,,,,,,,
,,,,,,,,,,,,001,2023-11-08_23h56.28.002,vowel_harmony,2023.2.3,Win32,143.9884809,111.0561,112.0559,,,,,,,,,,,,,,,,,,,,,,,,,,112.0559,112.4725,m,1,0.4088,,112.4726,112.4726,,0,5,5,32,1,33,temel,4231,192.2399,3851,0.421,5,harmonic,1.55,word,m,,,,,,,
,,,,,,,,,,,,001,2023-11-08_23h56.28.002,vowel_harmony,2023.2.3,Win32,143.9884809,112.4728,113.4725,,,,,,,,,,,,,,,,,,,,,,,,,,113.4725,114.1739,z,1,0.6958,,114.1739,114.174,,0,6,6,189,1,190,düvre,,,,,5,harmonic,1.85,nw,z,,,,,,,
,,,,,,,,,,,,001,2023-11-08_23h56.28.002,vowel_harmony,2023.2.3,Win32,143.9884809,114.1743,115.1739,,,,,,,,,,,,,,,,,,,,,,,,,,115.1739,115.66,m,1,0.4826,,115.66,115.6601,,0,7,7,131,1,132,hakim,1677,76.1962,1559,0.1704,5,notharmonic,1,word,m,,,,,,,
,,,,,,,,,,,,001,2023-11-08_23h56.28.002,vowel_harmony,2023.2.3,Win32,143.9884809,115.6602,116.6599,,,,,,,,,,,,,,,,,,,,,,,,,,116.6599,117.2225,z,1,0.5569,,117.2225,117.2225,,0,8,8,266,1,267,düştön,,,,,6,harmonic,1.9,nw,z,,,,,,,
,,,,,,,,,,,,001,2023-11-08_23h56.28.002,vowel_harmony,2023.2.3,Win32,143.9884809,117.2227,118.2225,,,,,,,,,,,,,,,,,,,,,,,,,,118.2225,118.9725,z,1,0.7466,,118.9725,118.9726,,0,9,9,348,1,349,aife,,,,,4,notharmonic,1.75,nw,z,,,,,,,
,,,,,,,,,,,,001,2023-11-08_23h56.28.002,vowel_harmony,2023.2.3,Win32,143.9884809,118.9728,119.9724,,,,,,,,,,,,,,,,,,,,,,,,,,119.9724,120.6738,z,1,0.6935,,120.6739,120.6739,,0,10,10,231,1,232,norgun,,,,,6,harmonic,1.75,nw,z,,,,,,,
,,,,,,,,,,,,001,2023-11-08_23h56.28.002,vowel_harmony,2023.2.3,Win32,143.9884809,120.6741,121.6737,,,,,,,,,,,,,,,,,,,,,,,,,,121.6737,122.5349,m,1,0.8555,,122.5349,122.5349,,0,11,11,98,1,99,paket,1532,69.608,1392,0.1522,5,notharmonic,1.55,word,m,,,,,,,
,,,,,,,,,,,,001,2023-11-08_23h56.28.002,vowel_harmony,2023.2.3,Win32,143.9884809,122.5351,123.5348,,,,,,,,,,,,,,,,,,,,,,,,,,123.5349,124.3543,m,1,0.8117,,124.3543,124.3544,,0,12,12,57,1,58,bölüm,1910,86.7828,1605,0.1755,5,harmonic,1.45,word,m,,,,,,,
,,,,,,,,,,,,001,2023-11-08_23h56.28.002,vowel_harmony,2023.2.3,Win32,143.9884809,124.3546,125.3543,,,,,,,,,,,,,,,,,,,,,,,,,,125.3543,126.3544,z,1,0.992,,126.3544,126.3545,,0,13,13,333,1,334,heyran,,,,,6,notharmonic,1.85,nw,z,,,,,,,
,,,,,,,,,,,,001,2023-11-08_23h56.28.002,vowel_harmony,2023.2.3,Win32,143.9884809,126.3546,127.3542,,,,,,,,,,,,,,,,,,,,,,,,,,127.3542,127.7849,m,1,0.4241,,127.785,127.785,,0,14,14,92,1,93,sahne,1380,62.7017,1238,0.1353,5,notharmonic,1.65,word,m,,,,,,,
,,,,,,,,,,,,001,2023-11-08_23h56.28.002,vowel_harmony,2023.2.3,Win32,143.9884809,127.7851,128.7848,,,,,,,,,,,,,,,,,,,,,,,,,,128.7849,129.514,m,1,0.7211,,129.514,129.5141,,0,15,15,71,1,72,örnek,3463,157.345,3266,0.357,5,harmonic,1.85,word,m,,,,,,,
,,,,,,,,,,,,001,2023-11-08_23h56.28.002,vowel_harmony,2023.2.3,Win32,143.9884809,129.5143,130.514,,,,,,,,,,,,,,,,,,,,,,,,,,130.514,131.1528,m,1,0.6321,,131.1528,131.1529,,0,16,16,58,1,59,ayak,2143,97.3694,1931,0.2111,4,harmonic,1,word,m,,,,,,,
,,,,,,,,,,,,001,2023-11-08_23h56.28.002,vowel_harmony,2023.2.3,Win32,143.9884809,131.1531,132.1528,,,,,,,,,,,,,,,,,,,,,,,,,,132.1528,132.7224,m,1,0.5618,,132.7224,132.7225,,0,17,17,23,1,24,kurum,986,44.7999,882,0.0964,5,harmonic,1.75,word,m,,,,,,,
,,,,,,,,,,,,001,2023-11-08_23h56.28.002,vowel_harmony,2023.2.3,Win32,143.9884809,132.7227,133.7222,,,,,,,,,,,,,,,,,,,,,,,,,,133.7222,134.257,m,1,0.5286,,134.2571,134.2571,,0,18,18,148,1,149,selam,1868,84.8745,1764,0.1928,5,notharmonic,1.35,word,m,,,,,,,
,,,,,,,,,,,,001,2023-11-08_23h56.28.002,vowel_harmony,2023.2.3,Win32,143.9884809,134.2572,135.2569,,,,,,,,,,,,,,,,,,,,,,,,,,135.2569,135.868,m,1,0.6028,,135.868,135.868,,0,19,19,19,1,20,ödül,1063,48.2985,926,0.1012,4,harmonic,1.7,word,m,,,,,,,
,,,,,,,,,,,,001,2023-11-08_23h56.28.002,vowel_harmony,2023.2.3,Win32,143.9884809,135.8682,136.868,,,,,,,,,,,,,,,,,,,,,,,,,,136.868,137.9861,z,1,1.1112,,137.9862,137.9862,,0,20,20,307,1,308,merbat,,,,,6,notharmonic,1.95,nw,z,,,,,,,
,,,,,,,,,,,,001,2023-11-08_23h56.28.002,vowel_harmony,2023.2.3,Win32,143.9884809,137.9866,138.9861,,,,,,,,,,,,,,,,,,,,,,,,,,138.9862,139.618,z,1,0.6256,,139.6181,139.6181,,0,21,21,202,1,203,güvin,,,,,5,harmonic,1.95,nw,z,,,,,,,
,,,,,,,,,,,,001,2023-11-08_23h56.28.002,vowel_harmony,2023.2.3,Win32,143.9884809,139.6182,140.618,,,,,,,,,,,,,,,,,,,,,,,,,,140.618,141.2013,z,1,0.5775,,141.2013,141.2014,,0,22,22,191,1,192,doab,,,,,4,harmonic,2,nw,z,,,,,,,
,,,,,,,,,,,,001,2023-11-08_23h56.28.002,vowel_harmony,2023.2.3,Win32,143.9884809,141.2016,142.2014,,,,,,,,,,,,,,,,,,,,,,,,,,142.2014,142.7429,m,1,0.5378,,142.743,142.743,,0,23,23,21,1,22,duygu,1877,85.2834,1760,0.1924,5,harmonic,1.8,word,m,,,,,,,
,,,,,,,,,,,,001,2023-11-08_23h56.28.002,vowel_harmony,2023.2.3,Win32,143.9884809,142.7432,143.743,,,,,,,,,,,,,,,,,,,,,,,,,,143.743,144.1665,m,1,0.4206,,144.1666,144.1666,,0,24,24,90,1,91,tarif,2834,128.7657,2611,0.2854,5,notharmonic,1.5,word,m,,,,,,,
,,,,,,,,,,,,001,2023-11-08_23h56.28.002,vowel_harmony,2023.2.3,Win32,143.9884809,144.1668,145.1665,,,,,,,,,,,,,,,,,,,,,,,,,,145.1665,146.0624,z,1,0.8936,,146.0625,146.0625,,0,25,25,256,1,257,yaruza,,,,,6,harmonic,1.9,nw,z,,,,,,,
,,,,,,,,,,,,001,2023-11-08_23h56.28.002,vowel_harmony,2023.2.3,Win32,143.9884809,146.0627,147.0623,,,,,,,,,,,,,,,,,,,,,,,,,,147.0624,147.7845,z,1,0.7175,,147.7846,147.7846,,0,26,26,269,1,270,vekü,,,,,4,harmonic,2,nw,z,,,,,,,
,,,,,,,,,,,,001,2023-11-08_23h56.28.002,vowel_harmony,2023.2.3,Win32,143.9884809,147.7848,148.7845,,,,,,,,,,,,,,,,,,,,,,,,,,148.7846,149.4026,z,1,0.6117,,149.4027,149.4027,,0,27,27,233,1,234,devpi,,,,,5,harmonic,1.8,nw,z,,,,,,,
,,,,,,,,,,,,001,2023-11-08_23h56.28.002,vowel_harmony,2023.2.3,Win32,143.9884809,149.4029,150.4025,,,,,,,,,,,,,,,,,,,,,,,,,,150.4025,150.8887,z,1,0.4817,,150.8887,150.8887,,0,28,28,214,1,215,vecü,,,,,4,harmonic,1.95,nw,z,,,,,,,
,,,,,,,,,,,,001,2023-11-08_23h56.28.002,vowel_harmony,2023.2.3,Win32,143.9884809,150.8889,151.8886,,,,,,,,,,,,,,,,,,,,,,,,,,151.8886,152.4512,m,1,0.5558,,152.4513,152.4513,,0,29,29,25,1,26,rapor,703,31.9415,617,0.0675,5,harmonic,1.8,word,m,,,,,,,
,,,,,,,,,,,,001,2023-11-08_23h56.28.002,vowel_harmony,2023.2.3,Win32,143.9884809,152.4515,153.4511,,,,,,,,,,,,,,,,,,,,,,,,,,153.4511,154.09,z,1,0.6337,,154.09,154.0901,,0,30,30,244,1,245,kaof,,,,,4,harmonic,1.9,nw,z,,,,,,,
,,,,,,,,,,,,001,2023-11-08_23h56.28.002,vowel_harmony,2023.2.3,Win32,143.9884809,154.0902,155.0899,,,,,,,,,,,,,,,,,,,,,,,,,,155.0899,155.6734,m,1,0.5791,,155.6735,155.6735,,0,31,31,72,1,73,çorba,1674,76.0599,1513,0.1654,5,harmonic,1.75,word,m,,,,,,,
,,,,,,,,,,,,001,2023-11-08_23h56.28.002,vowel_harmony,2023.2.3,Win32,143.9884809,155.6737,156.6733,,,,,,,,,,,,,,,,,,,,,,,,,,156.6733,157.5761,z,1,0.8999,,157.5761,157.5761,,0,32,32,187,1,188,remrin,,,,,6,harmonic,1.9,nw,z,,,,,,,
,,,,,,,,,,,,001,2023-11-08_23h56.28.002,vowel_harmony,2023.2.3,Win32,143.9884809,157.5763,158.576,,,,,,,,,,,,,,,,,,,,,,,,,,158.576,159.1872,z,1,0.6052,,159.1872,159.1872,,0,33,33,241,1,242,porlam,,,,,6,harmonic,2,nw,z,,,,,,,
,,,,,,,,,,,,001,2023-11-08_23h56.28.002,vowel_harmony,2023.2.3,Win32,143.9884809,159.1874,160.1872,,,,,,,,,,,,,,,,,,,,,,,,,,160.1872,160.7219,m,1,0.5303,,160.7219,160.7219,,0,34,34,99,1,100,ilave,3173,144.1685,2619,0.2863,5,notharmonic,1.85,word,m,,,,,,,
,,,,,,,,,,,,001,2023-11-08_23h56.28.002,vowel_harmony,2023.2.3,Win32,143.9884809,160.7221,161.7219,,,,,,,,,,,,,,,,,,,,,,,,,,161.7219,162.201,m,1,0.4757,,162.201,162.2011,,0,35,35,75,1,76,roman,1499,68.1086,1281,0.14,5,harmonic,1.6,word,m,,,,,,,
,,,,,,,,,,,,001,2023-11-08_23h56.28.002,vowel_harmony,2023.2.3,Win32,143.9884809,162.2013,163.2009,,,,,,,,,,,,,,,,,,,,,,,,,,163.201,163.819,z,1,0.6128,,163.819,163.8191,,0,36,36,354,1,355,taden,,,,,5,notharmonic,1.7,nw,z,,,,,,,
,,,,,,,,,,,,001,2023-11-08_23h56.28.002,vowel_harmony,2023.2.3,Win32,143.9884809,163.8192,164.8191,,,,,,,,,,,,,,,,,,,,,,,,,,164.8191,165.6594,z,1,0.8346,,165.6594,165.6594,,0,37,37,337,1,338,bakem,,,,,5,notharmonic,1.7,nw,z,,,,,,,
,,,,,,,,,,,,001,2023-11-08_23h56.28.002,vowel_harmony,2023.2.3,Win32,143.9884809,165.6596,166.6592,,,,,,,,,,,,,,,,,,,,,,,,,,166.6592,167.1801,m,1,0.5148,,167.1801,167.1801,,0,38,38,18,1,19,normal,4154,188.7413,3788,0.4141,6,harmonic,1.75,word,m,,,,,,,
,,,,,,,,,,,,001,2023-11-08_23h56.28.002,vowel_harmony,2023.2.3,Win32,143.9884809,167.1804,168.1801,,,,,,,,,,,,,,,,,,,,,,,,,,168.1801,168.8467,z,1,0.6587,,168.8467,168.8468,,0,39,39,190,1,191,reklen,,,,,6,harmonic,1.8,nw,z,,,,,,,
,,,,,,,,,,,,001,2023-11-08_23h56.28.002,vowel_harmony,2023.2.3,Win32,143.9884809,168.847,169.8467,,,,,,,,,,,,,,,,,,,,,,,,,,169.8467,170.3538,z,1,0.5036,,170.3538,170.3538,,0,40,40,221,1,222,yaypın,,,,,6,harmonic,1.75,nw,z,,,,,,,
,,,,,,,,,,,,001,2023-11-08_23h56.28.002,vowel_harmony,2023.2.3,Win32,143.9884809,170.354,171.3537,,,,,,,,,,,,,,,,,,,,,,,,,,171.3537,171.8745,m,1,0.5168,,171.8745,171.8746,,0,41,41,166,1,167,maden,402,18.2653,339,0.0371,5,notharmonic,1.45,word,m,,,,,,,
,,,,,,,,,,,,001,2023-11-08_23h56.28.002,vowel_harmony,2023.2.3,Win32,143.9884809,171.8747,172.8745,,,,,,,,,,,,,,,,,,,,,,,,,,172.8745,173.3397,m,1,0.4605,,173.3397,173.3399,,0,42,42,169,1,170,hikaye,1555,70.653,1405,0.1536,6,notharmonic,1.8,word,m,,,,,,,
,,,,,,,,,,,,001,2023-11-08_23h56.28.002,vowel_harmony,2023.2.3,Win32,143.9884809,173.34,174.3397,,,,,,,,,,,,,,,,,,,,,,,,,,174.3397,174.9023,z,1,0.5552,,174.9024,174.9024,,0,43,43,243,1,244,korguf,,,,,6,harmonic,2,nw,z,,,,,,,
,,,,,,,,,,,,001,2023-11-08_23h56.28.002,vowel_harmony,2023.2.3,Win32,143.9884809,174.9027,175.9023,,,,,,,,,,,,,,,,,,,,,,,,,,175.9023,176.437,z,1,0.5287,,176.437,176.4371,,0,44,44,254,1,255,millek,,,,,6,harmonic,1.8,nw,z,,,,,,,
,,,,,,,,,,,,001,2023-11-08_23h56.28.002,vowel_harmony,2023.2.3,Win32,143.9884809,176.4372,177.4369,,,,,,,,,,,,,,,,,,,,,,,,,,177.4369,178.1036,m,1,0.6591,,178.1036,178.1036,,0,45,45,89,1,90,etki,1234,56.0681,1169,0.1278,4,harmonic,1.4,word,m,,,,,,,
,,,,,,,,,,,,001,2023-11-08_23h56.28.002,vowel_harmony,2023.2.3,Win32,143.9884809,178.1038,179.1036,,,,,,,,,,,,,,,,,,,,,,,,,,179.1037,179.5966,m,1,0.4877,,179.5966,179.5966,,0,46,46,52,1,53,resim,2506,113.8627,2188,0.2392,5,harmonic,1.4,word,m,,,,,,,
,,,,,,,,,,,,001,2023-11-08_23h56.28.002,vowel_harmony,2023.2.3,Win32,143.9884809,179.5969,180.5966,,,,,,,,,,,,,,,,,,,,,,,,,,180.5967,181.1522,z,1,0.5475,,181.1522,181.1522,,0,47,47,287,1,288,haköm,,,,,5,notharmonic,1.9,nw,z,,,,,,,
,,,,,,,,,,,,001,2023-11-08_23h56.28.002,vowel_harmony,2023.2.3,Win32,143.9884809,181.1524,182.1521,,,,,,,,,,,,,,,,,,,,,,,,,,182.1521,182.6868,m,1,0.5277,,182.6869,182.6869,,0,48,48,69,1,70,forma,719,32.6685,597,0.0653,5,harmonic,1.8,word,m,,,,,,,
,,,,,,,,,,,,001,2023-11-08_23h56.28.002,vowel_harmony,2023.2.3,Win32,143.9884809,182.6871,183.6868,,,,,,,,,,,,,,,,,,,,,,,,,,183.6868,184.2354,m,1,0.545,,184.2355,184.2355,,0,49,49,1,1,2,erkek,6188,281.1582,5195,0.5679,5,harmonic,1.65,word,m,,,,,,,
,,,,,,,,,,,,001,2023-11-08_23h56.28.002,vowel_harmony,2023.2.3,Win32,143.9884809,184.2356,185.2355,,,,,,,,,,,,,,,,,,,,,,,,,,185.2355,185.6522,m,0,0.4123,,185.6522,185.6522,,0,50,50,320,1,321,finak,,,,,5,notharmonic,1.85,nw,z,,,,,,,
,,,,,,,,,,,,001,2023-11-08_23h56.28.002,vowel_harmony,2023.2.3,Win32,143.9884809,185.6524,186.652,,,,,,,,,,,,,,,,,,,,,,,,,,186.652,187.2771,m,1,0.6202,,187.2771,187.2772,,0,51,51,67,1,68,bayram,1948,88.5094,1648,0.1802,6,harmonic,1.85,word,m,,,,,,,
,,,,,,,,,,,,001,2023-11-08_23h56.28.002,vowel_harmony,2023.2.3,Win32,143.9884809,187.2774,188.277,,,,,,,,,,,,,,,,,,,,,,,,,,188.277,188.8881,z,1,0.6033,,188.8882,188.8882,,0,52,52,300,1,301,nilgi,,,,,5,notharmonic,1.85,nw,z,,,,,,,
,,,,,,,,,,,,001,2023-11-08_23h56.28.002,vowel_harmony,2023.2.3,Win32,143.9884809,188.8883,189.8881,,,,,,,,,,,,,,,,,,,,,,,,,,189.8881,191.4437,m,1,1.5527,,191.4437,191.4437,,0,53,53,172,1,173,milyar,1496,67.9723,1078,0.1178,6,notharmonic,1.85,word,m,,,,,,,
,,,,,,,,,,,,001,2023-11-08_23h56.28.002,vowel_harmony,2023.2.3,Win32,143.9884809,191.4438,192.4436,,,,,,,,,,,,,,,,,,,,,,,,,,192.4436,193.0062,m,1,0.557,,193.0062,193.0063,,0,54,54,20,1,21,nefes,2871,130.4469,2553,0.2791,5,harmonic,1.8,word,m,,,,,,,
,,,,,,,,,,,,001,2023-11-08_23h56.28.002,vowel_harmony,2023.2.3,Win32,143.9884809,193.0065,194.0061,,,,,,,,,,,,,,,,,,,,,,,,,,194.0061,194.7284,z,1,0.715,,194.7284,194.7284,,0,55,55,293,1,294,esnan,,,,,5,notharmonic,1.85,nw,z,,,,,,,
,,,,,,,,,,,,001,2023-11-08_23h56.28.002,vowel_harmony,2023.2.3,Win32,143.9884809,194.7286,195.7283,,,,,,,,,,,,,,,,,,,,,,,,,,195.7284,196.3261,z,1,0.5928,,196.3261,196.3262,,0,56,56,314,1,315,seral,,,,,5,notharmonic,1.7,nw,z,,,,,,,
,,,,,,,,,,,,001,2023-11-08_23h56.28.002,vowel_harmony,2023.2.3,Win32,143.9884809,196.3264,197.3255,,,,,,,,,,,,,,,,,,,,,,,,,,197.3255,198.006,m,1,0.676,,198.006,198.0061,,0,57,57,143,1,144,kitap,8359,379.7998,6786,0.7418,5,notharmonic,1.9,word,m,,,,,,,
,,,,,,,,,,,,001,2023-11-08_23h56.28.002,vowel_harmony,2023.2.3,Win32,143.9884809,198.0063,199.0061,,,,,,,,,,,,,,,,,,,,,,,,,,199.0062,199.7283,z,1,0.7151,,199.7284,199.7284,,0,58,58,351,1,352,seğlık,,,,,6,notharmonic,1.9,nw,z,,,,,,,
,,,,,,,,,,,,001,2023-11-08_23h56.28.002,vowel_harmony,2023.2.3,Win32,143.9884809,199.7286,200.7282,,,,,,,,,,,,,,,,,,,,,,,,,,200.7282,201.2144,m,1,0.4818,,201.2144,201.2145,,0,59,59,112,1,113,sezon,2315,105.1844,1917,0.2096,5,notharmonic,1.8,word,m,,,,,,,
,,,,,,,,,,,,001,2023-11-08_23h56.28.002,vowel_harmony,2023.2.3,Win32,143.9884809,201.2147,202.2144,,,,,,,,,,,,,,,,,,,,,,,,,,202.2144,202.77,m,1,0.5478,,202.77,202.77,,0,60,60,149,1,150,ceza,2611,118.6335,2169,0.2371,4,notharmonic,1.5,word,m,,,,,,,
,,,,,,,,,,,,001,2023-11-08_23h56.28.002,vowel_harmony,2023.2.3,Win32,143.9884809,202.7702,203.77,,,,,,,,,,,,,,,,,,,,,,,,,,203.77,204.4644,z,1,0.6881,,204.4644,204.4644,,0,61,61,206,1,207,bevek,,,,,5,harmonic,1.75,nw,z,,,,,,,
,,,,,,,,,,,,001,2023-11-08_23h56.28.002,vowel_harmony,2023.2.3,Win32,143.9884809,204.4646,205.4644,,,,,,,,,,,,,,,,,,,,,,,,,,205.4645,206.0755,z,1,0.6025,,206.0755,206.0755,,0,62,62,346,1,347,kidan,,,,,5,notharmonic,1.8,nw,z,,,,,,,
,,,,,,,,,,,,001,2023-11-08_23h56.28.002,vowel_harmony,2023.2.3,Win32,143.9884809,206.0756,207.0754,,,,,,,,,,,,,,,,,,,,,,,,,,207.0754,207.5686,m,1,0.487,,207.5686,207.5687,,0,63,63,108,1,109,tarih,2806,127.4935,2483,0.2714,5,notharmonic,1.55,word,m,,,,,,,
,,,,,,,,,,,,001,2023-11-08_23h56.28.002,vowel_harmony,2023.2.3,Win32,143.9884809,207.5688,208.5685,,,,,,,,,,,,,,,,,,,,,,,,,,208.5685,209.0546,m,1,0.4821,,209.0546,209.0546,,0,64,64,152,1,153,tedavi,1865,84.7382,1597,0.1746,6,notharmonic,1.8,word,m,,,,,,,
,,,,,,,,,,,,001,2023-11-08_23h56.28.002,vowel_harmony,2023.2.3,Win32,143.9884809,209.0548,210.0545,,,,,,,,,,,,,,,,,,,,,,,,,,210.0546,210.5616,z,1,0.5001,,210.5616,210.5616,,0,65,65,264,1,265,vepü,,,,,4,harmonic,2,nw,z,,,,,,,
,,,,,,,,,,,,001,2023-11-08_23h56.28.002,vowel_harmony,2023.2.3,Win32,143.9884809,210.5619,211.5615,,,,,,,,,,,,,,,,,,,,,,,,,,211.5615,212.1101,m,1,0.5455,,212.1101,212.1101,,0,66,66,168,1,169,kilo,3389,153.9827,2646,0.2893,4,notharmonic,1.65,word,m,,,,,,,
,,,,,,,,,,,,001,2023-11-08_23h56.28.002,vowel_harmony,2023.2.3,Win32,143.9884809,212.1103,213.1101,,,,,,,,,,,,,,,,,,,,,,,,,,213.1102,213.6101,m,1,0.4929,,213.6101,213.6101,,0,67,67,13,1,14,nokta,2085,94.7341,1939,0.212,5,harmonic,1.5,word,m,,,,,,,
,,,,,,,,,,,,001,2023-11-08_23h56.28.002,vowel_harmony,2023.2.3,Win32,143.9884809,213.6103,214.61,,,,,,,,,,,,,,,,,,,,,,,,,,214.61,215.0892,m,1,0.4735,,215.0892,215.0892,,0,68,68,55,1,56,akıl,2208,100.3228,2004,0.2191,4,harmonic,1,word,m,,,,,,,
,,,,,,,,,,,,001,2023-11-08_23h56.28.002,vowel_harmony,2023.2.3,Win32,143.9884809,215.0895,216.0892,,,,,,,,,,,,,,,,,,,,,,,,,,216.0892,216.6864,z,1,0.5943,,216.6864,216.6865,,0,69,69,223,1,224,kakon,,,,,5,harmonic,1.85,nw,z,,,,,,,
,,,,,,,,,,,,001,2023-11-08_23h56.28.002,vowel_harmony,2023.2.3,Win32,143.9884809,216.6866,217.6864,,,,,,,,,,,,,,,,,,,,,,,,,,217.6865,218.3114,m,1,0.6211,,218.3114,218.3114,,0,70,70,86,1,87,gerçek,8983,408.1519,8058,0.8809,6,harmonic,1.7,word,m,,,,,,,
,,,,,,,,,,,,001,2023-11-08_23h56.28.002,vowel_harmony,2023.2.3,Win32,143.9884809,218.3116,219.3114,,,,,,,,,,,,,,,,,,,,,,,,,,219.3114,219.7143,m,1,0.3964,,219.7143,219.7144,,0,71,71,176,1,177,harika,4682,212.7315,4422,0.4834,6,notharmonic,1.9,word,m,,,,,,,
,,,,,,,,,,,,001,2023-11-08_23h56.28.002,vowel_harmony,2023.2.3,Win32,143.9884809,219.7145,220.7142,,,,,,,,,,,,,,,,,,,,,,,,,,220.7142,221.6099,z,1,0.89,,221.61,221.61,,0,72,72,261,1,262,kardok,,,,,6,harmonic,1.95,nw,z,,,,,,,
,,,,,,,,,,,,001,2023-11-08_23h56.28.002,vowel_harmony,2023.2.3,Win32,143.9884809,221.6101,222.6099,,,,,,,,,,,,,,,,,,,,,,,,,,222.6099,223.4295,z,1,0.812,,223.4295,223.4295,,0,73,73,207,1,208,örtre,,,,,5,harmonic,1.85,nw,z,,,,,,,
,,,,,,,,,,,,001,2023-11-08_23h56.28.002,vowel_harmony,2023.2.3,Win32,143.9884809,223.4298,224.4294,,,,,,,,,,,,,,,,,,,,,,,,,,224.4294,225.0335,m,1,0.5989,,225.0335,225.0336,,0,74,74,45,1,46,bilgi,5981,271.7529,5353,0.5852,5,harmonic,1.5,word,m,,,,,,,
,,,,,,,,,,,,001,2023-11-08_23h56.28.002,vowel_harmony,2023.2.3,Win32,143.9884809,225.0338,226.0334,,,,,,,,,,,,,,,,,,,,,,,,,,226.0335,226.7627,z,1,0.723,,226.7627,226.7627,,0,75,75,353,1,354,ikno,,,,,4,notharmonic,1.95,nw,z,,,,,,,
,,,,,,,,,,,,001,2023-11-08_23h56.28.002,vowel_harmony,2023.2.3,Win32,143.9884809,226.7629,227.7626,,,,,,,,,,,,,,,,,,,,,,,,,,227.7626,228.3737,z,1,0.603,,228.3738,228.3738,,0,76,76,276,1,277,iptap,,,,,5,notharmonic,1.95,nw,z,,,,,,,
,,,,,,,,,,,,001,2023-11-08_23h56.28.002,vowel_harmony,2023.2.3,Win32,143.9884809,228.374,229.3739,,,,,,,,,,,,,,,,,,,,,,,,,,229.3739,229.9917,z,1,0.6149,,229.9918,229.9918,,0,77,77,286,1,287,cedan,,,,,5,notharmonic,1.8,nw,z,,,,,,,
,,,,,,,,,,,,001,2023-11-08_23h56.28.002,vowel_harmony,2023.2.3,Win32,143.9884809,229.992,230.9917,,,,,,,,,,,,,,,,,,,,,,,,,,230.9918,231.8181,m,1,0.8213,,231.8181,231.8181,,0,78,78,63,1,64,sultan,1756,79.7857,1368,0.1496,6,harmonic,1.55,word,m,,,,,,,
,,,,,,,,,,,,001,2023-11-08_23h56.28.002,vowel_harmony,2023.2.3,Win32,143.9884809,231.8184,232.8181,,,,,,,,,,,,,,,,,,,,,,,,,,232.8181,233.3598,z,1,0.5391,,233.3598,233.3599,,0,79,79,226,1,227,tefem,,,,,5,harmonic,1.75,nw,z,,,,,,,
,,,,,,,,,,,,001,2023-11-08_23h56.28.002,vowel_harmony,2023.2.3,Win32,143.9884809,233.3601,234.3598,,,,,,,,,,,,,,,,,,,,,,,,,,234.3598,234.9084,m,1,0.5412,,234.9084,234.9084,,0,80,80,42,1,43,ürün,2268,103.0489,1954,0.2136,4,harmonic,1.1,word,m,,,,,,,
,,,,,,,,,,,,001,2023-11-08_23h56.28.002,vowel_harmony,2023.2.3,Win32,143.9884809,234.9086,235.9084,,,,,,,,,,,,,,,,,,,,,,,,,,235.9084,236.4431,m,1,0.5292,,236.4431,236.4431,,0,81,81,125,1,126,ikna,1276,57.9764,1173,0.1282,4,notharmonic,1.85,word,m,,,,,,,
,,,,,,,,,,,,001,2023-11-08_23h56.28.002,vowel_harmony,2023.2.3,Win32,143.9884809,236.4434,237.4431,,,,,,,,,,,,,,,,,,,,,,,,,,237.4431,238.214,z,1,0.7632,,238.214,238.2141,,0,82,82,279,1,280,tadde,,,,,5,notharmonic,1.8,nw,z,,,,,,,
,,,,,,,,,,,,001,2023-11-08_23h56.28.002,vowel_harmony,2023.2.3,Win32,143.9884809,238.2142,239.2139,,,,,,,,,,,,,,,,,,,,,,,,,,239.2139,240.1862,m,1,0.968,,240.1862,240.1862,,0,83,83,82,1,83,aday,1028,46.7082,873,0.0954,4,harmonic,1.45,word,m,,,,,,,
,,,,,,,,,,,,001,2023-11-08_23h56.28.002,vowel_harmony,2023.2.3,Win32,143.9884809,240.1864,241.1861,,,,,,,,,,,,,,,,,,,,,,,,,,241.1861,241.693,m,1,0.5001,,241.693,241.6931,,0,84,84,178,1,179,dikkat,6230,283.0665,5888,0.6437,6,notharmonic,2.05,word,m,,,,,,,
,,,,,,,,,,,,001,2023-11-08_23h56.28.002,vowel_harmony,2023.2.3,Win32,143.9884809,241.6933,242.6931,,,,,,,,,,,,,,,,,,,,,,,,,,242.6931,243.318,z,1,0.6171,,243.318,243.3181,,0,85,85,281,1,282,afel,,,,,4,notharmonic,1.8,nw,z,,,,,,,
,,,,,,,,,,,,001,2023-11-08_23h56.28.002,vowel_harmony,2023.2.3,Win32,143.9884809,243.3183,244.318,,,,,,,,,,,,,,,,,,,,,,,,,,244.318,244.9221,z,1,0.6004,,244.9221,244.9221,,0,86,86,274,1,275,pisan,,,,,5,notharmonic,1.75,nw,z,,,,,,,
,,,,,,,,,,,,001,2023-11-08_23h56.28.002,vowel_harmony,2023.2.3,Win32,143.9884809,244.9224,245.9221,,,,,,,,,,,,,,,,,,,,,,,,,,245.9221,246.5471,z,1,0.6207,,246.5471,246.5472,,0,87,87,341,1,342,işgan,,,,,5,notharmonic,1.95,nw,z,,,,,,,
,,,,,,,,,,,,001,2023-11-08_23h56.28.002,vowel_harmony,2023.2.3,Win32,143.9884809,246.5474,247.5471,,,,,,,,,,,,,,,,,,,,,,,,,,247.5471,248.1582,m,1,0.6038,,248.1582,248.1582,,0,88,88,145,1,146,iddia,2430,110.4096,2295,0.2509,5,notharmonic,1.85,word,m,,,,,,,
,,,,,,,,,,,,001,2023-11-08_23h56.28.002,vowel_harmony,2023.2.3,Win32,143.9884809,248.1585,249.1582,,,,,,,,,,,,,,,,,,,,,,,,,,249.1582,250.1512,z,1,0.9849,,250.1513,250.1513,,0,89,89,195,1,196,netüm,,,,,5,harmonic,1.95,nw,z,,,,,,,
,,,,,,,,,,,,001,2023-11-08_23h56.28.002,vowel_harmony,2023.2.3,Win32,143.9884809,250.1514,251.1512,,,,,,,,,,,,,,,,,,,,,,,,,,251.1512,252.1582,m,1,1.0001,,252.1582,252.1582,,0,90,90,135,1,136,hafif,3355,152.4379,3101,0.339,5,notharmonic,1.75,word,m,,,,,,,
,,,,,,,,,,,,001,2023-11-08_23h56.28.002,vowel_harmony,2023.2.3,Win32,143.9884809,252.1584,253.1581,,,,,,,,,,,,,,,,,,,,,,,,,,253.1581,253.7137,z,1,0.5531,,253.7138,253.7138,,0,91,91,237,1,238,taşal,,,,,5,harmonic,1.8,nw,z,,,,,,,
,,,,,,,,,,,,001,2023-11-08_23h56.28.002,vowel_harmony,2023.2.3,Win32,143.9884809,253.714,254.7136,,,,,,,,,,,,,,,,,,,,,,,,,,254.7136,255.1859,m,1,0.4696,,255.186,255.186,,0,92,92,14,1,15,yaşam,4348,197.5559,3918,0.4283,5,harmonic,1.4,word,m,,,,,,,
,,,,,,,,,,,,001,2023-11-08_23h56.28.002,vowel_harmony,2023.2.3,Win32,143.9884809,255.1862,256.1859,,,,,,,,,,,,,,,,,,,,,,,,,,256.1859,256.8525,z,1,0.6618,,256.8525,256.8525,,0,93,93,342,1,343,kulön,,,,,5,notharmonic,1.9,nw,z,,,,,,,
,,,,,,,,,,,,001,2023-11-08_23h56.28.002,vowel_harmony,2023.2.3,Win32,143.9884809,256.8528,257.8525,,,,,,,,,,,,,,,,,,,,,,,,,,257.8525,258.7414,z,1,0.8834,,258.7414,258.7414,,0,94,94,199,1,200,movu,,,,,4,harmonic,1.9,nw,z,,,,,,,
,,,,,,,,,,,,001,2023-11-08_23h56.28.002,vowel_harmony,2023.2.3,Win32,143.9884809,258.7416,259.7415,,,,,,,,,,,,,,,,,,,,,,,,,,259.7415,260.6441,z,1,0.8986,,260.6442,260.6442,,0,95,95,229,1,230,tonam,,,,,5,harmonic,1.8,nw,z,,,,,,,
,,,,,,,,,,,,001,2023-11-08_23h56.28.002,vowel_harmony,2023.2.3,Win32,143.9884809,260.6444,261.6441,,,,,,,,,,,,,,,,,,,,,,,,,,261.6441,262.1788,m,1,0.5318,,262.1789,262.1789,,0,96,96,77,1,78,ufak,3252,147.758,2980,0.3258,4,harmonic,1.5,word,m,,,,,,,
,,,,,,,,,,,,001,2023-11-08_23h56.28.002,vowel_harmony,2023.2.3,Win32,143.9884809,262.1791,263.1788,,,,,,,,,,,,,,,,,,,,,,,,,,263.1789,263.7137,m,1,0.5267,,263.7137,263.7137,,0,97,97,174,1,175,bugün,13879,630.6067,12842,1.4039,5,notharmonic,1.85,word,m,,,,,,,
,,,,,,,,,,,,001,2023-11-08_23h56.28.002,vowel_harmony,2023.2.3,Win32,143.9884809,263.714,264.7136,,,,,,,,,,,,,,,,,,,,,,,,,,264.7136,265.5122,m,1,0.7912,,265.5122,265.5123,,0,98,98,15,1,16,hayat,7922,359.9443,7314,0.7996,5,harmonic,1.9,word,m,,,,,,,
,,,,,,,,,,,,001,2023-11-08_23h56.28.002,vowel_harmony,2023.2.3,Win32,143.9884809,265.5125,266.5121,,,,,,,,,,,,,,,,,,,,,,,,,,266.5121,267.0608,m,1,0.5447,,267.0608,267.0608,,0,99,99,119,1,120,kulüp,649,29.488,467,0.0511,5,notharmonic,1.4,word,m,,,,,,,
,,,,,,,,,,,,001,2023-11-08_23h56.28.002,vowel_harmony,2023.2.3,Win32,143.9884809,267.061,268.0607,,,,,,,,,,,,,,,,,,,,,,,,,,268.0607,268.7135,m,1,0.6446,,268.7135,268.7136,,0,100,100,30,1,31,çevre,1662,75.5147,1409,0.154,5,harmonic,1.55,word,m,,,,,,,
,,,,,,,,,,,,001,2023-11-08_23h56.28.002,vowel_harmony,2023.2.3,Win32,143.9884809,268.7137,269.7135,,,,,,,,,,,,,,,,,,,,,,,,,,269.7135,270.3107,z,1,0.5915,,270.3108,270.3108,,0,101,101,289,1,290,karmen,,,,,6,notharmonic,1.75,nw,z,,,,,,,
,,,,,,,,,,,,001,2023-11-08_23h56.28.002,vowel_harmony,2023.2.3,Win32,143.9884809,270.311,271.3106,,,,,,,,,,,,,,,,,,,,,,,,,,271.3106,271.7898,m,1,0.4749,,271.7898,271.7899,,0,102,102,94,1,95,final,876,39.802,778,0.0851,5,notharmonic,1,word,m,,,,,,,
,,,,,,,,,,,,001,2023-11-08_23h56.28.002,vowel_harmony,2023.2.3,Win32,143.9884809,271.7901,272.7899,,,,,,,,,,,,,,,,,,,,,,,,,,272.7899,273.5606,z,1,0.7635,,273.5606,273.5607,,0,103,103,284,1,285,deval,,,,,5,notharmonic,1.75,nw,z,,,,,,,
,,,,,,,,,,,,001,2023-11-08_23h56.28.002,vowel_harmony,2023.2.3,Win32,143.9884809,273.5609,274.5606,,,,,,,,,,,,,,,,,,,,,,,,,,274.5606,275.1023,m,1,0.537,,275.1023,275.1024,,0,104,104,80,1,81,merkez,1445,65.6551,1255,0.1372,6,harmonic,1.8,word,m,,,,,,,
,,,,,,,,,,,,001,2023-11-08_23h56.28.002,vowel_harmony,2023.2.3,Win32,143.9884809,275.1025,276.1023,,,,,,,,,,,,,,,,,,,,,,,,,,276.1023,276.7064,z,1,0.5961,,276.7064,276.7064,,0,105,105,273,1,274,nimal,,,,,5,notharmonic,1.9,nw,z,,,,,,,
,,,,,,,,,,,,001,2023-11-08_23h56.28.002,vowel_harmony,2023.2.3,Win32,143.9884809,276.7066,277.7064,,,,,,,,,,,,,,,,,,,,,,,,,,277.7064,278.2342,m,1,0.52,,278.2342,278.2343,,0,106,106,87,1,88,mümkün,6604,300.0596,6264,0.6848,6,harmonic,1.9,word,m,,,,,,,
,,,,,,,,,,,,001,2023-11-08_23h56.28.002,vowel_harmony,2023.2.3,Win32,143.9884809,278.2345,279.2342,,,,,,,,,,,,,,,,,,,,,,,,,,279.2342,279.7828,z,1,0.5438,,279.7828,279.7829,,0,107,107,272,1,273,daken,,,,,5,notharmonic,1.8,nw,z,,,,,,,
,,,,,,,,,,,,001,2023-11-08_23h56.28.002,vowel_harmony,2023.2.3,Win32,143.9884809,279.783,280.7828,,,,,,,,,,,,,,,,,,,,,,,,,,280.7828,281.2828,m,1,0.4919,,281.2828,281.2828,,0,108,108,105,1,106,sahip,10887,494.6621,9847,1.0765,5,notharmonic,1.25,word,m,,,,,,,
,,,,,,,,,,,,001,2023-11-08_23h56.28.002,vowel_harmony,2023.2.3,Win32,143.9884809,281.283,282.2828,,,,,,,,,,,,,,,,,,,,,,,,,,282.2828,282.8731,z,1,0.5839,,282.8731,282.8731,,0,109,109,334,1,335,işgan,,,,,5,notharmonic,1.95,nw,z,,,,,,,
,,,,,,,,,,,,001,2023-11-08_23h56.28.002,vowel_harmony,2023.2.3,Win32,143.9884809,282.8734,283.8729,,,,,,,,,,,,,,,,,,,,,,,,,,283.873,284.4703,m,1,0.5938,,284.4703,284.4703,,0,110,110,37,1,38,hayvan,2363,107.3653,1894,0.2071,6,harmonic,1.5,word,m,,,,,,,
,,,,,,,,,,,,001,2023-11-08_23h56.28.002,vowel_harmony,2023.2.3,Win32,143.9884809,284.4706,285.4702,,,,,,,,,,,,,,,,,,,,,,,,,,285.4702,286.2272,m,1,0.7493,,286.2272,286.2272,,0,111,111,132,1,133,modern,2326,105.6842,2031,0.222,6,notharmonic,1.85,word,m,,,,,,,
,,,,,,,,,,,,001,2023-11-08_23h56.28.002,vowel_harmony,2023.2.3,Win32,143.9884809,286.2273,287.2271,,,,,,,,,,,,,,,,,,,,,,,,,,287.2271,287.9076,m,1,0.6729,,287.9077,287.9078,,0,112,112,175,1,176,aile,3655,166.0687,3126,0.3417,4,notharmonic,1,word,m,,,,,,,
,,,,,,,,,,,,001,2023-11-08_23h56.28.002,vowel_harmony,2023.2.3,Win32,143.9884809,287.9079,288.9076,,,,,,,,,,,,,,,,,,,,,,,,,,288.9076,289.5605,m,1,0.6506,,289.5606,289.5606,,0,113,113,146,1,147,mavi,2206,100.2319,1934,0.2114,4,notharmonic,1.45,word,m,,,,,,,
,,,,,,,,,,,,001,2023-11-08_23h56.28.002,vowel_harmony,2023.2.3,Win32,143.9884809,289.5607,290.5604,,,,,,,,,,,,,,,,,,,,,,,,,,290.5604,291.1438,m,1,0.5792,,291.1438,291.1439,,0,114,114,61,1,62,yıldız,1775,80.649,1532,0.1675,6,harmonic,1.6,word,m,,,,,,,
,,,,,,,,,,,,001,2023-11-08_23h56.28.002,vowel_harmony,2023.2.3,Win32,143.9884809,291.144,292.1438,,,,,,,,,,,,,,,,,,,,,,,,,,292.1438,293.7617,z,1,1.612,,293.7617,293.7618,,0,115,115,205,1,206,kahay,,,,,5,harmonic,1.9,nw,z,,,,,,,
,,,,,,,,,,,,001,2023-11-08_23h56.28.002,vowel_harmony,2023.2.3,Win32,143.9884809,293.7671,294.7687,,,,,,,,,,,,,,,,,,,,,,,,,,294.7688,295.8034,m,1,1.027,,295.8034,295.8034,,0,116,116,40,1,41,tepki,1695,77.0141,1578,0.1725,5,harmonic,1.55,word,m,,,,,,,
,,,,,,,,,,,,001,2023-11-08_23h56.28.002,vowel_harmony,2023.2.3,Win32,143.9884809,295.8036,296.8034,,,,,,,,,,,,,,,,,,,,,,,,,,296.8034,297.4076,z,1,0.6005,,297.4076,297.4076,,0,117,117,220,1,221,denbi,,,,,5,harmonic,1.75,nw,z,,,,,,,
,,,,,,,,,,,,001,2023-11-08_23h56.28.002,vowel_harmony,2023.2.3,Win32,143.9884809,297.4078,298.4075,,,,,,,,,,,,,,,,,,,,,,,,,,298.4075,298.977,z,1,0.5648,,298.977,298.977,,0,118,118,309,1,310,yorgen,,,,,6,notharmonic,1.9,nw,z,,,,,,,
,,,,,,,,,,,,001,2023-11-08_23h56.28.002,vowel_harmony,2023.2.3,Win32,143.9884809,298.9772,299.9769,,,,,,,,,,,,,,,,,,,,,,,,,,299.977,300.4771,m,1,0.4922,,300.4771,300.4771,,0,119,119,159,1,160,vakit,3476,157.9357,3298,0.3605,5,notharmonic,1.65,word,m,,,,,,,
,,,,,,,,,,,,001,2023-11-08_23h56.28.002,vowel_harmony,2023.2.3,Win32,143.9884809,300.4773,301.4769,,,,,,,,,,,,,,,,,,,,,,,,,,301.477,302.0881,z,1,0.6076,,302.0881,308.2616,space,0,120,120,344,1,345,barika,,,,,6,notharmonic,1.75,nw,z,6.1656,,,,,,
,,,,,,,,,,,,001,2023-11-08_23h56.28.002,vowel_harmony,2023.2.3,Win32,143.9884809,308.2671,309.2685,,,,,,,,,,,,,,,,,,,,,,,,,,309.2685,310.0671,z,1,0.793,,310.0671,310.0671,,0,121,121,326,1,327,ailo,,,,,4,notharmonic,1.75,nw,z,,,,,,,
,,,,,,,,,,,,001,2023-11-08_23h56.28.002,vowel_harmony,2023.2.3,Win32,143.9884809,310.0674,311.0671,,,,,,,,,,,,,,,,,,,,,,,,,,311.0672,311.6921,z,1,0.6185,,311.6921,311.6921,,0,122,122,186,1,187,habık,,,,,5,harmonic,1.9,nw,z,,,,,,,
,,,,,,,,,,,,001,2023-11-08_23h56.28.002,vowel_harmony,2023.2.3,Win32,143.9884809,311.6924,312.6921,,,,,,,,,,,,,,,,,,,,,,,,,,312.6921,313.1712,z,1,0.4735,,313.1713,313.1713,,0,123,123,331,1,332,ehun,,,,,4,notharmonic,1.95,nw,z,,,,,,,
,,,,,,,,,,,,001,2023-11-08_23h56.28.002,vowel_harmony,2023.2.3,Win32,143.9884809,313.1715,314.1712,,,,,,,,,,,,,,,,,,,,,,,,,,314.1712,314.7964,m,1,0.6187,,314.7964,314.7964,,0,124,124,118,1,119,meşhur,1092,49.6161,1057,0.1156,6,notharmonic,1.9,word,m,,,,,,,
,,,,,,,,,,,,001,2023-11-08_23h56.28.002,vowel_harmony,2023.2.3,Win32,143.9884809,314.7968,315.7963,,,,,,,,,,,,,,,,,,,,,,,,,,315.7963,316.5531,m,1,0.7536,,316.5531,316.5532,,0,125,125,167,1,168,adalet,1611,73.1975,1388,0.1517,6,notharmonic,1.65,word,m,,,,,,,
,,,,,,,,,,,,001,2023-11-08_23h56.28.002,vowel_harmony,2023.2.3,Win32,143.9884809,316.5533,317.5531,,,,,,,,,,,,,,,,,,,,,,,,,,317.5531,318.6364,z,1,1.0772,,318.6365,318.6365,,0,126,126,313,1,314,ikas,,,,,4,notharmonic,1.85,nw,z,,,,,,,
,,,,,,,,,,,,001,2023-11-08_23h56.28.002,vowel_harmony,2023.2.3,Win32,143.9884809,318.6367,319.6364,,,,,,,,,,,,,,,,,,,,,,,,,,319.6364,320.2129,z,1,0.5702,,320.2129,320.2129,,0,127,127,245,1,246,bıyan,,,,,5,harmonic,1.7,nw,z,,,,,,,
,,,,,,,,,,,,001,2023-11-08_23h56.28.002,vowel_harmony,2023.2.3,Win32,143.9884809,320.213,321.2129,,,,,,,,,,,,,,,,,,,,,,,,,,321.2129,321.8378,z,1,0.6178,,321.8378,321.8379,,0,128,128,345,1,346,bardeş,,,,,6,notharmonic,1.95,nw,z,,,,,,,
,,,,,,,,,,,,001,2023-11-08_23h56.28.002,vowel_harmony,2023.2.3,Win32,143.9884809,321.838,322.8378,,,,,,,,,,,,,,,,,,,,,,,,,,322.8378,323.4142,z,1,0.569,,323.4142,323.4142,,0,129,129,343,1,344,tarne,,,,,5,notharmonic,1.85,nw,z,,,,,,,
,,,,,,,,,,,,001,2023-11-08_23h56.28.002,vowel_harmony,2023.2.3,Win32,143.9884809,323.4144,324.4141,,,,,,,,,,,,,,,,,,,,,,,,,,324.4141,324.942,m,1,0.5209,,324.942,324.942,,0,130,130,43,1,44,geniş,3380,153.5738,3185,0.3482,5,harmonic,1.35,word,m,,,,,,,
,,,,,,,,,,,,001,2023-11-08_23h56.28.002,vowel_harmony,2023.2.3,Win32,143.9884809,324.9422,325.9419,,,,,,,,,,,,,,,,,,,,,,,,,,325.9419,326.56,z,1,0.6104,,326.56,326.5601,,0,131,131,208,1,209,yayram,,,,,6,harmonic,1.85,nw,z,,,,,,,
,,,,,,,,,,,,001,2023-11-08_23h56.28.002,vowel_harmony,2023.2.3,Win32,143.9884809,326.5602,327.5599,,,,,,,,,,,,,,,,,,,,,,,,,,327.56,328.1225,m,1,0.5592,,328.1225,328.1225,,0,132,132,53,1,54,gelir,7578,344.3143,7014,0.7668,5,harmonic,1.4,word,m,,,,,,,
,,,,,,,,,,,,001,2023-11-08_23h56.28.002,vowel_harmony,2023.2.3,Win32,143.9884809,328.1227,329.1225,,,,,,,,,,,,,,,,,,,,,,,,,,329.1225,329.6363,m,1,0.5088,,329.6364,329.6364,,0,133,133,91,1,92,ifade,6177,280.6584,5726,0.626,5,notharmonic,1.7,word,m,,,,,,,
,,,,,,,,,,,,001,2023-11-08_23h56.28.002,vowel_harmony,2023.2.3,Win32,143.9884809,329.6366,330.6363,,,,,,,,,,,,,,,,,,,,,,,,,,330.6364,331.7126,z,1,1.0681,,331.7127,331.7127,,0,134,134,188,1,189,tonık,,,,,5,harmonic,1.85,nw,z,,,,,,,
,,,,,,,,,,,,001,2023-11-08_23h56.28.002,vowel_harmony,2023.2.3,Win32,143.9884809,331.7129,332.7128,,,,,,,,,,,,,,,,,,,,,,,,,,332.7128,333.2613,m,1,0.5419,,333.2613,333.2614,,0,135,135,70,1,71,yarın,3440,156.3,3222,0.3522,5,harmonic,1.85,word,m,,,,,,,
,,,,,,,,,,,,001,2023-11-08_23h56.28.002,vowel_harmony,2023.2.3,Win32,143.9884809,333.2615,334.2613,,,,,,,,,,,,,,,,,,,,,,,,,,334.2613,334.9349,m,1,0.6668,,334.9349,334.935,,0,136,136,10,1,11,bardak,1728,78.5135,1569,0.1715,6,harmonic,1.6,word,m,,,,,,,
,,,,,,,,,,,,001,2023-11-08_23h56.28.002,vowel_harmony,2023.2.3,Win32,143.9884809,334.9352,335.9348,,,,,,,,,,,,,,,,,,,,,,,,,,335.9349,336.5946,z,1,0.6574,,336.5947,336.5948,,0,137,137,356,1,357,mergun,,,,,6,notharmonic,1.95,nw,z,,,,,,,
,,,,,,,,,,,,001,2023-11-08_23h56.28.002,vowel_harmony,2023.2.3,Win32,143.9884809,336.5949,337.5945,,,,,,,,,,,,,,,,,,,,,,,,,,337.5945,338.0877,m,1,0.4859,,338.0877,338.0877,,0,138,138,62,1,63,cümle,1911,86.8283,1765,0.193,5,harmonic,1.85,word,m,,,,,,,
,,,,,,,,,,,,001,2023-11-08_23h56.28.002,vowel_harmony,2023.2.3,Win32,143.9884809,338.0879,339.0875,,,,,,,,,,,,,,,,,,,,,,,,,,339.0876,339.8722,z,1,0.7771,,339.8722,339.8723,,0,139,139,357,1,358,işarek,,,,,6,notharmonic,1.95,nw,z,,,,,,,
,,,,,,,,,,,,001,2023-11-08_23h56.28.002,vowel_harmony,2023.2.3,Win32,143.9884809,339.8724,340.8722,,,,,,,,,,,,,,,,,,,,,,,,,,340.8722,341.5042,z,1,0.6245,,341.5042,341.5043,,0,140,140,250,1,251,kakuk,,,,,5,harmonic,1.9,nw,z,,,,,,,
,,,,,,,,,,,,001,2023-11-08_23h56.28.002,vowel_harmony,2023.2.3,Win32,143.9884809,341.5045,342.5042,,,,,,,,,,,,,,,,,,,,,,,,,,342.5042,343.3862,z,1,0.8737,,343.3862,343.3862,,0,141,141,329,1,330,taif,,,,,4,notharmonic,1.8,nw,z,,,,,,,
,,,,,,,,,,,,001,2023-11-08_23h56.28.002,vowel_harmony,2023.2.3,Win32,143.9884809,343.3864,344.3861,,,,,,,,,,,,,,,,,,,,,,,,,,344.3861,344.9555,m,1,0.567,,344.9556,344.9557,,0,142,142,138,1,139,kardeş,1270,57.7038,1174,0.1283,6,notharmonic,1.9,word,m,,,,,,,
,,,,,,,,,,,,001,2023-11-08_23h56.28.002,vowel_harmony,2023.2.3,Win32,143.9884809,344.9558,345.9555,,,,,,,,,,,,,,,,,,,,,,,,,,345.9555,346.4141,z,1,0.4535,,346.4141,346.4142,,0,143,143,260,1,261,yarlam,,,,,6,harmonic,1.75,nw,z,,,,,,,
,,,,,,,,,,,,001,2023-11-08_23h56.28.002,vowel_harmony,2023.2.3,Win32,143.9884809,346.4144,347.4138,,,,,,,,,,,,,,,,,,,,,,,,,,347.4139,347.9624,z,1,0.5406,,347.9625,347.9625,,0,144,144,328,1,329,kirul,,,,,5,notharmonic,1.95,nw,z,,,,,,,
,,,,,,,,,,,,001,2023-11-08_23h56.28.002,vowel_harmony,2023.2.3,Win32,143.9884809,347.9626,348.9624,,,,,,,,,,,,,,,,,,,,,,,,,,348.9624,349.4763,m,1,0.5112,,349.4764,349.4764,,0,145,145,36,1,37,meslek,1082,49.1618,976,0.1067,6,harmonic,1.9,word,m,,,,,,,
,,,,,,,,,,,,001,2023-11-08_23h56.28.002,vowel_harmony,2023.2.3,Win32,143.9884809,349.4766,350.4764,,,,,,,,,,,,,,,,,,,,,,,,,,350.4764,351.0179,m,1,0.5342,,351.0179,351.018,,0,146,146,156,1,157,medya,1784,81.0579,1495,0.1634,5,notharmonic,1.35,word,m,,,,,,,
,,,,,,,,,,,,001,2023-11-08_23h56.28.002,vowel_harmony,2023.2.3,Win32,143.9884809,351.0182,352.018,,,,,,,,,,,,,,,,,,,,,,,,,,352.018,352.5596,z,1,0.536,,352.5596,352.5597,,0,147,147,255,1,256,yokın,,,,,5,harmonic,1.85,nw,z,,,,,,,
,,,,,,,,,,,,001,2023-11-08_23h56.28.002,vowel_harmony,2023.2.3,Win32,143.9884809,352.5599,353.5595,,,,,,,,,,,,,,,,,,,,,,,,,,353.5596,354.0874,z,1,0.5226,,354.0874,354.0874,,0,148,148,321,1,322,makih,,,,,5,notharmonic,1.8,nw,z,,,,,,,
,,,,,,,,,,,,001,2023-11-08_23h56.28.002,vowel_harmony,2023.2.3,Win32,143.9884809,354.0876,355.0873,,,,,,,,,,,,,,,,,,,,,,,,,,355.0873,355.6013,m,1,0.5068,,355.6013,355.6013,,0,149,149,127,1,128,şahane,1153,52.3877,1108,0.1211,6,notharmonic,1.8,word,m,,,,,,,
,,,,,,,,,,,,001,2023-11-08_23h56.28.002,vowel_harmony,2023.2.3,Win32,143.9884809,355.6014,356.6012,,,,,,,,,,,,,,,,,,,,,,,,,,356.6012,357.1289,m,1,0.5212,,357.1289,357.129,,0,150,150,164,1,165,sinema,1575,71.5618,1304,0.1426,6,notharmonic,1.8,word,m,,,,,,,
,,,,,,,,,,,,001,2023-11-08_23h56.28.002,vowel_harmony,2023.2.3,Win32,143.9884809,357.1291,358.129,,,,,,,,,,,,,,,,,,,,,,,,,,358.129,358.6012,m,1,0.4657,,358.6012,358.6013,,0,151,151,161,1,162,komik,1617,73.4701,1506,0.1646,5,notharmonic,1.75,word,m,,,,,,,
,,,,,,,,,,,,001,2023-11-08_23h56.28.002,vowel_harmony,2023.2.3,Win32,143.9884809,358.6015,359.6011,,,,,,,,,,,,,,,,,,,,,,,,,,359.6011,360.0874,z,1,0.4814,,360.0875,360.0875,,0,152,152,270,1,271,miyaj,,,,,5,notharmonic,1.9,nw,z,,,,,,,
,,,,,,,,,,,,001,2023-11-08_23h56.28.002,vowel_harmony,2023.2.3,Win32,143.9884809,360.0876,361.0873,,,,,,,,,,,,,,,,,,,,,,,,,,361.0873,361.5594,m,1,0.4677,,361.5595,361.5595,,0,153,153,60,1,61,doğu,2105,95.6429,1823,0.1993,4,harmonic,1.05,word,m,,,,,,,
,,,,,,,,,,,,001,2023-11-08_23h56.28.002,vowel_harmony,2023.2.3,Win32,143.9884809,361.5597,362.5595,,,,,,,,,,,,,,,,,,,,,,,,,,362.5596,363.3511,m,1,0.7875,,363.3511,363.3511,,0,154,154,153,1,154,inşaat,432,19.6284,376,0.0411,6,notharmonic,1.6,word,m,,,,,,,
,,,,,,,,,,,,001,2023-11-08_23h56.28.002,vowel_harmony,2023.2.3,Win32,143.9884809,363.3514,364.3511,,,,,,,,,,,,,,,,,,,,,,,,,,364.3511,364.7747,m,1,0.4204,,364.7747,364.7748,,0,155,155,56,1,57,sağlam,1818,82.6027,1720,0.188,6,harmonic,1.6,word,m,,,,,,,
,,,,,,,,,,,,001,2023-11-08_23h56.28.002,vowel_harmony,2023.2.3,Win32,143.9884809,364.775,365.7747,,,,,,,,,,,,,,,,,,,,,,,,,,365.7747,366.247,m,1,0.4686,,366.247,366.247,,0,156,156,7,1,8,hizmet,3023,137.3531,2689,0.294,6,harmonic,1.75,word,m,,,,,,,
,,,,,,,,,,,,001,2023-11-08_23h56.28.002,vowel_harmony,2023.2.3,Win32,143.9884809,366.2471,367.2469,,,,,,,,,,,,,,,,,,,,,,,,,,367.247,367.7955,z,1,0.541,,367.7956,367.7956,,0,157,157,322,1,323,normin,,,,,6,notharmonic,1.95,nw,z,,,,,,,
,,,,,,,,,,,,001,2023-11-08_23h56.28.002,vowel_harmony,2023.2.3,Win32,143.9884809,367.7958,368.7955,,,,,,,,,,,,,,,,,,,,,,,,,,368.7955,369.5038,z,1,0.7044,,369.5038,369.5039,,0,158,158,180,1,181,ayaro,,,,,5,harmonic,1.8,nw,z,,,,,,,
,,,,,,,,,,,,001,2023-11-08_23h56.28.002,vowel_harmony,2023.2.3,Win32,143.9884809,369.5041,370.5038,,,,,,,,,,,,,,,,,,,,,,,,,,370.5038,371.0038,z,1,0.4924,,371.0038,371.0038,,0,159,159,210,1,211,şevci,,,,,5,harmonic,1.75,nw,z,,,,,,,
,,,,,,,,,,,,001,2023-11-08_23h56.28.002,vowel_harmony,2023.2.3,Win32,143.9884809,371.004,372.0037,,,,,,,,,,,,,,,,,,,,,,,,,,372.0038,372.4969,m,1,0.4884,,372.4969,372.497,,0,160,160,107,1,108,merak,5806,263.8016,5524,0.6039,5,notharmonic,1.65,word,m,,,,,,,
,,,,,,,,,,,,001,2023-11-08_23h56.28.002,vowel_harmony,2023.2.3,Win32,143.9884809,372.4972,373.4968,,,,,,,,,,,,,,,,,,,,,,,,,,373.4968,374.1913,z,1,0.6916,,374.1913,374.1914,,0,161,161,294,1,295,mesap,,,,,5,notharmonic,1.8,nw,z,,,,,,,
,,,,,,,,,,,,001,2023-11-08_23h56.28.002,vowel_harmony,2023.2.3,Win32,143.9884809,374.1916,375.1913,,,,,,,,,,,,,,,,,,,,,,,,,,375.1913,375.6288,m,1,0.4295,,375.6288,375.6288,,0,162,162,83,1,84,küçük,14048,638.2854,12467,1.3629,5,harmonic,1.75,word,m,,,,,,,
,,,,,,,,,,,,001,2023-11-08_23h56.28.002,vowel_harmony,2023.2.3,Win32,143.9884809,375.629,376.6287,,,,,,,,,,,,,,,,,,,,,,,,,,376.6287,377.1496,z,1,0.5129,,377.1496,377.1496,,0,163,163,251,1,252,oştay,,,,,5,harmonic,1.95,nw,z,,,,,,,
,,,,,,,,,,,,001,2023-11-08_23h56.28.002,vowel_harmony,2023.2.3,Win32,143.9884809,377.1498,378.1495,,,,,,,,,,,,,,,,,,,,,,,,,,378.1495,378.712,z,1,0.5594,,378.712,378.7121,,0,164,164,332,1,333,tahane,,,,,6,notharmonic,1.85,nw,z,,,,,,,
,,,,,,,,,,,,001,2023-11-08_23h56.28.002,vowel_harmony,2023.2.3,Win32,143.9884809,378.7123,379.712,,,,,,,,,,,,,,,,,,,,,,,,,,379.712,380.3301,m,1,0.613,,380.3302,380.3302,,0,165,165,173,1,174,sade,1193,54.2052,1114,0.1218,4,notharmonic,1.55,word,m,,,,,,,
,,,,,,,,,,,,001,2023-11-08_23h56.28.002,vowel_harmony,2023.2.3,Win32,143.9884809,380.3303,381.33,,,,,,,,,,,,,,,,,,,,,,,,,,381.33,381.8855,z,1,0.5478,,381.8856,381.8856,,0,166,166,232,1,233,kanur,,,,,5,harmonic,1.7,nw,z,,,,,,,
,,,,,,,,,,,,001,2023-11-08_23h56.28.002,vowel_harmony,2023.2.3,Win32,143.9884809,381.8858,382.8855,,,,,,,,,,,,,,,,,,,,,,,,,,382.8855,383.5731,m,1,0.6796,,383.5731,383.5732,,0,167,167,120,1,121,ihmal,1002,45.5269,977,0.1068,5,notharmonic,1.65,word,m,,,,,,,
,,,,,,,,,,,,001,2023-11-08_23h56.28.002,vowel_harmony,2023.2.3,Win32,143.9884809,383.5734,384.5731,,,,,,,,,,,,,,,,,,,,,,,,,,384.5731,385.2605,z,1,0.6804,,385.2605,385.2606,,0,168,168,246,1,247,orkın,,,,,5,harmonic,1.9,nw,z,,,,,,,
,,,,,,,,,,,,001,2023-11-08_23h56.28.002,vowel_harmony,2023.2.3,Win32,143.9884809,385.2608,386.2605,,,,,,,,,,,,,,,,,,,,,,,,,,386.2605,387.1077,z,1,0.8411,,387.1077,387.1078,,0,169,169,312,1,313,şahmin,,,,,6,notharmonic,1.8,nw,z,,,,,,,
,,,,,,,,,,,,001,2023-11-08_23h56.28.002,vowel_harmony,2023.2.3,Win32,143.9884809,387.1079,388.1078,,,,,,,,,,,,,,,,,,,,,,,,,,388.1079,388.7883,m,1,0.6738,,388.7883,388.7883,,0,170,170,129,1,130,tahmin,2353,106.911,2273,0.2485,6,notharmonic,1.6,word,m,,,,,,,
,,,,,,,,,,,,001,2023-11-08_23h56.28.002,vowel_harmony,2023.2.3,Win32,143.9884809,388.7885,389.7882,,,,,,,,,,,,,,,,,,,,,,,,,,389.7882,390.455,z,1,0.6586,,390.455,390.4551,,0,171,171,225,1,226,düvem,,,,,5,harmonic,1.7,nw,z,,,,,,,
,,,,,,,,,,,,001,2023-11-08_23h56.28.002,vowel_harmony,2023.2.3,Win32,143.9884809,390.4552,391.4549,,,,,,,,,,,,,,,,,,,,,,,,,,391.4549,391.948,m,1,0.4873,,391.948,391.948,,0,172,172,39,1,40,yaygın,1061,48.2076,1019,0.1114,6,harmonic,1.35,word,m,,,,,,,
,,,,,,,,,,,,001,2023-11-08_23h56.28.002,vowel_harmony,2023.2.3,Win32,143.9884809,391.9482,392.948,,,,,,,,,,,,,,,,,,,,,,,,,,392.948,393.4968,m,1,0.5462,,393.4968,393.4968,,0,173,173,84,1,85,ülke,3121,141.8059,2801,0.3062,4,harmonic,1.65,word,m,,,,,,,
,,,,,,,,,,,,001,2023-11-08_23h56.28.002,vowel_harmony,2023.2.3,Win32,143.9884809,393.497,394.4966,,,,,,,,,,,,,,,,,,,,,,,,,,394.4966,395.1979,m,1,0.6938,,395.198,395.198,,0,174,174,27,1,28,bölge,1283,58.2944,1123,0.1228,5,harmonic,1.65,word,m,,,,,,,
,,,,,,,,,,,,001,2023-11-08_23h56.28.002,vowel_harmony,2023.2.3,Win32,143.9884809,395.1982,396.1979,,,,,,,,,,,,,,,,,,,,,,,,,,396.1979,396.8924,z,1,0.6887,,396.8924,396.8925,,0,175,175,278,1,279,sekon,,,,,5,notharmonic,1.85,nw,z,,,,,,,
,,,,,,,,,,,,001,2023-11-08_23h56.28.002,vowel_harmony,2023.2.3,Win32,143.9884809,396.8926,397.8924,,,,,,,,,,,,,,,,,,,,,,,,,,397.8924,398.5591,z,1,0.6592,,398.5591,398.5591,,0,176,176,194,1,195,rayna,,,,,5,harmonic,1.7,nw,z,,,,,,,
,,,,,,,,,,,,001,2023-11-08_23h56.28.002,vowel_harmony,2023.2.3,Win32,143.9884809,398.5594,399.559,,,,,,,,,,,,,,,,,,,,,,,,,,399.559,400.1979,z,1,0.6318,,400.1979,400.198,,0,177,177,204,1,205,gerkez,,,,,6,harmonic,1.9,nw,z,,,,,,,
,,,,,,,,,,,,001,2023-11-08_23h56.28.002,vowel_harmony,2023.2.3,Win32,143.9884809,400.1981,401.1978,,,,,,,,,,,,,,,,,,,,,,,,,,401.1979,401.7465,m,1,0.5454,,401.7465,401.7466,,0,178,178,139,1,140,lira,1253,56.9314,947,0.1035,4,notharmonic,1.4,word,m,,,,,,,
,,,,,,,,,,,,001,2023-11-08_23h56.28.002,vowel_harmony,2023.2.3,Win32,143.9884809,401.7468,402.7464,,,,,,,,,,,,,,,,,,,,,,,,,,402.7464,403.3714,z,1,0.6207,,403.3715,403.3715,,0,179,179,235,1,236,oşup,,,,,4,harmonic,1.75,nw,z,,,,,,,
,,,,,,,,,,,,001,2023-11-08_23h56.28.002,vowel_harmony,2023.2.3,Win32,143.9884809,403.3717,404.3714,,,,,,,,,,,,,,,,,,,,,,,,,,404.3714,405.0451,m,1,0.6682,,405.0451,405.0451,,0,180,180,123,1,124,haber,4559,207.1429,4151,0.4538,5,notharmonic,1.85,word,m,,,,,,,
,,,,,,,,,,,,001,2023-11-08_23h56.28.002,vowel_harmony,2023.2.3,Win32,143.9884809,405.0454,406.0451,,,,,,,,,,,,,,,,,,,,,,,,,,406.0451,406.5589,m,1,0.5065,,406.5589,406.559,,0,181,181,115,1,116,saniye,1088,49.4344,984,0.1076,6,notharmonic,1.35,word,m,,,,,,,
,,,,,,,,,,,,001,2023-11-08_23h56.28.002,vowel_harmony,2023.2.3,Win32,143.9884809,406.5591,407.5588,,,,,,,,,,,,,,,,,,,,,,,,,,407.5589,408.1631,z,1,0.601,,408.1631,408.1631,,0,182,182,339,1,340,asmel,,,,,5,notharmonic,1.95,nw,z,,,,,,,
,,,,,,,,,,,,001,2023-11-08_23h56.28.002,vowel_harmony,2023.2.3,Win32,143.9884809,408.1632,409.163,,,,,,,,,,,,,,,,,,,,,,,,,,409.163,409.6075,m,1,0.4371,,409.6075,409.6075,,0,183,183,100,1,101,düşman,1065,48.3894,962,0.1052,6,notharmonic,1.85,word,m,,,,,,,
,,,,,,,,,,,,001,2023-11-08_23h56.28.002,vowel_harmony,2023.2.3,Win32,143.9884809,409.6077,410.6075,,,,,,,,,,,,,,,,,,,,,,,,,,410.6075,411.0242,m,1,0.4086,,411.0242,411.0242,,0,184,184,162,1,163,hariç,1267,57.5675,1233,0.1348,5,notharmonic,1.75,word,m,,,,,,,
,,,,,,,,,,,,001,2023-11-08_23h56.28.002,vowel_harmony,2023.2.3,Win32,143.9884809,411.0244,412.0241,,,,,,,,,,,,,,,,,,,,,,,,,,412.0241,412.3228,m,0,0.2966,,412.3228,412.3228,,0,185,185,239,1,240,şekik,,,,,5,harmonic,1.7,nw,z,,,,,,,
,,,,,,,,,,,,001,2023-11-08_23h56.28.002,vowel_harmony,2023.2.3,Win32,143.9884809,412.3231,413.3226,,,,,,,,,,,,,,,,,,,,,,,,,,413.3226,413.8088,m,1,0.4784,,413.8089,413.8089,,0,186,186,154,1,155,sakin,1855,84.2838,1635,0.1787,5,notharmonic,1.05,word,m,,,,,,,
,,,,,,,,,,,,001,2023-11-08_23h56.28.002,vowel_harmony,2023.2.3,Win32,143.9884809,413.809,414.8087,,,,,,,,,,,,,,,,,,,,,,,,,,414.8088,415.3296,m,1,0.5127,,415.3297,415.3297,,0,187,187,147,1,148,işaret,1888,85.7832,1787,0.1954,6,notharmonic,1,word,m,,,,,,,
,,,,,,,,,,,,001,2023-11-08_23h56.28.002,vowel_harmony,2023.2.3,Win32,143.9884809,415.3298,416.3296,,,,,,,,,,,,,,,,,,,,,,,,,,416.3296,416.9199,z,1,0.5834,,416.92,416.92,,0,188,188,252,1,253,anlgı,,,,,5,harmonic,1.9,nw,z,,,,,,,
,,,,,,,,,,,,001,2023-11-08_23h56.28.002,vowel_harmony,2023.2.3,Win32,143.9884809,416.9202,417.9198,,,,,,,,,,,,,,,,,,,,,,,,,,417.9198,418.524,z,1,0.6012,,418.524,418.524,,0,189,189,197,1,198,ranar,,,,,5,harmonic,1.75,nw,z,,,,,,,
,,,,,,,,,,,,001,2023-11-08_23h56.28.002,vowel_harmony,2023.2.3,Win32,143.9884809,418.5243,419.524,,,,,,,,,,,,,,,,,,,,,,,,,,419.524,420.2046,z,1,0.6774,,420.2046,420.2046,,0,190,190,306,1,307,otet,,,,,4,notharmonic,1.95,nw,z,,,,,,,
,,,,,,,,,,,,001,2023-11-08_23h56.28.002,vowel_harmony,2023.2.3,Win32,143.9884809,420.2049,421.2045,,,,,,,,,,,,,,,,,,,,,,,,,,421.2045,421.9823,z,1,0.7731,,421.9823,421.9823,,0,191,191,301,1,302,mezak,,,,,5,notharmonic,1.8,nw,z,,,,,,,
,,,,,,,,,,,,001,2023-11-08_23h56.28.002,vowel_harmony,2023.2.3,Win32,143.9884809,421.9825,422.9823,,,,,,,,,,,,,,,,,,,,,,,,,,422.9823,423.4614,m,1,0.4753,,423.4615,423.4615,,0,192,192,111,1,112,kahve,2634,119.6785,2283,0.2496,5,notharmonic,1.85,word,m,,,,,,,
,,,,,,,,,,,,001,2023-11-08_23h56.28.002,vowel_harmony,2023.2.3,Win32,143.9884809,423.4617,424.4614,,,,,,,,,,,,,,,,,,,,,,,,,,424.4614,425.0864,z,1,0.6203,,425.0864,425.0865,,0,193,193,216,1,217,çeyret,,,,,6,harmonic,1.9,nw,z,,,,,,,
,,,,,,,,,,,,001,2023-11-08_23h56.28.002,vowel_harmony,2023.2.3,Win32,143.9884809,425.0867,426.0864,,,,,,,,,,,,,,,,,,,,,,,,,,426.0864,426.7114,z,1,0.6195,,426.7114,426.7114,,0,194,194,271,1,272,mimal,,,,,5,notharmonic,1.8,nw,z,,,,,,,
,,,,,,,,,,,,001,2023-11-08_23h56.28.002,vowel_harmony,2023.2.3,Win32,143.9884809,426.7116,427.7114,,,,,,,,,,,,,,,,,,,,,,,,,,427.7114,428.2391,m,1,0.5227,,428.2392,428.2393,,0,195,195,160,1,161,hakem,603,27.3979,473,0.0517,5,notharmonic,1.3,word,m,,,,,,,
,,,,,,,,,,,,001,2023-11-08_23h56.28.002,vowel_harmony,2023.2.3,Win32,143.9884809,428.2394,429.2391,,,,,,,,,,,,,,,,,,,,,,,,,,429.2391,429.7599,z,1,0.5149,,429.76,429.76,,0,196,196,290,1,291,aipa,,,,,4,notharmonic,1.95,nw,z,,,,,,,
,,,,,,,,,,,,001,2023-11-08_23h56.28.002,vowel_harmony,2023.2.3,Win32,143.9884809,429.7602,430.7599,,,,,,,,,,,,,,,,,,,,,,,,,,430.76,431.2947,z,1,0.5305,,431.2947,431.2948,,0,197,197,296,1,297,işban,,,,,5,notharmonic,1.95,nw,z,,,,,,,
,,,,,,,,,,,,001,2023-11-08_23h56.28.002,vowel_harmony,2023.2.3,Win32,143.9884809,431.2949,432.2947,,,,,,,,,,,,,,,,,,,,,,,,,,432.2948,432.899,m,1,0.5959,,432.899,432.8991,,0,198,198,128,1,129,tatil,2152,97.7783,1865,0.2039,5,notharmonic,1.7,word,m,,,,,,,
,,,,,,,,,,,,001,2023-11-08_23h56.28.002,vowel_harmony,2023.2.3,Win32,143.9884809,432.8992,433.8988,,,,,,,,,,,,,,,,,,,,,,,,,,433.8988,434.4752,m,1,0.5688,,434.4753,434.4753,,0,199,199,171,1,172,reklam,1565,71.1074,1244,0.136,6,notharmonic,1.9,word,m,,,,,,,
,,,,,,,,,,,,001,2023-11-08_23h56.28.002,vowel_harmony,2023.2.3,Win32,143.9884809,434.4754,435.4752,,,,,,,,,,,,,,,,,,,,,,,,,,435.4752,435.9751,m,1,0.4953,,435.9752,435.9753,,0,200,200,88,1,89,yalnız,5891,267.6637,5440,0.5947,6,harmonic,1.6,word,m,,,,,,,
,,,,,,,,,,,,001,2023-11-08_23h56.28.002,vowel_harmony,2023.2.3,Win32,143.9884809,435.9754,436.9751,,,,,,,,,,,,,,,,,,,,,,,,,,436.9751,437.5446,z,1,0.564,,437.5446,437.5446,,0,201,201,327,1,328,parkeş,,,,,6,notharmonic,1.9,nw,z,,,,,,,
,,,,,,,,,,,,001,2023-11-08_23h56.28.002,vowel_harmony,2023.2.3,Win32,143.9884809,437.5448,438.5445,,,,,,,,,,,,,,,,,,,,,,,,,,438.5446,439.1001,z,1,0.5476,,439.1001,439.1001,,0,202,202,185,1,186,örtin,,,,,5,harmonic,1.9,nw,z,,,,,,,
,,,,,,,,,,,,001,2023-11-08_23h56.28.002,vowel_harmony,2023.2.3,Win32,143.9884809,439.1004,440.1001,,,,,,,,,,,,,,,,,,,,,,,,,,440.1001,440.6279,m,1,0.5199,,440.628,440.628,,0,203,203,11,1,12,umut,1988,90.3268,1818,0.1987,4,harmonic,1.55,word,m,,,,,,,
,,,,,,,,,,,,001,2023-11-08_23h56.28.002,vowel_harmony,2023.2.3,Win32,143.9884809,440.6281,441.6279,,,,,,,,,,,,,,,,,,,,,,,,,,441.6279,442.2876,z,1,0.656,,442.2876,442.2877,,0,204,204,292,1,293,kinam,,,,,5,notharmonic,1.85,nw,z,,,,,,,
,,,,,,,,,,,,001,2023-11-08_23h56.28.002,vowel_harmony,2023.2.3,Win32,143.9884809,442.2878,443.2876,,,,,,,,,,,,,,,,,,,,,,,,,,443.2876,443.6973,m,1,0.4043,,443.6973,443.6974,,0,205,205,109,1,110,milyon,3936,178.8362,2958,0.3234,6,notharmonic,1.75,word,m,,,,,,,
,,,,,,,,,,,,001,2023-11-08_23h56.28.002,vowel_harmony,2023.2.3,Win32,143.9884809,443.6976,444.6973,,,,,,,,,,,,,,,,,,,,,,,,,,444.6973,445.2182,m,1,0.5146,,445.2182,445.2183,,0,206,206,116,1,117,daire,621,28.2158,503,0.055,5,notharmonic,1,word,m,,,,,,,
,,,,,,,,,,,,001,2023-11-08_23h56.28.002,vowel_harmony,2023.2.3,Win32,143.9884809,445.2184,446.2181,,,,,,,,,,,,,,,,,,,,,,,,,,446.2181,446.996,z,1,0.7702,,446.996,446.996,,0,207,207,285,1,286,iklon,,,,,5,notharmonic,1.85,nw,z,,,,,,,
,,,,,,,,,,,,001,2023-11-08_23h56.28.002,vowel_harmony,2023.2.3,Win32,143.9884809,446.9962,447.9958,,,,,,,,,,,,,,,,,,,,,,,,,,447.9958,448.6556,z,1,0.6564,,448.6557,448.6557,,0,208,208,213,1,214,kaun,,,,,4,harmonic,1.7,nw,z,,,,,,,
,,,,,,,,,,,,001,2023-11-08_23h56.28.002,vowel_harmony,2023.2.3,Win32,143.9884809,448.6558,449.6556,,,,,,,,,,,,,,,,,,,,,,,,,,449.6556,450.1973,z,1,0.5341,,450.1973,450.1973,,0,209,209,201,1,202,ergiy,,,,,5,harmonic,1.85,nw,z,,,,,,,
,,,,,,,,,,,,001,2023-11-08_23h56.28.002,vowel_harmony,2023.2.3,Win32,143.9884809,450.1975,451.1972,,,,,,,,,,,,,,,,,,,,,,,,,,451.1972,451.85,z,1,0.6473,,451.85,451.85,,0,210,210,302,1,303,işgar,,,,,5,notharmonic,1.9,nw,z,,,,,,,
,,,,,,,,,,,,001,2023-11-08_23h56.28.002,vowel_harmony,2023.2.3,Win32,143.9884809,451.8501,452.8499,,,,,,,,,,,,,,,,,,,,,,,,,,452.8499,453.4055,m,1,0.5475,,453.4056,453.4056,,0,211,211,16,1,17,yavaş,5087,231.1331,2886,0.3155,5,harmonic,1.6,word,m,,,,,,,
,,,,,,,,,,,,001,2023-11-08_23h56.28.002,vowel_harmony,2023.2.3,Win32,143.9884809,453.4058,454.4056,,,,,,,,,,,,,,,,,,,,,,,,,,454.4056,454.8916,m,1,0.4793,,454.8916,454.8916,,0,212,212,81,1,82,üretim,1593,72.3796,1283,0.1403,6,harmonic,1.6,word,m,,,,,,,
,,,,,,,,,,,,001,2023-11-08_23h56.28.002,vowel_harmony,2023.2.3,Win32,143.9884809,454.8918,455.8916,,,,,,,,,,,,,,,,,,,,,,,,,,455.8916,456.7874,z,1,0.8895,,456.7874,456.7875,,0,213,213,263,1,264,duzur,,,,,5,harmonic,1.8,nw,z,,,,,,,
,,,,,,,,,,,,001,2023-11-08_23h56.28.002,vowel_harmony,2023.2.3,Win32,143.9884809,456.7877,457.7874,,,,,,,,,,,,,,,,,,,,,,,,,,457.7874,458.4542,z,1,0.659,,458.4542,458.4542,,0,214,214,323,1,324,devak,,,,,5,notharmonic,1.75,nw,z,,,,,,,
,,,,,,,,,,,,001,2023-11-08_23h56.28.002,vowel_harmony,2023.2.3,Win32,143.9884809,458.4544,459.4541,,,,,,,,,,,,,,,,,,,,,,,,,,459.4541,460.0721,z,1,0.6154,,460.0721,460.0721,,0,215,215,283,1,284,fahe,,,,,4,notharmonic,1.95,nw,z,,,,,,,
,,,,,,,,,,,,001,2023-11-08_23h56.28.002,vowel_harmony,2023.2.3,Win32,143.9884809,460.0723,461.0721,,,,,,,,,,,,,,,,,,,,,,,,,,461.0721,461.8082,m,1,0.7331,,461.8082,461.8083,,0,216,216,133,1,134,taze,2268,103.0489,2062,0.2254,4,notharmonic,1.65,word,m,,,,,,,
,,,,,,,,,,,,001,2023-11-08_23h56.28.002,vowel_harmony,2023.2.3,Win32,143.9884809,461.8084,462.8083,,,,,,,,,,,,,,,,,,,,,,,,,,462.8083,463.4123,z,1,0.5968,,463.4123,463.4124,,0,217,217,291,1,292,mepan,,,,,5,notharmonic,1.75,nw,z,,,,,,,
,,,,,,,,,,,,001,2023-11-08_23h56.28.002,vowel_harmony,2023.2.3,Win32,143.9884809,463.4126,464.4123,,,,,,,,,,,,,,,,,,,,,,,,,,464.4123,464.9331,m,1,0.5132,,464.9332,464.9332,,0,218,218,9,1,10,karar,8108,368.3954,7436,0.8129,5,harmonic,1.6,word,m,,,,,,,
,,,,,,,,,,,,001,2023-11-08_23h56.28.002,vowel_harmony,2023.2.3,Win32,143.9884809,464.9334,465.9331,,,,,,,,,,,,,,,,,,,,,,,,,,465.9331,466.7804,m,0,0.8409,,466.7804,466.7804,,0,219,219,295,1,296,haylin,,,,,6,notharmonic,1.8,nw,z,,,,,,,
,,,,,,,,,,,,001,2023-11-08_23h56.28.002,vowel_harmony,2023.2.3,Win32,143.9884809,466.7806,467.7804,,,,,,,,,,,,,,,,,,,,,,,,,,467.7804,469.1345,z,1,1.3462,,469.1345,469.1345,,0,220,220,299,1,300,fihal,,,,,5,notharmonic,1.95,nw,z,,,,,,,
,,,,,,,,,,,,001,2023-11-08_23h56.28.002,vowel_harmony,2023.2.3,Win32,143.9884809,469.1347,470.1345,,,,,,,,,,,,,,,,,,,,,,,,,,470.1345,470.815,m,1,0.6725,,470.815,470.815,,0,221,221,8,1,9,güven,1433,65.1098,1300,0.1421,5,harmonic,1.35,word,m,,,,,,,
,,,,,,,,,,,,001,2023-11-08_23h56.28.002,vowel_harmony,2023.2.3,Win32,143.9884809,470.8152,471.815,,,,,,,,,,,,,,,,,,,,,,,,,,471.815,472.3081,m,1,0.4879,,472.3081,472.3082,,0,222,222,31,1,32,fazla,18293,831.1614,16694,1.825,5,harmonic,1,word,m,,,,,,,
,,,,,,,,,,,,001,2023-11-08_23h56.28.002,vowel_harmony,2023.2.3,Win32,143.9884809,472.3084,473.308,,,,,,,,,,,,,,,,,,,,,,,,,,473.3081,473.9816,z,1,0.6669,,473.9816,473.9816,,0,223,223,217,1,218,sanfız,,,,,6,harmonic,1.85,nw,z,,,,,,,
,,,,,,,,,,,,001,2023-11-08_23h56.28.002,vowel_harmony,2023.2.3,Win32,143.9884809,473.9818,474.9816,,,,,,,,,,,,,,,,,,,,,,,,,,474.9816,475.6204,m,1,0.6334,,475.6204,475.6205,,0,224,224,101,1,102,imza,1358,61.7021,1253,0.137,4,notharmonic,1.65,word,m,,,,,,,
,,,,,,,,,,,,001,2023-11-08_23h56.28.002,vowel_harmony,2023.2.3,Win32,143.9884809,475.6207,476.6204,,,,,,,,,,,,,,,,,,,,,,,,,,476.6204,477.1621,z,1,0.5388,,477.1622,477.1622,,0,225,225,211,1,212,yarum,,,,,5,harmonic,1.75,nw,z,,,,,,,
,,,,,,,,,,,,001,2023-11-08_23h56.28.002,vowel_harmony,2023.2.3,Win32,143.9884809,477.1624,478.1621,,,,,,,,,,,,,,,,,,,,,,,,,,478.1621,478.7593,z,1,0.5894,,478.7593,478.7593,,0,226,226,212,1,213,ortat,,,,,5,harmonic,1.7,nw,z,,,,,,,
,,,,,,,,,,,,001,2023-11-08_23h56.28.002,vowel_harmony,2023.2.3,Win32,143.9884809,478.7595,479.7593,,,,,,,,,,,,,,,,,,,,,,,,,,479.7593,480.3079,m,1,0.5441,,480.308,480.308,,0,227,227,157,1,158,aktif,1062,48.2531,986,0.1078,5,notharmonic,1.9,word,m,,,,,,,
,,,,,,,,,,,,001,2023-11-08_23h56.28.002,vowel_harmony,2023.2.3,Win32,143.9884809,480.3082,481.3078,,,,,,,,,,,,,,,,,,,,,,,,,,481.3078,481.7802,z,1,0.4681,,481.7802,481.7802,,0,228,228,319,1,320,biho,,,,,4,notharmonic,2,nw,z,,,,,,,
,,,,,,,,,,,,001,2023-11-08_23h56.28.002,vowel_harmony,2023.2.3,Win32,143.9884809,481.7804,482.7801,,,,,,,,,,,,,,,,,,,,,,,,,,482.7801,483.2524,m,1,0.468,,483.2524,483.2524,,0,229,229,68,1,69,ücret,734,33.35,634,0.0693,5,harmonic,1.85,word,m,,,,,,,
,,,,,,,,,,,,001,2023-11-08_23h56.28.002,vowel_harmony,2023.2.3,Win32,143.9884809,483.2526,484.2523,,,,,,,,,,,,,,,,,,,,,,,,,,484.2523,484.7662,m,1,0.5078,,484.7662,484.7662,,0,230,230,41,1,42,zengin,2193,99.6412,2015,0.2203,6,harmonic,1.65,word,m,,,,,,,
,,,,,,,,,,,,001,2023-11-08_23h56.28.002,vowel_harmony,2023.2.3,Win32,143.9884809,484.7665,485.7662,,,,,,,,,,,,,,,,,,,,,,,,,,485.7662,486.3981,z,1,0.6265,,486.3981,486.3982,,0,231,231,349,1,350,harten,,,,,6,notharmonic,1.85,nw,z,,,,,,,
,,,,,,,,,,,,001,2023-11-08_23h56.28.002,vowel_harmony,2023.2.3,Win32,143.9884809,486.3984,487.398,,,,,,,,,,,,,,,,,,,,,,,,,,487.3981,488.2108,z,1,0.8106,,488.2108,488.2109,,0,232,232,338,1,339,pardön,,,,,6,notharmonic,1.95,nw,z,,,,,,,
,,,,,,,,,,,,001,2023-11-08_23h56.28.002,vowel_harmony,2023.2.3,Win32,143.9884809,488.2111,489.2106,,,,,,,,,,,,,,,,,,,,,,,,,,489.2106,489.8355,z,1,0.6221,,489.8356,489.8356,,0,233,233,236,1,237,toklam,,,,,6,harmonic,1.85,nw,z,,,,,,,
,,,,,,,,,,,,001,2023-11-08_23h56.28.002,vowel_harmony,2023.2.3,Win32,143.9884809,489.8359,490.8355,,,,,,,,,,,,,,,,,,,,,,,,,,490.8355,491.3772,m,1,0.5338,,491.3772,491.3773,,0,234,234,51,1,52,ilginç,2803,127.3572,2690,0.2941,6,harmonic,1.8,word,m,,,,,,,
,,,,,,,,,,,,001,2023-11-08_23h56.28.002,vowel_harmony,2023.2.3,Win32,143.9884809,491.3776,492.3772,,,,,,,,,,,,,,,,,,,,,,,,,,492.3772,492.8494,m,1,0.4643,,492.8495,492.8496,,0,235,235,134,1,135,iptal,793,36.0308,725,0.0793,5,notharmonic,1.35,word,m,,,,,,,
,,,,,,,,,,,,001,2023-11-08_23h56.28.002,vowel_harmony,2023.2.3,Win32,143.9884809,492.8498,493.8494,,,,,,,,,,,,,,,,,,,,,,,,,,493.8494,494.3217,z,1,0.4644,,494.3217,494.3217,,0,236,236,240,1,241,hoga,,,,,4,harmonic,1.75,nw,z,,,,,,,
,,,,,,,,,,,,001,2023-11-08_23h56.28.002,vowel_harmony,2023.2.3,Win32,143.9884809,494.3219,495.3216,,,,,,,,,,,,,,,,,,,,,,,,,,495.3216,495.8564,z,1,0.5277,,495.8564,495.8564,,0,237,237,282,1,283,taöz,,,,,4,notharmonic,1.9,nw,z,,,,,,,
,,,,,,,,,,,,001,2023-11-08_23h56.28.002,vowel_harmony,2023.2.3,Win32,143.9884809,495.8567,496.8564,,,,,,,,,,,,,,,,,,,,,,,,,,496.8564,497.6132,z,1,0.7529,,497.6132,497.6133,,0,238,238,325,1,326,garit,,,,,5,notharmonic,1.85,nw,z,,,,,,,
,,,,,,,,,,,,001,2023-11-08_23h56.28.002,vowel_harmony,2023.2.3,Win32,143.9884809,497.6135,498.6134,,,,,,,,,,,,,,,,,,,,,,,,,,498.6134,499.2105,z,1,0.5889,,499.2105,499.2105,,0,239,239,193,1,194,yokın,,,,,5,harmonic,1.85,nw,z,,,,,,,
,,,,,,,,,,,,001,2023-11-08_23h56.28.002,vowel_harmony,2023.2.3,Win32,143.9884809,499.2106,500.2104,,,,,,,,,,,,,,,,,,,,,,,,,,500.2104,500.8562,m,1,0.6394,,500.8563,515.6964,space,0,240,240,114,1,115,nisan,2321,105.457,2044,0.2235,5,notharmonic,1.6,word,m,14.8358,,,,,,
,,,,,,,,,,,,001,2023-11-08_23h56.28.002,vowel_harmony,2023.2.3,Win32,143.9884809,515.7018,516.7033,,,,,,,,,,,,,,,,,,,,,,,,,,516.7033,517.3075,z,1,0.5964,,517.3075,517.3076,,0,241,241,288,1,289,molit,,,,,5,notharmonic,1.95,nw,z,,,,,,,
,,,,,,,,,,,,001,2023-11-08_23h56.28.002,vowel_harmony,2023.2.3,Win32,143.9884809,517.3078,518.3074,,,,,,,,,,,,,,,,,,,,,,,,,,518.3075,518.8282,z,1,0.5131,,518.8283,518.8283,,0,242,242,230,1,231,bikir,,,,,5,harmonic,1.75,nw,z,,,,,,,
,,,,,,,,,,,,001,2023-11-08_23h56.28.002,vowel_harmony,2023.2.3,Win32,143.9884809,518.8285,519.8283,,,,,,,,,,,,,,,,,,,,,,,,,,519.8283,520.4046,m,1,0.5684,,520.4046,520.4047,,0,243,243,102,1,103,esas,1965,89.2818,1795,0.1962,4,notharmonic,1.75,word,m,,,,,,,
,,,,,,,,,,,,001,2023-11-08_23h56.28.002,vowel_harmony,2023.2.3,Win32,143.9884809,520.4049,521.4046,,,,,,,,,,,,,,,,,,,,,,,,,,521.4046,522.113,z,1,0.7035,,522.113,522.113,,0,244,244,277,1,278,balsin,,,,,6,notharmonic,1.85,nw,z,,,,,,,
,,,,,,,,,,,,001,2023-11-08_23h56.28.002,vowel_harmony,2023.2.3,Win32,143.9884809,522.1132,523.1129,,,,,,,,,,,,,,,,,,,,,,,,,,523.1129,523.6199,m,1,0.4991,,523.6199,523.6199,,0,245,245,17,1,18,yakın,7990,363.0339,7595,0.8303,5,harmonic,1.8,word,m,,,,,,,
,,,,,,,,,,,,001,2023-11-08_23h56.28.002,vowel_harmony,2023.2.3,Win32,143.9884809,523.6202,524.6199,,,,,,,,,,,,,,,,,,,,,,,,,,524.6199,525.1893,z,1,0.5615,,525.1893,525.1893,,0,246,246,304,1,305,annö,,,,,4,notharmonic,1.95,nw,z,,,,,,,
,,,,,,,,,,,,001,2023-11-08_23h56.28.002,vowel_harmony,2023.2.3,Win32,143.9884809,525.1894,526.1892,,,,,,,,,,,,,,,,,,,,,,,,,,526.1893,526.9253,m,1,0.728,,526.9253,526.9254,,0,247,247,54,1,55,yedek,825,37.4847,732,0.08,5,harmonic,1.65,word,m,,,,,,,
,,,,,,,,,,,,001,2023-11-08_23h56.28.002,vowel_harmony,2023.2.3,Win32,143.9884809,526.9255,527.9253,,,,,,,,,,,,,,,,,,,,,,,,,,527.9253,528.4323,z,1,0.5035,,528.4324,528.4324,,0,248,248,200,1,201,duşın,,,,,5,harmonic,1.9,nw,z,,,,,,,
,,,,,,,,,,,,001,2023-11-08_23h56.28.002,vowel_harmony,2023.2.3,Win32,143.9884809,528.4326,529.4324,,,,,,,,,,,,,,,,,,,,,,,,,,529.4324,529.9878,m,1,0.5481,,529.9878,529.9879,,0,249,249,158,1,159,klasik,1871,85.0108,1734,0.1896,6,notharmonic,2,word,m,,,,,,,
,,,,,,,,,,,,001,2023-11-08_23h56.28.002,vowel_harmony,2023.2.3,Win32,143.9884809,529.988,530.9881,,,,,,,,,,,,,,,,,,,,,,,,,,530.9881,531.5365,z,1,0.5446,,531.5366,531.5366,,0,250,250,196,1,197,bilön,,,,,5,harmonic,1.9,nw,z,,,,,,,
,,,,,,,,,,,,001,2023-11-08_23h56.28.002,vowel_harmony,2023.2.3,Win32,143.9884809,531.5368,532.5364,,,,,,,,,,,,,,,,,,,,,,,,,,532.5364,533.0781,z,1,0.5335,,533.0781,533.0781,,0,251,251,222,1,223,gelü,,,,,4,harmonic,1.75,nw,z,,,,,,,
,,,,,,,,,,,,001,2023-11-08_23h56.28.002,vowel_harmony,2023.2.3,Win32,143.9884809,533.0786,534.078,,,,,,,,,,,,,,,,,,,,,,,,,,534.0781,534.6197,m,1,0.5355,,534.6197,534.6198,,0,252,252,35,1,36,hava,4975,226.0443,4398,0.4808,4,harmonic,1,word,m,,,,,,,
,,,,,,,,,,,,001,2023-11-08_23h56.28.002,vowel_harmony,2023.2.3,Win32,143.9884809,534.62,535.6197,,,,,,,,,,,,,,,,,,,,,,,,,,535.6197,536.1821,z,1,0.5548,,536.1822,536.1823,,0,253,253,280,1,281,adalek,,,,,6,notharmonic,1.85,nw,z,,,,,,,
,,,,,,,,,,,,001,2023-11-08_23h56.28.002,vowel_harmony,2023.2.3,Win32,143.9884809,536.1824,537.1821,,,,,,,,,,,,,,,,,,,,,,,,,,537.1821,537.7099,m,1,0.5197,,537.71,537.7101,,0,254,254,76,1,77,ilişki,1675,76.1054,1524,0.1666,6,harmonic,1.8,word,m,,,,,,,
,,,,,,,,,,,,001,2023-11-08_23h56.28.002,vowel_harmony,2023.2.3,Win32,143.9884809,537.7102,538.7099,,,,,,,,,,,,,,,,,,,,,,,,,,538.71,539.2724,z,1,0.56,,539.2725,539.2725,,0,255,255,253,1,254,meslet,,,,,6,harmonic,1.85,nw,z,,,,,,,
,,,,,,,,,,,,001,2023-11-08_23h56.28.002,vowel_harmony,2023.2.3,Win32,143.9884809,539.2727,540.2724,,,,,,,,,,,,,,,,,,,,,,,,,,540.2724,540.8766,z,1,0.5977,,540.8766,540.8767,,0,256,256,184,1,185,yapor,,,,,5,harmonic,1.9,nw,z,,,,,,,
,,,,,,,,,,,,001,2023-11-08_23h56.28.002,vowel_harmony,2023.2.3,Win32,143.9884809,540.8769,541.8765,,,,,,,,,,,,,,,,,,,,,,,,,,541.8765,542.4946,z,1,0.6101,,542.4947,542.4947,,0,257,257,198,1,199,yarbız,,,,,6,harmonic,1.95,nw,z,,,,,,,
,,,,,,,,,,,,001,2023-11-08_23h56.28.002,vowel_harmony,2023.2.3,Win32,143.9884809,542.4949,543.4946,,,,,,,,,,,,,,,,,,,,,,,,,,543.4946,544.2863,z,1,0.7839,,544.2863,544.2863,,0,258,258,267,1,268,nokuma,,,,,6,harmonic,1.75,nw,z,,,,,,,
,,,,,,,,,,,,001,2023-11-08_23h56.28.002,vowel_harmony,2023.2.3,Win32,143.9884809,544.2865,545.2862,,,,,,,,,,,,,,,,,,,,,,,,,,545.2862,545.8348,m,1,0.5442,,545.8349,545.8349,,0,259,259,136,1,137,beyaz,5517,250.6706,4788,0.5234,5,notharmonic,1.85,word,m,,,,,,,
,,,,,,,,,,,,001,2023-11-08_23h56.28.002,vowel_harmony,2023.2.3,Win32,143.9884809,545.8351,546.8348,,,,,,,,,,,,,,,,,,,,,,,,,,546.8348,547.4112,z,1,0.5721,,547.4112,547.4113,,0,260,260,219,1,220,barlum,,,,,6,harmonic,1.9,nw,z,,,,,,,
,,,,,,,,,,,,001,2023-11-08_23h56.28.002,vowel_harmony,2023.2.3,Win32,143.9884809,547.4115,548.4112,,,,,,,,,,,,,,,,,,,,,,,,,,548.4112,549.4111,m,1,0.9959,,549.4112,549.4112,,0,261,261,12,1,13,konu,5400,245.3546,5110,0.5586,4,harmonic,1,word,m,,,,,,,
,,,,,,,,,,,,001,2023-11-08_23h56.28.002,vowel_harmony,2023.2.3,Win32,143.9884809,549.4114,550.4111,,,,,,,,,,,,,,,,,,,,,,,,,,550.4111,550.9876,z,1,0.5721,,550.9876,550.9877,,0,262,262,203,1,204,döves,,,,,5,harmonic,1.8,nw,z,,,,,,,
,,,,,,,,,,,,001,2023-11-08_23h56.28.002,vowel_harmony,2023.2.3,Win32,143.9884809,550.9879,551.9875,,,,,,,,,,,,,,,,,,,,,,,,,,551.9875,552.4529,m,1,0.4598,,552.4529,552.4529,,0,263,263,24,1,25,yorgun,1153,52.3877,1108,0.1211,6,harmonic,1.55,word,m,,,,,,,
,,,,,,,,,,,,001,2023-11-08_23h56.28.002,vowel_harmony,2023.2.3,Win32,143.9884809,552.4531,553.4528,,,,,,,,,,,,,,,,,,,,,,,,,,553.4528,554.05,z,1,0.595,,554.05,554.0501,,0,264,264,262,1,263,sauk,,,,,4,harmonic,1.85,nw,z,,,,,,,
,,,,,,,,,,,,001,2023-11-08_23h56.28.002,vowel_harmony,2023.2.3,Win32,143.9884809,554.0503,555.05,,,,,,,,,,,,,,,,,,,,,,,,,,555.05,555.9319,z,1,0.8776,,555.9319,555.932,,0,265,265,227,1,228,zekö,,,,,4,harmonic,1.9,nw,z,,,,,,,
,,,,,,,,,,,,001,2023-11-08_23h56.28.002,vowel_harmony,2023.2.3,Win32,143.9884809,555.9322,556.9318,,,,,,,,,,,,,,,,,,,,,,,,,,556.9318,557.4875,m,1,0.5481,,557.4875,557.4875,,0,266,266,117,1,118,nasip,1069,48.5711,1042,0.1139,5,notharmonic,1.8,word,m,,,,,,,
,,,,,,,,,,,,001,2023-11-08_23h56.28.002,vowel_harmony,2023.2.3,Win32,143.9884809,557.4877,558.4874,,,,,,,,,,,,,,,,,,,,,,,,,,558.4874,559.0916,z,1,0.6005,,559.0917,559.0917,,0,267,267,259,1,260,hayuk,,,,,5,harmonic,1.95,nw,z,,,,,,,
,,,,,,,,,,,,001,2023-11-08_23h56.28.002,vowel_harmony,2023.2.3,Win32,143.9884809,559.0919,560.0916,,,,,,,,,,,,,,,,,,,,,,,,,,560.0916,561.0708,m,1,0.9727,,561.0708,561.0709,,0,268,268,124,1,125,ilan,1579,71.7435,1499,0.1639,4,notharmonic,1,word,m,,,,,,,
,,,,,,,,,,,,001,2023-11-08_23h56.28.002,vowel_harmony,2023.2.3,Win32,143.9884809,561.071,562.0707,,,,,,,,,,,,,,,,,,,,,,,,,,562.0707,562.9249,z,1,0.8498,,562.925,562.925,,0,269,269,336,1,337,diyam,,,,,5,notharmonic,1.85,nw,z,,,,,,,
,,,,,,,,,,,,001,2023-11-08_23h56.28.002,vowel_harmony,2023.2.3,Win32,143.9884809,562.9251,563.9248,,,,,,,,,,,,,,,,,,,,,,,,,,563.9249,564.4735,m,1,0.5406,,564.4735,564.4736,,0,270,270,113,1,114,model,1200,54.5232,1082,0.1183,5,notharmonic,1.75,word,m,,,,,,,
,,,,,,,,,,,,001,2023-11-08_23h56.28.002,vowel_harmony,2023.2.3,Win32,143.9884809,564.4738,565.4734,,,,,,,,,,,,,,,,,,,,,,,,,,565.4734,565.9734,z,1,0.4954,,565.9735,565.9735,,0,271,271,297,1,298,sapet,,,,,5,notharmonic,1.85,nw,z,,,,,,,
,,,,,,,,,,,,001,2023-11-08_23h56.28.002,vowel_harmony,2023.2.3,Win32,143.9884809,565.9737,566.9735,,,,,,,,,,,,,,,,,,,,,,,,,,566.9735,567.5845,m,1,0.6036,,567.5845,567.5846,,0,272,272,29,1,30,huzur,1911,86.8283,1799,0.1967,5,harmonic,1.8,word,m,,,,,,,
,,,,,,,,,,,,001,2023-11-08_23h56.28.002,vowel_harmony,2023.2.3,Win32,143.9884809,567.5848,568.5845,,,,,,,,,,,,,,,,,,,,,,,,,,568.5846,569.0638,z,1,0.4727,,569.0638,569.0638,,0,273,273,181,1,182,rapkı,,,,,5,harmonic,1.85,nw,z,,,,,,,
,,,,,,,,,,,,001,2023-11-08_23h56.28.002,vowel_harmony,2023.2.3,Win32,143.9884809,569.0641,570.0636,,,,,,,,,,,,,,,,,,,,,,,,,,570.0636,570.5915,m,1,0.5215,,570.5916,570.5916,,0,274,274,151,1,152,ateş,2108,95.7792,1803,0.1971,4,notharmonic,1.65,word,m,,,,,,,
,,,,,,,,,,,,001,2023-11-08_23h56.28.002,vowel_harmony,2023.2.3,Win32,143.9884809,570.5917,571.5914,,,,,,,,,,,,,,,,,,,,,,,,,,571.5914,572.14,m,1,0.546,,572.14,572.14,,0,275,275,96,1,97,dahil,3189,144.8955,3060,0.3345,5,notharmonic,1.7,word,m,,,,,,,
,,,,,,,,,,,,001,2023-11-08_23h56.28.002,vowel_harmony,2023.2.3,Win32,143.9884809,572.1403,573.14,,,,,,,,,,,,,,,,,,,,,,,,,,573.14,573.6539,m,1,0.5096,,573.6539,573.654,,0,276,276,4,1,5,metre,1156,52.5241,1015,0.111,5,harmonic,1.7,word,m,,,,,,,
,,,,,,,,,,,,001,2023-11-08_23h56.28.002,vowel_harmony,2023.2.3,Win32,143.9884809,573.6541,574.6539,,,,,,,,,,,,,,,,,,,,,,,,,,574.654,575.1608,z,1,0.4997,,575.1608,575.1609,,0,277,277,234,1,235,düzöt,,,,,5,harmonic,2.05,nw,z,,,,,,,
,,,,,,,,,,,,001,2023-11-08_23h56.28.002,vowel_harmony,2023.2.3,Win32,143.9884809,575.161,576.1607,,,,,,,,,,,,,,,,,,,,,,,,,,576.1608,576.6747,z,1,0.5059,,576.6747,576.6748,,0,278,278,305,1,306,tamü,,,,,4,notharmonic,1.75,nw,z,,,,,,,
,,,,,,,,,,,,001,2023-11-08_23h56.28.002,vowel_harmony,2023.2.3,Win32,143.9884809,576.675,577.6746,,,,,,,,,,,,,,,,,,,,,,,,,,577.6746,578.2093,m,1,0.5274,,578.2094,578.2094,,0,279,279,59,1,60,köpek,1044,47.4352,901,0.0985,5,harmonic,1.75,word,m,,,,,,,
,,,,,,,,,,,,001,2023-11-08_23h56.28.002,vowel_harmony,2023.2.3,Win32,143.9884809,578.2097,579.2093,,,,,,,,,,,,,,,,,,,,,,,,,,579.2093,580.0011,z,1,0.785,,580.0011,580.0011,,0,280,280,340,1,341,minya,,,,,5,notharmonic,1.95,nw,z,,,,,,,
,,,,,,,,,,,,001,2023-11-08_23h56.28.002,vowel_harmony,2023.2.3,Win32,143.9884809,580.0013,581.001,,,,,,,,,,,,,,,,,,,,,,,,,,581.0011,581.4246,m,1,0.4173,,581.4246,581.4247,,0,281,281,38,1,39,dönem,2820,128.1296,2437,0.2664,5,harmonic,1.4,word,m,,,,,,,
,,,,,,,,,,,,001,2023-11-08_23h56.28.002,vowel_harmony,2023.2.3,Win32,143.9884809,581.4249,582.4246,,,,,,,,,,,,,,,,,,,,,,,,,,582.4246,582.9107,z,1,0.4821,,582.9108,582.9108,,0,282,282,182,1,183,orsın,,,,,5,harmonic,1.95,nw,z,,,,,,,
,,,,,,,,,,,,001,2023-11-08_23h56.28.002,vowel_harmony,2023.2.3,Win32,143.9884809,582.911,583.9107,,,,,,,,,,,,,,,,,,,,,,,,,,583.9107,584.4801,m,1,0.5643,,584.4801,584.4802,,0,283,283,0,1,1,sanat,3121,141.8059,2485,0.2717,5,harmonic,1.4,word,m,,,,,,,
,,,,,,,,,,,,001,2023-11-08_23h56.28.002,vowel_harmony,2023.2.3,Win32,143.9884809,584.4804,585.4802,,,,,,,,,,,,,,,,,,,,,,,,,,585.4802,585.994,m,1,0.5065,,585.994,585.994,,0,284,284,97,1,98,mevcut,3007,136.6262,2842,0.3107,6,notharmonic,1.95,word,m,,,,,,,
,,,,,,,,,,,,001,2023-11-08_23h56.28.002,vowel_harmony,2023.2.3,Win32,143.9884809,585.9943,586.9939,,,,,,,,,,,,,,,,,,,,,,,,,,586.9939,587.5287,m,1,0.5291,,587.5287,587.5287,,0,285,285,93,1,94,siyah,2944,133.7637,2527,0.2763,5,notharmonic,1.6,word,m,,,,,,,
,,,,,,,,,,,,001,2023-11-08_23h56.28.002,vowel_harmony,2023.2.3,Win32,143.9884809,587.529,588.5287,,,,,,,,,,,,,,,,,,,,,,,,,,588.5287,588.9454,m,1,0.4106,,588.9454,588.9454,,0,286,286,6,1,7,hayal,4498,204.3713,4079,0.4459,5,harmonic,1.45,word,m,,,,,,,
,,,,,,,,,,,,001,2023-11-08_23h56.28.002,vowel_harmony,2023.2.3,Win32,143.9884809,588.9456,589.9453,,,,,,,,,,,,,,,,,,,,,,,,,,589.9453,590.8412,m,1,0.8902,,590.8412,590.8413,,0,287,287,144,1,145,garip,2567,116.6343,2355,0.2574,5,notharmonic,1.65,word,m,,,,,,,
,,,,,,,,,,,,001,2023-11-08_23h56.28.002,vowel_harmony,2023.2.3,Win32,143.9884809,590.8415,591.8412,,,,,,,,,,,,,,,,,,,,,,,,,,591.8412,592.3205,m,1,0.4742,,592.3205,592.3205,,0,288,288,22,1,23,anlam,1730,78.6043,1617,0.1768,5,harmonic,1.25,word,m,,,,,,,
,,,,,,,,,,,,001,2023-11-08_23h56.28.002,vowel_harmony,2023.2.3,Win32,143.9884809,592.3207,593.3203,,,,,,,,,,,,,,,,,,,,,,,,,,593.3203,593.7023,m,1,0.3797,,593.7023,593.7024,,0,289,289,179,1,180,dakika,5891,267.6637,5207,0.5692,6,notharmonic,1.75,word,m,,,,,,,
,,,,,,,,,,,,001,2023-11-08_23h56.28.002,vowel_harmony,2023.2.3,Win32,143.9884809,593.7026,594.7024,,,,,,,,,,,,,,,,,,,,,,,,,,594.7024,595.0355,m,0,0.3251,,595.0355,595.0356,,0,290,290,228,1,229,haytam,,,,,6,harmonic,1.75,nw,z,,,,,,,
,,,,,,,,,,,,001,2023-11-08_23h56.28.002,vowel_harmony,2023.2.3,Win32,143.9884809,595.0358,596.0355,,,,,,,,,,,,,,,,,,,,,,,,,,596.0355,596.7787,z,1,0.7367,,596.7787,596.7788,,0,291,291,317,1,318,mevul,,,,,5,notharmonic,1.95,nw,z,,,,,,,
,,,,,,,,,,,,001,2023-11-08_23h56.28.002,vowel_harmony,2023.2.3,Win32,143.9884809,596.779,597.7786,,,,,,,,,,,,,,,,,,,,,,,,,,597.7786,598.6398,z,1,0.8579,,598.6399,598.6399,,0,292,292,183,1,184,orkın,,,,,5,harmonic,1.9,nw,z,,,,,,,
,,,,,,,,,,,,001,2023-11-08_23h56.28.002,vowel_harmony,2023.2.3,Win32,143.9884809,598.6401,599.6396,,,,,,,,,,,,,,,,,,,,,,,,,,599.6396,600.1327,m,1,0.4852,,600.1327,600.1328,,0,293,293,66,1,67,sanık,768,34.8949,699,0.0764,5,harmonic,1.85,word,m,,,,,,,
,,,,,,,,,,,,001,2023-11-08_23h56.28.002,vowel_harmony,2023.2.3,Win32,143.9884809,600.1329,601.1327,,,,,,,,,,,,,,,,,,,,,,,,,,601.1327,601.973,m,1,0.8322,,601.973,601.973,,0,294,294,106,1,107,esnaf,315,14.3124,284,0.031,5,notharmonic,1.55,word,m,,,,,,,
,,,,,,,,,,,,001,2023-11-08_23h56.28.002,vowel_harmony,2023.2.3,Win32,143.9884809,601.9733,602.9729,,,,,,,,,,,,,,,,,,,,,,,,,,602.973,603.6535,z,1,0.6725,,603.6535,603.6535,,0,295,295,275,1,276,tahçe,,,,,5,notharmonic,1.95,nw,z,,,,,,,
,,,,,,,,,,,,001,2023-11-08_23h56.28.002,vowel_harmony,2023.2.3,Win32,143.9884809,603.6537,604.6536,,,,,,,,,,,,,,,,,,,,,,,,,,604.6536,605.6813,m,1,1.0236,,605.6813,605.6813,,0,296,296,49,1,50,şeker,4708,213.9128,4170,0.4559,5,harmonic,1.6,word,m,,,,,,,
,,,,,,,,,,,,001,2023-11-08_23h56.28.002,vowel_harmony,2023.2.3,Win32,143.9884809,605.6815,606.6812,,,,,,,,,,,,,,,,,,,,,,,,,,606.6812,607.4243,m,1,0.7401,,607.4243,607.4243,,0,297,297,34,1,35,hoca,1893,86.0104,1526,0.1668,4,harmonic,1.45,word,m,,,,,,,
,,,,,,,,,,,,001,2023-11-08_23h56.28.002,vowel_harmony,2023.2.3,Win32,143.9884809,607.4245,608.4243,,,,,,,,,,,,,,,,,,,,,,,,,,608.4243,609.5076,z,1,1.0771,,609.5076,609.5076,,0,298,298,298,1,299,yelsın,,,,,6,notharmonic,1.95,nw,z,,,,,,,
,,,,,,,,,,,,001,2023-11-08_23h56.28.002,vowel_harmony,2023.2.3,Win32,143.9884809,609.5078,610.5075,,,,,,,,,,,,,,,,,,,,,,,,,,610.5076,611.091,m,1,0.5781,,611.091,611.0911,,0,299,299,163,1,164,limon,1658,75.3329,1481,0.1619,5,notharmonic,1.75,word,m,,,,,,,
,,,,,,,,,,,,001,2023-11-08_23h56.28.002,vowel_harmony,2023.2.3,Win32,143.9884809,611.0913,612.0909,,,,,,,,,,,,,,,,,,,,,,,,,,612.0909,612.7784,z,1,0.6829,,612.7785,612.7785,,0,300,300,359,1,360,kardez,,,,,6,notharmonic,1.95,nw,z,,,,,,,
,,,,,,,,,,,,001,2023-11-08_23h56.28.002,vowel_harmony,2023.2.3,Win32,143.9884809,612.7786,613.7784,,,,,,,,,,,,,,,,,,,,,,,,,,613.7785,614.5978,z,1,0.8112,,614.5978,614.5979,,0,301,301,209,1,210,sapor,,,,,5,harmonic,1.8,nw,z,,,,,,,
,,,,,,,,,,,,001,2023-11-08_23h56.28.002,vowel_harmony,2023.2.3,Win32,143.9884809,614.598,615.5978,,,,,,,,,,,,,,,,,,,,,,,,,,615.5978,616.1256,m,1,0.5205,,616.1256,616.1256,,0,302,302,140,1,141,sahil,481,21.8547,443,0.0484,5,notharmonic,1.45,word,m,,,,,,,
,,,,,,,,,,,,001,2023-11-08_23h56.28.002,vowel_harmony,2023.2.3,Win32,143.9884809,616.1258,617.1256,,,,,,,,,,,,,,,,,,,,,,,,,,617.1256,617.7297,z,1,0.6004,,617.7297,617.7298,,0,303,303,258,1,259,karıha,,,,,6,harmonic,1.75,nw,z,,,,,,,
,,,,,,,,,,,,001,2023-11-08_23h56.28.002,vowel_harmony,2023.2.3,Win32,143.9884809,617.7299,618.7297,,,,,,,,,,,,,,,,,,,,,,,,,,618.7298,619.0422,m,1,0.3086,,619.0422,619.0423,,0,304,304,121,1,122,mesaj,1604,72.8794,1386,0.1515,5,notharmonic,1.8,word,m,,,,,,,
,,,,,,,,,,,,001,2023-11-08_23h56.28.002,vowel_harmony,2023.2.3,Win32,143.9884809,619.0424,620.0423,,,,,,,,,,,,,,,,,,,,,,,,,,620.0423,621.1117,m,1,1.0615,,621.1117,621.1118,,0,305,305,165,1,166,gazete,1402,63.7013,1270,0.1388,6,notharmonic,1.8,word,m,,,,,,,
,,,,,,,,,,,,001,2023-11-08_23h56.28.002,vowel_harmony,2023.2.3,Win32,143.9884809,621.112,622.1116,,,,,,,,,,,,,,,,,,,,,,,,,,622.1116,622.6602,z,1,0.5433,,622.6602,622.6603,,0,306,306,318,1,319,yorgün,,,,,6,notharmonic,1.9,nw,z,,,,,,,
,,,,,,,,,,,,001,2023-11-08_23h56.28.002,vowel_harmony,2023.2.3,Win32,143.9884809,622.6605,623.6601,,,,,,,,,,,,,,,,,,,,,,,,,,623.6601,624.1949,m,1,0.5309,,624.1949,624.195,,0,307,307,126,1,127,adet,4367,198.4192,3768,0.4119,4,notharmonic,1.4,word,m,,,,,,,
,,,,,,,,,,,,001,2023-11-08_23h56.28.002,vowel_harmony,2023.2.3,Win32,143.9884809,624.1952,625.1949,,,,,,,,,,,,,,,,,,,,,,,,,,625.1949,625.7783,z,1,0.5802,,625.7783,625.7783,,0,308,308,218,1,219,tezöl,,,,,5,harmonic,2,nw,z,,,,,,,
,,,,,,,,,,,,001,2023-11-08_23h56.28.002,vowel_harmony,2023.2.3,Win32,143.9884809,625.7786,626.7782,,,,,,,,,,,,,,,,,,,,,,,,,,626.7782,627.4032,z,1,0.6212,,627.4032,627.4033,,0,309,309,350,1,351,resun,,,,,5,notharmonic,1.85,nw,z,,,,,,,
,,,,,,,,,,,,001,2023-11-08_23h56.28.002,vowel_harmony,2023.2.3,Win32,143.9884809,627.4034,628.4032,,,,,,,,,,,,,,,,,,,,,,,,,,628.4032,629.0907,z,1,0.6843,,629.0907,629.0908,,0,310,310,238,1,239,kocı,,,,,4,harmonic,1.95,nw,z,,,,,,,
,,,,,,,,,,,,001,2023-11-08_23h56.28.002,vowel_harmony,2023.2.3,Win32,143.9884809,629.091,630.0906,,,,,,,,,,,,,,,,,,,,,,,,,,630.0906,630.7435,m,1,0.6451,,630.7435,630.7435,,0,311,311,79,1,80,durum,6783,308.1926,6431,0.703,5,harmonic,1.7,word,m,,,,,,,
,,,,,,,,,,,,001,2023-11-08_23h56.28.002,vowel_harmony,2023.2.3,Win32,143.9884809,630.7437,631.7433,,,,,,,,,,,,,,,,,,,,,,,,,,631.7434,632.2645,z,1,0.5131,,632.2645,632.2645,,0,312,312,215,1,216,aydo,,,,,4,harmonic,1.9,nw,z,,,,,,,
,,,,,,,,,,,,001,2023-11-08_23h56.28.002,vowel_harmony,2023.2.3,Win32,143.9884809,632.2647,633.2642,,,,,,,,,,,,,,,,,,,,,,,,,,633.2643,633.7851,m,1,0.513,,633.7851,633.7851,,0,313,313,46,1,47,takım,4370,198.5555,3726,0.4073,5,harmonic,1.7,word,m,,,,,,,
,,,,,,,,,,,,001,2023-11-08_23h56.28.002,vowel_harmony,2023.2.3,Win32,143.9884809,633.7853,634.785,,,,,,,,,,,,,,,,,,,,,,,,,,634.785,635.2712,z,1,0.4793,,635.2712,635.2713,,0,314,314,224,1,225,ertre,,,,,5,harmonic,1.95,nw,z,,,,,,,
,,,,,,,,,,,,001,2023-11-08_23h56.28.002,vowel_harmony,2023.2.3,Win32,143.9884809,635.2715,636.2711,,,,,,,,,,,,,,,,,,,,,,,,,,636.2711,637.0281,m,1,0.7534,,637.0281,637.0282,,0,315,315,26,1,27,sebze,1094,49.707,961,0.1051,5,harmonic,1.9,word,m,,,,,,,
,,,,,,,,,,,,001,2023-11-08_23h56.28.002,vowel_harmony,2023.2.3,Win32,143.9884809,637.0284,638.0281,,,,,,,,,,,,,,,,,,,,,,,,,,638.0281,639.0212,m,1,0.9886,,639.0212,639.0212,,0,316,316,78,1,79,ulusal,1551,70.4713,1355,0.1481,6,harmonic,1.75,word,m,,,,,,,
,,,,,,,,,,,,001,2023-11-08_23h56.28.002,vowel_harmony,2023.2.3,Win32,143.9884809,639.0214,640.0211,,,,,,,,,,,,,,,,,,,,,,,,,,640.0211,640.8128,m,1,0.7875,,640.8128,640.8128,,0,317,317,73,1,74,millet,1658,75.3329,1508,0.1649,6,harmonic,1.7,word,m,,,,,,,
,,,,,,,,,,,,001,2023-11-08_23h56.28.002,vowel_harmony,2023.2.3,Win32,143.9884809,640.813,641.8128,,,,,,,,,,,,,,,,,,,,,,,,,,641.8128,642.2779,m,1,0.4601,,642.278,642.2781,,0,318,318,28,1,29,parlak,1142,51.888,1088,0.1189,6,harmonic,1.7,word,m,,,,,,,
,,,,,,,,,,,,001,2023-11-08_23h56.28.002,vowel_harmony,2023.2.3,Win32,143.9884809,642.2782,643.2779,,,,,,,,,,,,,,,,,,,,,,,,,,643.2779,643.8544,z,1,0.5711,,643.8544,643.8544,,0,319,319,248,1,249,şegim,,,,,5,harmonic,1.9,nw,z,,,,,,,
,,,,,,,,,,,,001,2023-11-08_23h56.28.002,vowel_harmony,2023.2.3,Win32,143.9884809,643.8546,644.8543,,,,,,,,,,,,,,,,,,,,,,,,,,644.8543,645.6182,z,1,0.7557,,645.6182,645.6183,,0,320,320,303,1,304,fisor,,,,,5,notharmonic,1.9,nw,z,,,,,,,
,,,,,,,,,,,,001,2023-11-08_23h56.28.002,vowel_harmony,2023.2.3,Win32,143.9884809,645.6185,646.6182,,,,,,,,,,,,,,,,,,,,,,,,,,646.6183,647.2015,m,1,0.5753,,647.2016,647.2016,,0,321,321,85,1,86,geçmiş,4195,190.6042,4039,0.4415,6,harmonic,1.55,word,m,,,,,,,
,,,,,,,,,,,,001,2023-11-08_23h56.28.002,vowel_harmony,2023.2.3,Win32,143.9884809,647.2017,648.2015,,,,,,,,,,,,,,,,,,,,,,,,,,648.2015,649.0696,z,1,0.8641,,649.0696,649.0696,,0,322,322,310,1,311,yandeş,,,,,6,notharmonic,1.95,nw,z,,,,,,,
,,,,,,,,,,,,001,2023-11-08_23h56.28.002,vowel_harmony,2023.2.3,Win32,143.9884809,649.0698,650.0696,,,,,,,,,,,,,,,,,,,,,,,,,,650.0696,650.6043,m,1,0.5321,,650.6043,650.6043,,0,323,323,64,1,65,lise,888,40.3472,816,0.0892,4,harmonic,1.5,word,m,,,,,,,
,,,,,,,,,,,,001,2023-11-08_23h56.28.002,vowel_harmony,2023.2.3,Win32,143.9884809,650.6045,651.6042,,,,,,,,,,,,,,,,,,,,,,,,,,651.6042,652.146,m,1,0.5339,,652.146,652.1461,,0,324,324,2,1,3,radyo,763,34.6677,636,0.0695,5,harmonic,1.85,word,m,,,,,,,
,,,,,,,,,,,,001,2023-11-08_23h56.28.002,vowel_harmony,2023.2.3,Win32,143.9884809,652.1463,653.1459,,,,,,,,,,,,,,,,,,,,,,,,,,653.146,653.6389,m,1,0.4884,,653.639,653.6391,,0,325,325,47,1,48,kaza,740,33.6227,679,0.0742,4,harmonic,1.85,word,m,,,,,,,
,,,,,,,,,,,,001,2023-11-08_23h56.28.002,vowel_harmony,2023.2.3,Win32,143.9884809,653.6392,654.639,,,,,,,,,,,,,,,,,,,,,,,,,,654.639,655.2153,z,1,0.5713,,655.2153,655.2153,,0,326,326,324,1,325,pakeh,,,,,5,notharmonic,1.9,nw,z,,,,,,,
,,,,,,,,,,,,001,2023-11-08_23h56.28.002,vowel_harmony,2023.2.3,Win32,143.9884809,655.2155,656.2153,,,,,,,,,,,,,,,,,,,,,,,,,,656.2153,656.7015,m,1,0.4834,,656.7015,656.7015,,0,327,327,103,1,104,tane,5623,255.4868,5075,0.5548,4,notharmonic,1.3,word,m,,,,,,,
,,,,,,,,,,,,001,2023-11-08_23h56.28.002,vowel_harmony,2023.2.3,Win32,143.9884809,656.7017,657.7014,,,,,,,,,,,,,,,,,,,,,,,,,,657.7014,658.6181,m,1,0.909,,658.6181,658.6181,,0,328,328,44,1,45,kayıt,1234,56.0681,1058,0.1157,5,harmonic,1.35,word,m,,,,,,,
,,,,,,,,,,,,001,2023-11-08_23h56.28.002,vowel_harmony,2023.2.3,Win32,143.9884809,658.6183,659.618,,,,,,,,,,,,,,,,,,,,,,,,,,659.618,660.4376,z,1,0.8169,,660.4376,660.4377,,0,329,329,352,1,353,yılden,,,,,6,notharmonic,1.8,nw,z,,,,,,,
,,,,,,,,,,,,001,2023-11-08_23h56.28.002,vowel_harmony,2023.2.3,Win32,143.9884809,660.4379,661.4374,,,,,,,,,,,,,,,,,,,,,,,,,,661.4374,662,m,1,0.5575,,662.0001,662.0001,,0,330,330,65,1,66,fikir,2552,115.9528,2413,0.2638,5,harmonic,1.9,word,m,,,,,,,
,,,,,,,,,,,,001,2023-11-08_23h56.28.002,vowel_harmony,2023.2.3,Win32,143.9884809,662.0003,662.9999,,,,,,,,,,,,,,,,,,,,,,,,,,662.9999,663.6111,m,1,0.6038,,663.6112,663.6112,,0,331,331,5,1,6,bebek,3301,149.9843,2794,0.3054,5,harmonic,1.6,word,m,,,,,,,
,,,,,,,,,,,,001,2023-11-08_23h56.28.002,vowel_harmony,2023.2.3,Win32,143.9884809,663.6115,664.6111,,,,,,,,,,,,,,,,,,,,,,,,,,664.6111,665.0763,m,1,0.4565,,665.0764,665.0764,,0,332,332,155,1,156,ilaç,1366,62.0656,1215,0.1328,4,notharmonic,1.75,word,m,,,,,,,
,,,,,,,,,,,,001,2023-11-08_23h56.28.002,vowel_harmony,2023.2.3,Win32,143.9884809,665.0765,666.0762,,,,,,,,,,,,,,,,,,,,,,,,,,666.0762,666.4651,m,0,0.3833,,666.4651,666.4653,,0,333,333,330,1,331,vahçe,,,,,5,notharmonic,1.9,nw,z,,,,,,,
,,,,,,,,,,,,001,2023-11-08_23h56.28.002,vowel_harmony,2023.2.3,Win32,143.9884809,666.4654,667.4651,,,,,,,,,,,,,,,,,,,,,,,,,,667.4651,668.1666,z,1,0.6988,,668.1666,668.1666,,0,334,334,311,1,312,dedya,,,,,5,notharmonic,1.9,nw,z,,,,,,,
,,,,,,,,,,,,001,2023-11-08_23h56.28.002,vowel_harmony,2023.2.3,Win32,143.9884809,668.1667,669.1665,,,,,,,,,,,,,,,,,,,,,,,,,,669.1665,669.7429,z,1,0.5734,,669.743,669.743,,0,335,335,308,1,309,hafer,,,,,5,notharmonic,1.85,nw,z,,,,,,,
,,,,,,,,,,,,001,2023-11-08_23h56.28.002,vowel_harmony,2023.2.3,Win32,143.9884809,669.7432,670.7429,,,,,,,,,,,,,,,,,,,,,,,,,,670.7429,671.3679,m,1,0.6215,,671.3679,671.3679,,0,336,336,33,1,34,moda,1381,62.7472,1231,0.1346,4,harmonic,1.55,word,m,,,,,,,
,,,,,,,,,,,,001,2023-11-08_23h56.28.002,vowel_harmony,2023.2.3,Win32,143.9884809,671.3682,672.3679,,,,,,,,,,,,,,,,,,,,,,,,,,672.3679,672.9998,m,1,0.6283,,672.9998,672.9998,,0,337,337,48,1,49,teşvik,932,42.3464,867,0.0948,6,harmonic,1.8,word,m,,,,,,,
,,,,,,,,,,,,001,2023-11-08_23h56.28.002,vowel_harmony,2023.2.3,Win32,143.9884809,673,673.9998,,,,,,,,,,,,,,,,,,,,,,,,,,673.9998,674.5622,z,1,0.5565,,674.5623,674.5624,,0,338,338,249,1,250,hurıt,,,,,5,harmonic,1.95,nw,z,,,,,,,
,,,,,,,,,,,,001,2023-11-08_23h56.28.002,vowel_harmony,2023.2.3,Win32,143.9884809,674.5625,675.5622,,,,,,,,,,,,,,,,,,,,,,,,,,675.5622,676.0553,m,1,0.4904,,676.0554,676.0554,,0,339,339,177,1,178,tekrar,10788,490.1639,9352,1.0224,6,notharmonic,1.85,word,m,,,,,,,
,,,,,,,,,,,,001,2023-11-08_23h56.28.002,vowel_harmony,2023.2.3,Win32,143.9884809,676.0555,677.0553,,,,,,,,,,,,,,,,,,,,,,,,,,677.0553,677.7359,z,1,0.6774,,677.7359,677.7359,,0,340,340,247,1,248,hafgın,,,,,6,harmonic,2,nw,z,,,,,,,
,,,,,,,,,,,,001,2023-11-08_23h56.28.002,vowel_harmony,2023.2.3,Win32,143.9884809,677.7361,678.7358,,,,,,,,,,,,,,,,,,,,,,,,,,678.7358,679.3817,z,1,0.6377,,679.3817,679.3817,,0,341,341,268,1,269,haldum,,,,,6,harmonic,2,nw,z,,,,,,,
,,,,,,,,,,,,001,2023-11-08_23h56.28.002,vowel_harmony,2023.2.3,Win32,143.9884809,679.3819,680.3818,,,,,,,,,,,,,,,,,,,,,,,,,,680.3818,681.1039,z,1,0.7192,,681.1039,681.1039,,0,342,342,347,1,348,tekram,,,,,6,notharmonic,1.95,nw,z,,,,,,,
,,,,,,,,,,,,001,2023-11-08_23h56.28.002,vowel_harmony,2023.2.3,Win32,143.9884809,681.104,682.1039,,,,,,,,,,,,,,,,,,,,,,,,,,682.1039,682.6247,m,1,0.5175,,682.6247,682.6248,,0,343,343,104,1,105,cevap,5232,237.7213,4822,0.5271,5,notharmonic,1.85,word,m,,,,,,,
,,,,,,,,,,,,001,2023-11-08_23h56.28.002,vowel_harmony,2023.2.3,Win32,143.9884809,682.6249,683.6246,,,,,,,,,,,,,,,,,,,,,,,,,,683.6246,684.2426,z,1,0.6126,,684.2427,684.2427,,0,344,344,355,1,356,adül,,,,,4,notharmonic,1.85,nw,z,,,,,,,
,,,,,,,,,,,,001,2023-11-08_23h56.28.002,vowel_harmony,2023.2.3,Win32,143.9884809,684.2429,685.2427,,,,,,,,,,,,,,,,,,,,,,,,,,685.2427,686.1664,z,1,0.9156,,686.1664,686.1664,,0,345,345,242,1,243,kahon,,,,,5,harmonic,1.85,nw,z,,,,,,,
,,,,,,,,,,,,001,2023-11-08_23h56.28.002,vowel_harmony,2023.2.3,Win32,143.9884809,686.1666,687.1664,,,,,,,,,,,,,,,,,,,,,,,,,,687.1664,687.9649,z,1,0.7916,,687.9649,687.965,,0,346,346,257,1,258,zerü,,,,,4,harmonic,1.8,nw,z,,,,,,,
,,,,,,,,,,,,001,2023-11-08_23h56.28.002,vowel_harmony,2023.2.3,Win32,143.9884809,687.9652,688.9649,,,,,,,,,,,,,,,,,,,,,,,,,,688.9649,690.1316,z,1,1.161,,690.1316,690.1317,,0,347,347,192,1,193,vecö,,,,,4,harmonic,1.95,nw,z,,,,,,,
,,,,,,,,,,,,001,2023-11-08_23h56.28.002,vowel_harmony,2023.2.3,Win32,143.9884809,690.1319,691.1315,,,,,,,,,,,,,,,,,,,,,,,,,,691.1316,691.7982,z,1,0.6586,,691.7982,691.7982,,0,348,348,335,1,336,lilo,,,,,4,notharmonic,1.8,nw,z,,,,,,,
,,,,,,,,,,,,001,2023-11-08_23h56.28.002,vowel_harmony,2023.2.3,Win32,143.9884809,691.7984,692.7981,,,,,,,,,,,,,,,,,,,,,,,,,,692.7981,693.3329,m,1,0.5283,,693.3329,693.333,,0,349,349,141,1,142,madde,3793,172.3389,3389,0.3705,5,notharmonic,1.7,word,m,,,,,,,
,,,,,,,,,,,,001,2023-11-08_23h56.28.002,vowel_harmony,2023.2.3,Win32,143.9884809,693.3332,694.3329,,,,,,,,,,,,,,,,,,,,,,,,,,694.3329,694.8468,m,1,0.5059,,694.8468,694.8468,,0,350,350,3,1,4,minik,2916,132.4915,2594,0.2836,5,harmonic,1.6,word,m,,,,,,,
,,,,,,,,,,,,001,2023-11-08_23h56.28.002,vowel_harmony,2023.2.3,Win32,143.9884809,694.847,695.8467,,,,,,,,,,,,,,,,,,,,,,,,,,695.8467,696.4925,z,1,0.6401,,696.4925,696.4926,,0,351,351,315,1,316,takep,,,,,5,notharmonic,1.85,nw,z,,,,,,,
,,,,,,,,,,,,001,2023-11-08_23h56.28.002,vowel_harmony,2023.2.3,Win32,143.9884809,696.4928,697.4925,,,,,,,,,,,,,,,,,,,,,,,,,,697.4926,697.9856,m,1,0.4902,,697.9856,697.9856,,0,352,352,110,1,111,rüya,1062,48.2531,937,0.1024,4,notharmonic,1.75,word,m,,,,,,,
,,,,,,,,,,,,001,2023-11-08_23h56.28.002,vowel_harmony,2023.2.3,Win32,143.9884809,697.9858,698.9856,,,,,,,,,,,,,,,,,,,,,,,,,,698.9856,699.8952,m,1,0.9022,,699.8953,699.8953,,0,353,353,122,1,123,devam,17666,802.673,16284,1.7802,5,notharmonic,1.55,word,m,,,,,,,
,,,,,,,,,,,,001,2023-11-08_23h56.28.002,vowel_harmony,2023.2.3,Win32,143.9884809,699.8955,700.8953,,,,,,,,,,,,,,,,,,,,,,,,,,700.8953,701.555,m,1,0.6553,,701.555,701.555,,0,354,354,137,1,138,parti,2613,118.7244,2059,0.2251,5,notharmonic,1.8,word,m,,,,,,,
,,,,,,,,,,,,001,2023-11-08_23h56.28.002,vowel_harmony,2023.2.3,Win32,143.9884809,701.5552,702.5549,,,,,,,,,,,,,,,,,,,,,,,,,,702.5549,702.9716,m,1,0.4125,,702.9717,702.9717,,0,355,355,150,1,151,sabit,1046,47.5261,915,0.1,5,notharmonic,1.75,word,m,,,,,,,
,,,,,,,,,,,,001,2023-11-08_23h56.28.002,vowel_harmony,2023.2.3,Win32,143.9884809,702.9719,703.9717,,,,,,,,,,,,,,,,,,,,,,,,,,703.9717,704.6314,z,1,0.6521,,704.6314,704.6314,,0,356,356,265,1,266,parula,,,,,6,harmonic,1.75,nw,z,,,,,,,
,,,,,,,,,,,,001,2023-11-08_23h56.28.002,vowel_harmony,2023.2.3,Win32,143.9884809,704.6315,705.6313,,,,,,,,,,,,,,,,,,,,,,,,,,705.6313,706.4508,z,1,0.8164,,706.4508,706.4508,,0,357,357,316,1,317,misaf,,,,,5,notharmonic,1.85,nw,z,,,,,,,
,,,,,,,,,,,,001,2023-11-08_23h56.28.002,vowel_harmony,2023.2.3,Win32,143.9884809,706.451,707.4507,,,,,,,,,,,,,,,,,,,,,,,,,,707.4507,708.0619,m,1,0.6051,,708.0619,708.0619,,0,358,358,74,1,75,başarı,1398,63.5196,1300,0.1421,6,harmonic,1.2,word,m,,,,,,,
,,,,,,,,,,,,001,2023-11-08_23h56.28.002,vowel_harmony,2023.2.3,Win32,143.9884809,708.0621,709.0619,,,,,,,,,,,,,,,,,,,,,,,,,,709.0619,709.659,z,1,0.5943,,709.659,709.6591,,0,359,359,358,1,359,yangin,,,,,6,notharmonic,1.9,nw,z,,,,,,,
,,,,,,,,,,,,001,2023-11-08_23h56.28.002,vowel_harmony,2023.2.3,Win32,143.9884809,,,,,,,,,,,,,,,,,,,,,,,,,,,,,,,,,,,,,,,,,,,,,,,,,,,,,,,709.6594,711.5133,space,1.8451,