Welcome_screen.started,Welcome_screen.stopped,key_respwelcome.keys,key_respwelcome.rt,key_respwelcome.duration,intro_x.thisRepN,intro_x.thisTrialN,intro_x.thisN,intro_x.thisIndex,intro_x.ran,Introduction,participant,session,date,expName,psychopyVersion,OS,frameRate,Fixation.started,Fixation.stopped,Studypractice.started,Studypractice.stopped,key_respstudy.keys,key_respstudy.corr,key_respstudy.rt,key_respstudy.duration,rt,corr,Feedback.started,Feedback.stopped,practice_loop.thisRepN,practice_loop.thisTrialN,practice_loop.thisN,practice_loop.thisIndex,practice_loop.ran,item_nr_p,target_p,isHarmonic_p,target_cond_p,CorrAns_p,Instraction.started,Instraction.stopped,key_respınstraction.keys,key_respınstraction.rt,key_respınstraction.duration,TestTrial.started,TestTrial.stopped,key_respTest.keys,key_respTest.corr,key_respTest.rt,key_respTest.duration,Pause.started,Pause.stopped,key_resp_xx.keys,test_loop.thisRepN,test_loop.thisTrialN,test_loop.thisN,test_loop.thisIndex,test_loop.ran,item_nr,target,BlogFreq_A1,BlogFreqpm_A1,BlogCD_A1,BlogCDPc_A1,WordLength_A1,isHarmonic_A1,old20,target_cond,CorrAns,key_resp_xx.rt,key_resp_xx.duration,Goodbye_screen.started,Goodbye_screen.stopped,key_respgoodbye.keys,key_respgoodbye.rt,key_respgoodbye.duration
0.033,5.103,space,5.029,,0,0,0,0,1,"Deneye hoş geldiniz,

Devam etmek için BOŞLUK tuşuna basınız.",,001,2023-11-07_21h51.41.979,vowel_harmony,2023.2.3,MacIntel,100,,,,,,,,,,,,,,,,,,,,,,,,,,,,,,,,,,,,,,,,,,,,,,,,,,,,,,,,,,,
5.104,16.702,space,11.534,,0,1,1,1,1,"Bu çalışma Valencia Üniversitesi kapsamında yürütülmektedir. Deneydeki göreviniz, ekrana çıkacak Türkçe sözcüklerin kelime olup olmadığını belirlemenizdir. Eğer sözcük gerçek bir kelime ise ""m"" tuşuna, değil ise ""z"" tuşuna basınız.   

Devam etmek için BOŞLUK tuşuna basınız.",,001,2023-11-07_21h51.41.979,vowel_harmony,2023.2.3,MacIntel,100,,,,,,,,,,,,,,,,,,,,,,,,,,,,,,,,,,,,,,,,,,,,,,,,,,,,,,,,,,,
16.703,27.403,space,10.651,,0,2,2,2,1,"Her sözcük için en fazla iki saniyede cevap vermeniz beklenmektedir. Aksi takdirde deney bir sonraki sözcük ile devam eder. 
Bu çalışmada oldukça hızlı ve doğru cevaplama yapmanız beklenmektedir.

Devam etmek için BOŞLUK tuşuna basınız.",,001,2023-11-07_21h51.41.979,vowel_harmony,2023.2.3,MacIntel,100,,,,,,,,,,,,,,,,,,,,,,,,,,,,,,,,,,,,,,,,,,,,,,,,,,,,,,,,,,,
27.403,39.036,space,11.58,,0,3,3,3,1,"Çalışmaya başlamadan önce ufak bir pratik yer almaktadır.
Kelimedir: ""m""
Kelime değildir: ""z""

Pratik teste başlamak için BOŞLUK tuşuna basınız. ",,001,2023-11-07_21h51.41.979,vowel_harmony,2023.2.3,MacIntel,100,,,,,,,,,,,,,,,,,,,,,,,,,,,,,,,,,,,,,,,,,,,,,,,,,,,,,,,,,,,
,,,,,,,,,,,,001,2023-11-07_21h51.41.979,vowel_harmony,2023.2.3,MacIntel,100,39.056,40.053,40.054,41.336,z,1,1.239,,1.239,1,41.336,42.827,0,0,0,14,1,15,pimer,harmonic,nw,z,,,,,,,,,,,,,,,,,,,,,,,,,,,,,,,,,,,,,
,,,,,,,,,,,,001,2023-11-07_21h51.41.979,vowel_harmony,2023.2.3,MacIntel,100,42.827,43.819,43.819,44.903,m,1,1.058,,1.058,1,44.903,46.402,0,1,1,4,1,5,mimar,notharmonic,word,m,,,,,,,,,,,,,,,,,,,,,,,,,,,,,,,,,,,,,
,,,,,,,,,,,,001,2023-11-07_21h51.41.979,vowel_harmony,2023.2.3,MacIntel,100,46.403,47.402,47.402,48.136,m,1,0.712,,0.712,1,48.136,49.636,0,2,2,1,1,2,veri,harmonic,word,m,,,,,,,,,,,,,,,,,,,,,,,,,,,,,,,,,,,,,
,,,,,,,,,,,,001,2023-11-07_21h51.41.979,vowel_harmony,2023.2.3,MacIntel,100,49.636,50.636,50.636,51.386,z,1,0.727,,0.727,1,51.386,52.885,0,3,3,11,1,12,geki,harmonic,nw,z,,,,,,,,,,,,,,,,,,,,,,,,,,,,,,,,,,,,,
,,,,,,,,,,,,001,2023-11-07_21h51.41.979,vowel_harmony,2023.2.3,MacIntel,100,52.885,53.885,53.885,54.636,z,1,0.728,,0.728,1,54.636,56.136,0,4,4,12,1,13,ihlot,notharmonic,nw,z,,,,,,,,,,,,,,,,,,,,,,,,,,,,,,,,,,,,,
,,,,,,,,,,,,001,2023-11-07_21h51.41.979,vowel_harmony,2023.2.3,MacIntel,100,56.136,57.136,57.136,57.851,m,1,0.692,,0.692,1,57.852,59.352,0,5,5,0,1,1,ihale,notharmonic,word,m,,,,,,,,,,,,,,,,,,,,,,,,,,,,,,,,,,,,,
,,,,,,,,,,,,001,2023-11-07_21h51.41.979,vowel_harmony,2023.2.3,MacIntel,100,59.352,60.351,60.352,61.085,z,1,0.711,,0.711,1,61.085,62.586,0,6,6,13,1,14,pilar,notharmonic,nw,z,,,,,,,,,,,,,,,,,,,,,,,,,,,,,,,,,,,,,
,,,,,,,,,,,,001,2023-11-07_21h51.41.979,vowel_harmony,2023.2.3,MacIntel,100,62.586,63.586,63.586,64.386,z,1,0.776,,0.776,1,64.386,65.885,0,7,7,10,1,11,mahne,notharmonic,nw,z,,,,,,,,,,,,,,,,,,,,,,,,,,,,,,,,,,,,,
,,,,,,,,,,,,001,2023-11-07_21h51.41.979,vowel_harmony,2023.2.3,MacIntel,100,65.885,66.885,66.885,67.535,m,0,0.626,,0.626,0,67.536,69.036,0,8,8,8,1,9,tahip,notharmonic,nw,z,,,,,,,,,,,,,,,,,,,,,,,,,,,,,,,,,,,,,
,,,,,,,,,,,,001,2023-11-07_21h51.41.979,vowel_harmony,2023.2.3,MacIntel,100,69.036,70.035,70.035,70.602,m,1,0.545,,0.545,1,70.602,72.102,0,9,9,6,1,7,pilot,notharmonic,word,m,,,,,,,,,,,,,,,,,,,,,,,,,,,,,,,,,,,,,
,,,,,,,,,,,,001,2023-11-07_21h51.41.979,vowel_harmony,2023.2.3,MacIntel,100,72.103,73.102,73.103,73.835,z,1,0.71,,0.71,1,73.835,75.335,0,10,10,9,1,10,orat,harmonic,nw,z,,,,,,,,,,,,,,,,,,,,,,,,,,,,,,,,,,,,,
,,,,,,,,,,,,001,2023-11-07_21h51.41.979,vowel_harmony,2023.2.3,MacIntel,100,75.336,76.335,76.335,77.069,m,1,0.71,,0.71,1,77.069,78.569,0,11,11,5,1,6,bahçe,notharmonic,word,m,,,,,,,,,,,,,,,,,,,,,,,,,,,,,,,,,,,,,
,,,,,,,,,,,,001,2023-11-07_21h51.41.979,vowel_harmony,2023.2.3,MacIntel,100,78.569,79.569,79.569,80.168,m,1,0.575,,0.575,1,80.168,81.656,0,12,12,2,1,3,memur,notharmonic,word,m,,,,,,,,,,,,,,,,,,,,,,,,,,,,,,,,,,,,,
,,,,,,,,,,,,001,2023-11-07_21h51.41.979,vowel_harmony,2023.2.3,MacIntel,100,81.656,82.652,82.652,83.369,m,1,0.691,,0.691,1,83.369,84.868,0,13,13,7,1,8,oran,harmonic,word,m,,,,,,,,,,,,,,,,,,,,,,,,,,,,,,,,,,,,,
,,,,,,,,,,,,001,2023-11-07_21h51.41.979,vowel_harmony,2023.2.3,MacIntel,100,84.869,85.868,85.868,86.618,z,1,0.726,,0.726,1,86.618,88.119,0,14,14,15,1,16,mımal,harmonic,nw,z,,,,,,,,,,,,,,,,,,,,,,,,,,,,,,,,,,,,,
,,,,,,,,,,,,001,2023-11-07_21h51.41.979,vowel_harmony,2023.2.3,MacIntel,100,88.119,89.119,89.119,89.751,m,1,0.614,,0.614,1,89.751,91.252,0,15,15,3,1,4,ihlal,notharmonic,word,m,,,,,,,,,,,,,,,,,,,,,,,,,,,,,,,,,,,,,
,,,,,,,,,,,,001,2023-11-07_21h51.41.979,vowel_harmony,2023.2.3,MacIntel,100,,,,,,,,,,,,,,,,,,,,,,,91.253,103.902,space,12.603,,,,,,,,,,,,,,,,,,,,,,,,,,,,,,,,,
,,,,,,,,,,,,001,2023-11-07_21h51.41.979,vowel_harmony,2023.2.3,MacIntel,100,103.967,104.919,,,,,,,,,,,,,,,,,,,,,,,,,,104.92,105.657,z,1,0.699,,105.658,105.664,,0,0,0,302,1,303,işgar,,,,,5,notharmonic,1.9,nw,z,,,,,,,
,,,,,,,,,,,,001,2023-11-07_21h51.41.979,vowel_harmony,2023.2.3,MacIntel,100,105.664,106.656,,,,,,,,,,,,,,,,,,,,,,,,,,106.656,107.175,m,1,0.491,,107.175,107.175,,0,1,1,38,1,39,dönem,2820,128.1296,2437,0.2664,5,harmonic,1.4,word,m,,,,,,,
,,,,,,,,,,,,001,2023-11-07_21h51.41.979,vowel_harmony,2023.2.3,MacIntel,100,107.175,108.172,,,,,,,,,,,,,,,,,,,,,,,,,,108.172,108.739,m,1,0.54,,108.739,108.74,,0,2,2,30,1,31,çevre,1662,75.5147,1409,0.154,5,harmonic,1.55,word,m,,,,,,,
,,,,,,,,,,,,001,2023-11-07_21h51.41.979,vowel_harmony,2023.2.3,MacIntel,100,108.74,109.739,,,,,,,,,,,,,,,,,,,,,,,,,,109.739,110.355,m,1,0.588,,110.355,110.355,,0,3,3,50,1,51,kanun,1198,54.4324,1010,0.1104,5,harmonic,1.6,word,m,,,,,,,
,,,,,,,,,,,,001,2023-11-07_21h51.41.979,vowel_harmony,2023.2.3,MacIntel,100,110.357,111.355,,,,,,,,,,,,,,,,,,,,,,,,,,111.355,112.135,z,1,0.75,,112.135,112.135,,0,4,4,355,1,356,adül,,,,,4,notharmonic,1.85,nw,z,,,,,,,
,,,,,,,,,,,,001,2023-11-07_21h51.41.979,vowel_harmony,2023.2.3,MacIntel,100,112.135,113.135,,,,,,,,,,,,,,,,,,,,,,,,,,113.135,113.768,z,1,0.612,,113.768,113.768,,0,5,5,222,1,223,gelü,,,,,4,harmonic,1.75,nw,z,,,,,,,
,,,,,,,,,,,,001,2023-11-07_21h51.41.979,vowel_harmony,2023.2.3,MacIntel,100,113.769,114.768,,,,,,,,,,,,,,,,,,,,,,,,,,114.768,115.384,m,1,0.595,,115.384,115.384,,0,6,6,120,1,121,ihmal,1002,45.5269,977,0.1068,5,notharmonic,1.65,word,m,,,,,,,
,,,,,,,,,,,,001,2023-11-07_21h51.41.979,vowel_harmony,2023.2.3,MacIntel,100,115.384,116.384,,,,,,,,,,,,,,,,,,,,,,,,,,116.384,117.234,z,1,0.828,,117.234,117.235,,0,7,7,253,1,254,meslet,,,,,6,harmonic,1.85,nw,z,,,,,,,
,,,,,,,,,,,,001,2023-11-07_21h51.41.979,vowel_harmony,2023.2.3,MacIntel,100,117.235,118.235,,,,,,,,,,,,,,,,,,,,,,,,,,118.235,118.968,z,1,0.709,,118.968,118.968,,0,8,8,241,1,242,porlam,,,,,6,harmonic,2,nw,z,,,,,,,
,,,,,,,,,,,,001,2023-11-07_21h51.41.979,vowel_harmony,2023.2.3,MacIntel,100,118.969,119.968,,,,,,,,,,,,,,,,,,,,,,,,,,119.968,120.634,m,1,0.644,,120.634,120.634,,0,9,9,16,1,17,yavaş,5087,231.1331,2886,0.3155,5,harmonic,1.6,word,m,,,,,,,
,,,,,,,,,,,,001,2023-11-07_21h51.41.979,vowel_harmony,2023.2.3,MacIntel,100,120.634,121.635,,,,,,,,,,,,,,,,,,,,,,,,,,121.635,122.185,m,1,0.525,,122.185,122.185,,0,10,10,111,1,112,kahve,2634,119.6785,2283,0.2496,5,notharmonic,1.85,word,m,,,,,,,
,,,,,,,,,,,,001,2023-11-07_21h51.41.979,vowel_harmony,2023.2.3,MacIntel,100,122.185,123.185,,,,,,,,,,,,,,,,,,,,,,,,,,123.185,123.834,z,1,0.626,,123.834,123.834,,0,11,11,328,1,329,kirul,,,,,5,notharmonic,1.95,nw,z,,,,,,,
,,,,,,,,,,,,001,2023-11-07_21h51.41.979,vowel_harmony,2023.2.3,MacIntel,100,123.835,124.835,,,,,,,,,,,,,,,,,,,,,,,,,,124.835,125.367,m,1,0.511,,125.367,125.367,,0,12,12,170,1,171,basit,3385,153.801,3177,0.3473,5,notharmonic,1.65,word,m,,,,,,,
,,,,,,,,,,,,001,2023-11-07_21h51.41.979,vowel_harmony,2023.2.3,MacIntel,100,125.368,126.368,,,,,,,,,,,,,,,,,,,,,,,,,,126.368,127.134,z,1,0.743,,127.134,127.134,,0,13,13,266,1,267,düştön,,,,,6,harmonic,1.9,nw,z,,,,,,,
,,,,,,,,,,,,001,2023-11-07_21h51.41.979,vowel_harmony,2023.2.3,MacIntel,100,127.134,128.134,,,,,,,,,,,,,,,,,,,,,,,,,,128.134,128.717,m,0,0.563,,128.717,128.717,,0,14,14,216,1,217,çeyret,,,,,6,harmonic,1.9,nw,z,,,,,,,
,,,,,,,,,,,,001,2023-11-07_21h51.41.979,vowel_harmony,2023.2.3,MacIntel,100,128.718,129.718,,,,,,,,,,,,,,,,,,,,,,,,,,129.718,130.335,m,1,0.593,,130.335,130.335,,0,15,15,114,1,115,nisan,2321,105.457,2044,0.2235,5,notharmonic,1.6,word,m,,,,,,,
,,,,,,,,,,,,001,2023-11-07_21h51.41.979,vowel_harmony,2023.2.3,MacIntel,100,130.335,131.334,,,,,,,,,,,,,,,,,,,,,,,,,,131.334,132.101,z,1,0.744,,132.101,132.101,,0,16,16,202,1,203,güvin,,,,,5,harmonic,1.95,nw,z,,,,,,,
,,,,,,,,,,,,001,2023-11-07_21h51.41.979,vowel_harmony,2023.2.3,MacIntel,100,132.101,133.101,,,,,,,,,,,,,,,,,,,,,,,,,,133.101,133.667,m,1,0.544,,133.667,133.667,,0,17,17,174,1,175,bugün,13879,630.6067,12842,1.4039,5,notharmonic,1.85,word,m,,,,,,,
,,,,,,,,,,,,001,2023-11-07_21h51.41.979,vowel_harmony,2023.2.3,MacIntel,100,133.668,134.668,,,,,,,,,,,,,,,,,,,,,,,,,,134.668,135.317,z,1,0.627,,135.317,135.317,,0,18,18,275,1,276,tahçe,,,,,5,notharmonic,1.95,nw,z,,,,,,,
,,,,,,,,,,,,001,2023-11-07_21h51.41.979,vowel_harmony,2023.2.3,MacIntel,100,135.317,136.318,,,,,,,,,,,,,,,,,,,,,,,,,,136.318,137.067,z,1,0.729,,137.067,137.067,,0,19,19,223,1,224,kakon,,,,,5,harmonic,1.85,nw,z,,,,,,,
,,,,,,,,,,,,001,2023-11-07_21h51.41.979,vowel_harmony,2023.2.3,MacIntel,100,137.068,138.068,,,,,,,,,,,,,,,,,,,,,,,,,,138.068,138.983,z,1,0.895,,138.983,138.984,,0,20,20,301,1,302,mezak,,,,,5,notharmonic,1.8,nw,z,,,,,,,
,,,,,,,,,,,,001,2023-11-07_21h51.41.979,vowel_harmony,2023.2.3,MacIntel,100,138.984,139.985,,,,,,,,,,,,,,,,,,,,,,,,,,139.985,140.536,m,1,0.527,,140.536,140.536,,0,21,21,83,1,84,küçük,14048,638.2854,12467,1.3629,5,harmonic,1.75,word,m,,,,,,,
,,,,,,,,,,,,001,2023-11-07_21h51.41.979,vowel_harmony,2023.2.3,MacIntel,100,140.537,141.535,,,,,,,,,,,,,,,,,,,,,,,,,,141.535,142.201,z,1,0.645,,142.201,142.201,,0,22,22,193,1,194,yokın,,,,,5,harmonic,1.85,nw,z,,,,,,,
,,,,,,,,,,,,001,2023-11-07_21h51.41.979,vowel_harmony,2023.2.3,MacIntel,100,142.201,143.201,,,,,,,,,,,,,,,,,,,,,,,,,,143.201,144.001,z,1,0.777,,144.001,144.001,,0,23,23,286,1,287,cedan,,,,,5,notharmonic,1.8,nw,z,,,,,,,
,,,,,,,,,,,,001,2023-11-07_21h51.41.979,vowel_harmony,2023.2.3,MacIntel,100,144.001,145.001,,,,,,,,,,,,,,,,,,,,,,,,,,145.001,145.8,z,1,0.776,,145.8,145.801,,0,24,24,190,1,191,reklen,,,,,6,harmonic,1.8,nw,z,,,,,,,
,,,,,,,,,,,,001,2023-11-07_21h51.41.979,vowel_harmony,2023.2.3,MacIntel,100,145.801,146.801,,,,,,,,,,,,,,,,,,,,,,,,,,146.801,147.617,m,1,0.795,,147.617,147.617,,0,25,25,126,1,127,adet,4367,198.4192,3768,0.4119,4,notharmonic,1.4,word,m,,,,,,,
,,,,,,,,,,,,001,2023-11-07_21h51.41.979,vowel_harmony,2023.2.3,MacIntel,100,147.618,148.617,,,,,,,,,,,,,,,,,,,,,,,,,,148.617,149.268,m,1,0.63,,149.268,149.268,,0,26,26,145,1,146,iddia,2430,110.4096,2295,0.2509,5,notharmonic,1.85,word,m,,,,,,,
,,,,,,,,,,,,001,2023-11-07_21h51.41.979,vowel_harmony,2023.2.3,MacIntel,100,149.271,150.267,,,,,,,,,,,,,,,,,,,,,,,,,,150.267,151.1,z,1,0.815,,151.1,151.101,,0,27,27,340,1,341,minya,,,,,5,notharmonic,1.95,nw,z,,,,,,,
,,,,,,,,,,,,001,2023-11-07_21h51.41.979,vowel_harmony,2023.2.3,MacIntel,100,151.103,152.101,,,,,,,,,,,,,,,,,,,,,,,,,,152.101,152.701,m,1,0.577,,152.701,152.701,,0,28,28,161,1,162,komik,1617,73.4701,1506,0.1646,5,notharmonic,1.75,word,m,,,,,,,
,,,,,,,,,,,,001,2023-11-07_21h51.41.979,vowel_harmony,2023.2.3,MacIntel,100,152.701,153.701,,,,,,,,,,,,,,,,,,,,,,,,,,153.701,154.184,z,1,0.46,,154.184,154.184,,0,29,29,285,1,286,iklon,,,,,5,notharmonic,1.85,nw,z,,,,,,,
,,,,,,,,,,,,001,2023-11-07_21h51.41.979,vowel_harmony,2023.2.3,MacIntel,100,154.185,155.184,,,,,,,,,,,,,,,,,,,,,,,,,,155.184,155.9,m,1,0.693,,155.9,155.9,,0,30,30,109,1,110,milyon,3936,178.8362,2958,0.3234,6,notharmonic,1.75,word,m,,,,,,,
,,,,,,,,,,,,001,2023-11-07_21h51.41.979,vowel_harmony,2023.2.3,MacIntel,100,155.9,156.901,,,,,,,,,,,,,,,,,,,,,,,,,,156.901,157.501,m,1,0.576,,157.501,157.501,,0,31,31,86,1,87,gerçek,8983,408.1519,8058,0.8809,6,harmonic,1.7,word,m,,,,,,,
,,,,,,,,,,,,001,2023-11-07_21h51.41.979,vowel_harmony,2023.2.3,MacIntel,100,157.501,158.501,,,,,,,,,,,,,,,,,,,,,,,,,,158.501,159.201,z,1,0.678,,159.201,159.201,,0,32,32,314,1,315,seral,,,,,5,notharmonic,1.7,nw,z,,,,,,,
,,,,,,,,,,,,001,2023-11-07_21h51.41.979,vowel_harmony,2023.2.3,MacIntel,100,159.201,160.201,,,,,,,,,,,,,,,,,,,,,,,,,,160.201,160.75,m,1,0.527,,160.75,160.751,,0,33,33,175,1,176,aile,3655,166.0687,3126,0.3417,4,notharmonic,1,word,m,,,,,,,
,,,,,,,,,,,,001,2023-11-07_21h51.41.979,vowel_harmony,2023.2.3,MacIntel,100,160.751,161.75,,,,,,,,,,,,,,,,,,,,,,,,,,161.75,162.318,m,1,0.547,,162.318,162.318,,0,34,34,155,1,156,ilaç,1366,62.0656,1215,0.1328,4,notharmonic,1.75,word,m,,,,,,,
,,,,,,,,,,,,001,2023-11-07_21h51.41.979,vowel_harmony,2023.2.3,MacIntel,100,162.318,163.318,,,,,,,,,,,,,,,,,,,,,,,,,,163.318,163.934,z,1,0.594,,163.934,163.934,,0,35,35,195,1,196,netüm,,,,,5,harmonic,1.95,nw,z,,,,,,,
,,,,,,,,,,,,001,2023-11-07_21h51.41.979,vowel_harmony,2023.2.3,MacIntel,100,163.934,164.934,,,,,,,,,,,,,,,,,,,,,,,,,,164.934,165.583,z,1,0.631,,165.583,165.583,,0,36,36,219,1,220,barlum,,,,,6,harmonic,1.9,nw,z,,,,,,,
,,,,,,,,,,,,001,2023-11-07_21h51.41.979,vowel_harmony,2023.2.3,MacIntel,100,165.584,166.583,,,,,,,,,,,,,,,,,,,,,,,,,,166.583,167.184,z,1,0.578,,167.184,167.184,,0,37,37,238,1,239,kocı,,,,,4,harmonic,1.95,nw,z,,,,,,,
,,,,,,,,,,,,001,2023-11-07_21h51.41.979,vowel_harmony,2023.2.3,MacIntel,100,167.185,168.184,,,,,,,,,,,,,,,,,,,,,,,,,,168.184,168.801,m,1,0.594,,168.801,168.801,,0,38,38,146,1,147,mavi,2206,100.2319,1934,0.2114,4,notharmonic,1.45,word,m,,,,,,,
,,,,,,,,,,,,001,2023-11-07_21h51.41.979,vowel_harmony,2023.2.3,MacIntel,100,168.801,169.8,,,,,,,,,,,,,,,,,,,,,,,,,,169.8,170.35,z,1,0.531,,170.35,170.35,,0,39,39,323,1,324,devak,,,,,5,notharmonic,1.75,nw,z,,,,,,,
,,,,,,,,,,,,001,2023-11-07_21h51.41.979,vowel_harmony,2023.2.3,MacIntel,100,170.35,171.35,,,,,,,,,,,,,,,,,,,,,,,,,,171.35,172.051,z,1,0.682,,172.051,172.052,,0,40,40,210,1,211,şevci,,,,,5,harmonic,1.75,nw,z,,,,,,,
,,,,,,,,,,,,001,2023-11-07_21h51.41.979,vowel_harmony,2023.2.3,MacIntel,100,172.052,173.051,,,,,,,,,,,,,,,,,,,,,,,,,,173.051,173.734,m,1,0.66,,173.734,173.734,,0,41,41,26,1,27,sebze,1094,49.707,961,0.1051,5,harmonic,1.9,word,m,,,,,,,
,,,,,,,,,,,,001,2023-11-07_21h51.41.979,vowel_harmony,2023.2.3,MacIntel,100,173.734,174.734,,,,,,,,,,,,,,,,,,,,,,,,,,174.734,175.317,m,1,0.563,,175.317,175.317,,0,42,42,147,1,148,işaret,1888,85.7832,1787,0.1954,6,notharmonic,1,word,m,,,,,,,
,,,,,,,,,,,,001,2023-11-07_21h51.41.979,vowel_harmony,2023.2.3,MacIntel,100,175.317,176.317,,,,,,,,,,,,,,,,,,,,,,,,,,176.317,177.017,m,1,0.679,,177.017,177.017,,0,43,43,22,1,23,anlam,1730,78.6043,1617,0.1768,5,harmonic,1.25,word,m,,,,,,,
,,,,,,,,,,,,001,2023-11-07_21h51.41.979,vowel_harmony,2023.2.3,MacIntel,100,177.017,178.016,,,,,,,,,,,,,,,,,,,,,,,,,,178.016,178.616,z,1,0.58,,178.616,178.617,,0,44,44,295,1,296,haylin,,,,,6,notharmonic,1.8,nw,z,,,,,,,
,,,,,,,,,,,,001,2023-11-07_21h51.41.979,vowel_harmony,2023.2.3,MacIntel,100,178.617,179.616,,,,,,,,,,,,,,,,,,,,,,,,,,179.616,180.317,m,1,0.677,,180.317,180.317,,0,45,45,64,1,65,lise,888,40.3472,816,0.0892,4,harmonic,1.5,word,m,,,,,,,
,,,,,,,,,,,,001,2023-11-07_21h51.41.979,vowel_harmony,2023.2.3,MacIntel,100,180.318,181.317,,,,,,,,,,,,,,,,,,,,,,,,,,181.317,181.916,m,1,0.58,,181.916,181.916,,0,46,46,131,1,132,hakim,1677,76.1962,1559,0.1704,5,notharmonic,1,word,m,,,,,,,
,,,,,,,,,,,,001,2023-11-07_21h51.41.979,vowel_harmony,2023.2.3,MacIntel,100,181.917,182.916,,,,,,,,,,,,,,,,,,,,,,,,,,182.916,183.534,m,1,0.598,,183.534,183.534,,0,47,47,153,1,154,inşaat,432,19.6284,376,0.0411,6,notharmonic,1.6,word,m,,,,,,,
,,,,,,,,,,,,001,2023-11-07_21h51.41.979,vowel_harmony,2023.2.3,MacIntel,100,183.534,184.534,,,,,,,,,,,,,,,,,,,,,,,,,,184.534,185.134,m,1,0.579,,185.134,185.134,,0,48,48,88,1,89,yalnız,5891,267.6637,5440,0.5947,6,harmonic,1.6,word,m,,,,,,,
,,,,,,,,,,,,001,2023-11-07_21h51.41.979,vowel_harmony,2023.2.3,MacIntel,100,185.134,186.134,,,,,,,,,,,,,,,,,,,,,,,,,,186.134,186.683,z,1,0.531,,186.683,186.683,,0,49,49,251,1,252,oştay,,,,,5,harmonic,1.95,nw,z,,,,,,,
,,,,,,,,,,,,001,2023-11-07_21h51.41.979,vowel_harmony,2023.2.3,MacIntel,100,186.683,187.683,,,,,,,,,,,,,,,,,,,,,,,,,,187.683,188.234,m,1,0.53,,188.234,188.234,,0,50,50,159,1,160,vakit,3476,157.9357,3298,0.3605,5,notharmonic,1.65,word,m,,,,,,,
,,,,,,,,,,,,001,2023-11-07_21h51.41.979,vowel_harmony,2023.2.3,MacIntel,100,188.234,189.234,,,,,,,,,,,,,,,,,,,,,,,,,,189.234,190.066,m,1,0.812,,190.066,190.066,,0,51,51,93,1,94,siyah,2944,133.7637,2527,0.2763,5,notharmonic,1.6,word,m,,,,,,,
,,,,,,,,,,,,001,2023-11-07_21h51.41.979,vowel_harmony,2023.2.3,MacIntel,100,190.066,191.067,,,,,,,,,,,,,,,,,,,,,,,,,,191.067,191.7,m,1,0.613,,191.7,191.7,,0,52,52,33,1,34,moda,1381,62.7472,1231,0.1346,4,harmonic,1.55,word,m,,,,,,,
,,,,,,,,,,,,001,2023-11-07_21h51.41.979,vowel_harmony,2023.2.3,MacIntel,100,191.701,192.7,,,,,,,,,,,,,,,,,,,,,,,,,,192.7,193.4,m,1,0.681,,193.4,193.4,,0,53,53,56,1,57,sağlam,1818,82.6027,1720,0.188,6,harmonic,1.6,word,m,,,,,,,
,,,,,,,,,,,,001,2023-11-07_21h51.41.979,vowel_harmony,2023.2.3,MacIntel,100,193.401,194.4,,,,,,,,,,,,,,,,,,,,,,,,,,194.4,194.916,m,1,0.495,,194.916,194.916,,0,54,54,76,1,77,ilişki,1675,76.1054,1524,0.1666,6,harmonic,1.8,word,m,,,,,,,
,,,,,,,,,,,,001,2023-11-07_21h51.41.979,vowel_harmony,2023.2.3,MacIntel,100,194.916,195.916,,,,,,,,,,,,,,,,,,,,,,,,,,195.916,196.434,z,1,0.495,,196.434,196.434,,0,55,55,288,1,289,molit,,,,,5,notharmonic,1.95,nw,z,,,,,,,
,,,,,,,,,,,,001,2023-11-07_21h51.41.979,vowel_harmony,2023.2.3,MacIntel,100,196.434,197.434,,,,,,,,,,,,,,,,,,,,,,,,,,197.434,198.099,z,0,0.645,,198.099,198.099,,0,56,56,112,1,113,sezon,2315,105.1844,1917,0.2096,5,notharmonic,1.8,word,m,,,,,,,
,,,,,,,,,,,,001,2023-11-07_21h51.41.979,vowel_harmony,2023.2.3,MacIntel,100,198.1,199.1,,,,,,,,,,,,,,,,,,,,,,,,,,199.101,199.566,m,1,0.442,,199.566,199.566,,0,57,57,173,1,174,sade,1193,54.2052,1114,0.1218,4,notharmonic,1.55,word,m,,,,,,,
,,,,,,,,,,,,001,2023-11-07_21h51.41.979,vowel_harmony,2023.2.3,MacIntel,100,199.567,200.566,,,,,,,,,,,,,,,,,,,,,,,,,,200.566,201.266,z,1,0.678,,201.266,201.267,,0,58,58,243,1,244,korguf,,,,,6,harmonic,2,nw,z,,,,,,,
,,,,,,,,,,,,001,2023-11-07_21h51.41.979,vowel_harmony,2023.2.3,MacIntel,100,201.267,202.266,,,,,,,,,,,,,,,,,,,,,,,,,,202.266,202.951,z,1,0.664,,202.951,202.951,,0,59,59,187,1,188,remrin,,,,,6,harmonic,1.9,nw,z,,,,,,,
,,,,,,,,,,,,001,2023-11-07_21h51.41.979,vowel_harmony,2023.2.3,MacIntel,100,202.952,203.949,,,,,,,,,,,,,,,,,,,,,,,,,,203.949,204.599,z,0,0.63,,204.6,204.6,,0,60,60,7,1,8,hizmet,3023,137.3531,2689,0.294,6,harmonic,1.75,word,m,,,,,,,
,,,,,,,,,,,,001,2023-11-07_21h51.41.979,vowel_harmony,2023.2.3,MacIntel,100,204.6,205.6,,,,,,,,,,,,,,,,,,,,,,,,,,205.6,206.166,m,1,0.542,,206.166,206.166,,0,61,61,115,1,116,saniye,1088,49.4344,984,0.1076,6,notharmonic,1.35,word,m,,,,,,,
,,,,,,,,,,,,001,2023-11-07_21h51.41.979,vowel_harmony,2023.2.3,MacIntel,100,206.167,207.166,,,,,,,,,,,,,,,,,,,,,,,,,,207.166,207.633,m,1,0.447,,207.633,207.633,,0,62,62,4,1,5,metre,1156,52.5241,1015,0.111,5,harmonic,1.7,word,m,,,,,,,
,,,,,,,,,,,,001,2023-11-07_21h51.41.979,vowel_harmony,2023.2.3,MacIntel,100,207.634,208.633,,,,,,,,,,,,,,,,,,,,,,,,,,208.634,209.166,m,1,0.512,,209.166,209.166,,0,63,63,31,1,32,fazla,18293,831.1614,16694,1.825,5,harmonic,1,word,m,,,,,,,
,,,,,,,,,,,,001,2023-11-07_21h51.41.979,vowel_harmony,2023.2.3,MacIntel,100,209.167,210.166,,,,,,,,,,,,,,,,,,,,,,,,,,210.166,210.817,m,1,0.629,,210.817,210.817,,0,64,64,118,1,119,meşhur,1092,49.6161,1057,0.1156,6,notharmonic,1.9,word,m,,,,,,,
,,,,,,,,,,,,001,2023-11-07_21h51.41.979,vowel_harmony,2023.2.3,MacIntel,100,210.817,211.816,,,,,,,,,,,,,,,,,,,,,,,,,,211.816,212.449,m,1,0.613,,212.449,212.449,,0,65,65,11,1,12,umut,1988,90.3268,1818,0.1987,4,harmonic,1.55,word,m,,,,,,,
,,,,,,,,,,,,001,2023-11-07_21h51.41.979,vowel_harmony,2023.2.3,MacIntel,100,212.45,213.45,,,,,,,,,,,,,,,,,,,,,,,,,,213.45,214.383,m,0,0.909,,214.383,214.383,,0,66,66,307,1,308,merbat,,,,,6,notharmonic,1.95,nw,z,,,,,,,
,,,,,,,,,,,,001,2023-11-07_21h51.41.979,vowel_harmony,2023.2.3,MacIntel,100,214.384,215.384,,,,,,,,,,,,,,,,,,,,,,,,,,215.384,216.349,m,0,0.946,,216.349,216.349,,0,67,67,194,1,195,rayna,,,,,5,harmonic,1.7,nw,z,,,,,,,
,,,,,,,,,,,,001,2023-11-07_21h51.41.979,vowel_harmony,2023.2.3,MacIntel,100,216.35,217.349,,,,,,,,,,,,,,,,,,,,,,,,,,217.349,217.9,m,1,0.528,,217.9,217.9,,0,68,68,163,1,164,limon,1658,75.3329,1481,0.1619,5,notharmonic,1.75,word,m,,,,,,,
,,,,,,,,,,,,001,2023-11-07_21h51.41.979,vowel_harmony,2023.2.3,MacIntel,100,217.9,218.9,,,,,,,,,,,,,,,,,,,,,,,,,,218.9,219.699,z,1,0.777,,219.699,219.7,,0,69,69,252,1,253,anlgı,,,,,5,harmonic,1.9,nw,z,,,,,,,
,,,,,,,,,,,,001,2023-11-07_21h51.41.979,vowel_harmony,2023.2.3,MacIntel,100,219.7,220.7,,,,,,,,,,,,,,,,,,,,,,,,,,220.7,221.533,m,1,0.81,,221.533,221.533,,0,70,70,32,1,33,temel,4231,192.2399,3851,0.421,5,harmonic,1.55,word,m,,,,,,,
,,,,,,,,,,,,001,2023-11-07_21h51.41.979,vowel_harmony,2023.2.3,MacIntel,100,221.534,222.533,,,,,,,,,,,,,,,,,,,,,,,,,,222.533,223.134,m,1,0.578,,223.134,223.134,,0,71,71,42,1,43,ürün,2268,103.0489,1954,0.2136,4,harmonic,1.1,word,m,,,,,,,
,,,,,,,,,,,,001,2023-11-07_21h51.41.979,vowel_harmony,2023.2.3,MacIntel,100,223.134,224.133,,,,,,,,,,,,,,,,,,,,,,,,,,224.133,224.666,m,1,0.511,,224.666,224.667,,0,72,72,60,1,61,doğu,2105,95.6429,1823,0.1993,4,harmonic,1.05,word,m,,,,,,,
,,,,,,,,,,,,001,2023-11-07_21h51.41.979,vowel_harmony,2023.2.3,MacIntel,100,224.667,225.666,,,,,,,,,,,,,,,,,,,,,,,,,,225.666,226.383,z,1,0.694,,226.384,226.384,,0,73,73,308,1,309,hafer,,,,,5,notharmonic,1.85,nw,z,,,,,,,
,,,,,,,,,,,,001,2023-11-07_21h51.41.979,vowel_harmony,2023.2.3,MacIntel,100,226.384,227.383,,,,,,,,,,,,,,,,,,,,,,,,,,227.383,227.899,m,1,0.495,,227.899,227.899,,0,74,74,63,1,64,sultan,1756,79.7857,1368,0.1496,6,harmonic,1.55,word,m,,,,,,,
,,,,,,,,,,,,001,2023-11-07_21h51.41.979,vowel_harmony,2023.2.3,MacIntel,100,227.9,228.9,,,,,,,,,,,,,,,,,,,,,,,,,,228.9,229.7,z,1,0.777,,229.7,229.7,,0,75,75,353,1,354,ikno,,,,,4,notharmonic,1.95,nw,z,,,,,,,
,,,,,,,,,,,,001,2023-11-07_21h51.41.979,vowel_harmony,2023.2.3,MacIntel,100,229.7,230.7,,,,,,,,,,,,,,,,,,,,,,,,,,230.7,231.549,m,1,0.827,,231.549,231.549,,0,76,76,100,1,101,düşman,1065,48.3894,962,0.1052,6,notharmonic,1.85,word,m,,,,,,,
,,,,,,,,,,,,001,2023-11-07_21h51.41.979,vowel_harmony,2023.2.3,MacIntel,100,231.55,232.549,,,,,,,,,,,,,,,,,,,,,,,,,,232.549,233.249,z,1,0.68,,233.249,233.249,,0,77,77,227,1,228,zekö,,,,,4,harmonic,1.9,nw,z,,,,,,,
,,,,,,,,,,,,001,2023-11-07_21h51.41.979,vowel_harmony,2023.2.3,MacIntel,100,233.249,234.249,,,,,,,,,,,,,,,,,,,,,,,,,,234.249,234.983,z,1,0.713,,234.983,234.983,,0,78,78,197,1,198,ranar,,,,,5,harmonic,1.75,nw,z,,,,,,,
,,,,,,,,,,,,001,2023-11-07_21h51.41.979,vowel_harmony,2023.2.3,MacIntel,100,234.983,235.983,,,,,,,,,,,,,,,,,,,,,,,,,,235.983,236.849,z,1,0.846,,236.849,236.849,,0,79,79,337,1,338,bakem,,,,,5,notharmonic,1.7,nw,z,,,,,,,
,,,,,,,,,,,,001,2023-11-07_21h51.41.979,vowel_harmony,2023.2.3,MacIntel,100,236.849,237.85,,,,,,,,,,,,,,,,,,,,,,,,,,237.85,238.416,m,1,0.546,,238.416,238.416,,0,80,80,80,1,81,merkez,1445,65.6551,1255,0.1372,6,harmonic,1.8,word,m,,,,,,,
,,,,,,,,,,,,001,2023-11-07_21h51.41.979,vowel_harmony,2023.2.3,MacIntel,100,238.417,239.416,,,,,,,,,,,,,,,,,,,,,,,,,,239.416,239.966,m,1,0.528,,239.966,239.966,,0,81,81,2,1,3,radyo,763,34.6677,636,0.0695,5,harmonic,1.85,word,m,,,,,,,
,,,,,,,,,,,,001,2023-11-07_21h51.41.979,vowel_harmony,2023.2.3,MacIntel,100,239.966,240.966,,,,,,,,,,,,,,,,,,,,,,,,,,240.966,241.499,z,1,0.512,,241.499,241.499,,0,82,82,331,1,332,ehun,,,,,4,notharmonic,1.95,nw,z,,,,,,,
,,,,,,,,,,,,001,2023-11-07_21h51.41.979,vowel_harmony,2023.2.3,MacIntel,100,241.5,242.5,,,,,,,,,,,,,,,,,,,,,,,,,,242.5,243.266,z,1,0.744,,243.266,243.267,,0,83,83,330,1,331,vahçe,,,,,5,notharmonic,1.9,nw,z,,,,,,,
,,,,,,,,,,,,001,2023-11-07_21h51.41.979,vowel_harmony,2023.2.3,MacIntel,100,243.267,244.266,,,,,,,,,,,,,,,,,,,,,,,,,,244.266,244.899,m,1,0.612,,244.899,244.899,,0,84,84,98,1,99,paket,1532,69.608,1392,0.1522,5,notharmonic,1.55,word,m,,,,,,,
,,,,,,,,,,,,001,2023-11-07_21h51.41.979,vowel_harmony,2023.2.3,MacIntel,100,244.899,245.9,,,,,,,,,,,,,,,,,,,,,,,,,,245.9,246.8,z,1,0.878,,246.8,246.8,,0,85,85,280,1,281,adalek,,,,,6,notharmonic,1.85,nw,z,,,,,,,
,,,,,,,,,,,,001,2023-11-07_21h51.41.979,vowel_harmony,2023.2.3,MacIntel,100,246.8,247.799,,,,,,,,,,,,,,,,,,,,,,,,,,247.799,248.516,z,1,0.697,,248.516,248.516,,0,86,86,311,1,312,dedya,,,,,5,notharmonic,1.9,nw,z,,,,,,,
,,,,,,,,,,,,001,2023-11-07_21h51.41.979,vowel_harmony,2023.2.3,MacIntel,100,248.517,249.516,,,,,,,,,,,,,,,,,,,,,,,,,,249.516,250.149,z,1,0.613,,250.149,250.149,,0,87,87,329,1,330,taif,,,,,4,notharmonic,1.8,nw,z,,,,,,,
,,,,,,,,,,,,001,2023-11-07_21h51.41.979,vowel_harmony,2023.2.3,MacIntel,100,250.149,251.149,,,,,,,,,,,,,,,,,,,,,,,,,,251.149,251.832,m,1,0.661,,251.832,251.832,,0,88,88,106,1,107,esnaf,315,14.3124,284,0.031,5,notharmonic,1.55,word,m,,,,,,,
,,,,,,,,,,,,001,2023-11-07_21h51.41.979,vowel_harmony,2023.2.3,MacIntel,100,251.833,252.833,,,,,,,,,,,,,,,,,,,,,,,,,,252.833,253.466,z,1,0.613,,253.466,253.466,,0,89,89,226,1,227,tefem,,,,,5,harmonic,1.75,nw,z,,,,,,,
,,,,,,,,,,,,001,2023-11-07_21h51.41.979,vowel_harmony,2023.2.3,MacIntel,100,253.466,254.466,,,,,,,,,,,,,,,,,,,,,,,,,,254.466,255.233,z,1,0.745,,255.233,255.233,,0,90,90,240,1,241,hoga,,,,,4,harmonic,1.75,nw,z,,,,,,,
,,,,,,,,,,,,001,2023-11-07_21h51.41.979,vowel_harmony,2023.2.3,MacIntel,100,255.233,256.233,,,,,,,,,,,,,,,,,,,,,,,,,,256.233,256.783,z,1,0.527,,256.783,256.783,,0,91,91,350,1,351,resun,,,,,5,notharmonic,1.85,nw,z,,,,,,,
,,,,,,,,,,,,001,2023-11-07_21h51.41.979,vowel_harmony,2023.2.3,MacIntel,100,256.784,257.783,,,,,,,,,,,,,,,,,,,,,,,,,,257.783,258.432,m,1,0.627,,258.432,258.432,,0,92,92,96,1,97,dahil,3189,144.8955,3060,0.3345,5,notharmonic,1.7,word,m,,,,,,,
,,,,,,,,,,,,001,2023-11-07_21h51.41.979,vowel_harmony,2023.2.3,MacIntel,100,258.432,259.433,,,,,,,,,,,,,,,,,,,,,,,,,,259.433,260.066,m,1,0.609,,260.066,260.066,,0,93,93,34,1,35,hoca,1893,86.0104,1526,0.1668,4,harmonic,1.45,word,m,,,,,,,
,,,,,,,,,,,,001,2023-11-07_21h51.41.979,vowel_harmony,2023.2.3,MacIntel,100,260.066,261.066,,,,,,,,,,,,,,,,,,,,,,,,,,261.066,261.716,z,1,0.628,,261.716,261.716,,0,94,94,294,1,295,mesap,,,,,5,notharmonic,1.8,nw,z,,,,,,,
,,,,,,,,,,,,001,2023-11-07_21h51.41.979,vowel_harmony,2023.2.3,MacIntel,100,261.717,262.716,,,,,,,,,,,,,,,,,,,,,,,,,,262.716,263.282,z,1,0.545,,263.282,263.282,,0,95,95,319,1,320,biho,,,,,4,notharmonic,2,nw,z,,,,,,,
,,,,,,,,,,,,001,2023-11-07_21h51.41.979,vowel_harmony,2023.2.3,MacIntel,100,263.282,264.282,,,,,,,,,,,,,,,,,,,,,,,,,,264.282,264.882,m,1,0.578,,264.882,264.882,,0,96,96,152,1,153,tedavi,1865,84.7382,1597,0.1746,6,notharmonic,1.8,word,m,,,,,,,
,,,,,,,,,,,,001,2023-11-07_21h51.41.979,vowel_harmony,2023.2.3,MacIntel,100,264.883,265.882,,,,,,,,,,,,,,,,,,,,,,,,,,265.882,266.416,m,1,0.511,,266.416,266.416,,0,97,97,178,1,179,dikkat,6230,283.0665,5888,0.6437,6,notharmonic,2.05,word,m,,,,,,,
,,,,,,,,,,,,001,2023-11-07_21h51.41.979,vowel_harmony,2023.2.3,MacIntel,100,266.416,267.415,,,,,,,,,,,,,,,,,,,,,,,,,,267.415,268.049,m,1,0.613,,268.049,268.049,,0,98,98,129,1,130,tahmin,2353,106.911,2273,0.2485,6,notharmonic,1.6,word,m,,,,,,,
,,,,,,,,,,,,001,2023-11-07_21h51.41.979,vowel_harmony,2023.2.3,MacIntel,100,268.049,269.05,,,,,,,,,,,,,,,,,,,,,,,,,,269.05,269.516,m,1,0.446,,269.516,269.516,,0,99,99,136,1,137,beyaz,5517,250.6706,4788,0.5234,5,notharmonic,1.85,word,m,,,,,,,
,,,,,,,,,,,,001,2023-11-07_21h51.41.979,vowel_harmony,2023.2.3,MacIntel,100,269.516,270.516,,,,,,,,,,,,,,,,,,,,,,,,,,270.516,271.165,z,1,0.629,,271.165,271.165,,0,100,100,225,1,226,düvem,,,,,5,harmonic,1.7,nw,z,,,,,,,
,,,,,,,,,,,,001,2023-11-07_21h51.41.979,vowel_harmony,2023.2.3,MacIntel,100,271.165,272.166,,,,,,,,,,,,,,,,,,,,,,,,,,272.166,273.015,z,0,0.825,,273.015,273.016,,0,101,101,77,1,78,ufak,3252,147.758,2980,0.3258,4,harmonic,1.5,word,m,,,,,,,
,,,,,,,,,,,,001,2023-11-07_21h51.41.979,vowel_harmony,2023.2.3,MacIntel,100,273.016,274.015,,,,,,,,,,,,,,,,,,,,,,,,,,274.015,274.633,z,1,0.594,,274.633,274.633,,0,102,102,322,1,323,normin,,,,,6,notharmonic,1.95,nw,z,,,,,,,
,,,,,,,,,,,,001,2023-11-07_21h51.41.979,vowel_harmony,2023.2.3,MacIntel,100,274.633,275.633,,,,,,,,,,,,,,,,,,,,,,,,,,275.633,276.183,m,1,0.528,,276.183,276.183,,0,103,103,35,1,36,hava,4975,226.0443,4398,0.4808,4,harmonic,1,word,m,,,,,,,
,,,,,,,,,,,,001,2023-11-07_21h51.41.979,vowel_harmony,2023.2.3,MacIntel,100,276.183,277.183,,,,,,,,,,,,,,,,,,,,,,,,,,277.183,277.733,z,1,0.529,,277.733,277.733,,0,104,104,277,1,278,balsin,,,,,6,notharmonic,1.85,nw,z,,,,,,,
,,,,,,,,,,,,001,2023-11-07_21h51.41.979,vowel_harmony,2023.2.3,MacIntel,100,277.733,278.732,,,,,,,,,,,,,,,,,,,,,,,,,,278.733,279.483,z,1,0.73,,279.483,279.483,,0,105,105,196,1,197,bilön,,,,,5,harmonic,1.9,nw,z,,,,,,,
,,,,,,,,,,,,001,2023-11-07_21h51.41.979,vowel_harmony,2023.2.3,MacIntel,100,279.484,280.482,,,,,,,,,,,,,,,,,,,,,,,,,,280.482,281.316,m,1,0.811,,281.316,281.316,,0,106,106,71,1,72,örnek,3463,157.345,3266,0.357,5,harmonic,1.85,word,m,,,,,,,
,,,,,,,,,,,,001,2023-11-07_21h51.41.979,vowel_harmony,2023.2.3,MacIntel,100,281.316,282.316,,,,,,,,,,,,,,,,,,,,,,,,,,282.316,283.065,z,1,0.73,,283.066,283.066,,0,107,107,207,1,208,örtre,,,,,5,harmonic,1.85,nw,z,,,,,,,
,,,,,,,,,,,,001,2023-11-07_21h51.41.979,vowel_harmony,2023.2.3,MacIntel,100,283.066,284.066,,,,,,,,,,,,,,,,,,,,,,,,,,284.066,285.082,z,1,0.995,,285.082,285.082,,0,108,108,271,1,272,mimal,,,,,5,notharmonic,1.8,nw,z,,,,,,,
,,,,,,,,,,,,001,2023-11-07_21h51.41.979,vowel_harmony,2023.2.3,MacIntel,100,285.082,286.082,,,,,,,,,,,,,,,,,,,,,,,,,,286.082,286.732,z,1,0.628,,286.732,286.733,,0,109,109,188,1,189,tonık,,,,,5,harmonic,1.85,nw,z,,,,,,,
,,,,,,,,,,,,001,2023-11-07_21h51.41.979,vowel_harmony,2023.2.3,MacIntel,100,286.733,287.732,,,,,,,,,,,,,,,,,,,,,,,,,,287.732,288.549,z,1,0.794,,288.549,288.549,,0,110,110,352,1,353,yılden,,,,,6,notharmonic,1.8,nw,z,,,,,,,
,,,,,,,,,,,,001,2023-11-07_21h51.41.979,vowel_harmony,2023.2.3,MacIntel,100,288.549,289.548,,,,,,,,,,,,,,,,,,,,,,,,,,289.548,290.115,m,1,0.547,,290.116,290.116,,0,111,111,15,1,16,hayat,7922,359.9443,7314,0.7996,5,harmonic,1.9,word,m,,,,,,,
,,,,,,,,,,,,001,2023-11-07_21h51.41.979,vowel_harmony,2023.2.3,MacIntel,100,290.117,291.116,,,,,,,,,,,,,,,,,,,,,,,,,,291.116,291.649,z,1,0.51,,291.649,291.649,,0,112,112,192,1,193,vecö,,,,,4,harmonic,1.95,nw,z,,,,,,,
,,,,,,,,,,,,001,2023-11-07_21h51.41.979,vowel_harmony,2023.2.3,MacIntel,100,291.65,292.649,,,,,,,,,,,,,,,,,,,,,,,,,,292.649,293.232,m,1,0.562,,293.232,293.232,,0,113,113,164,1,165,sinema,1575,71.5618,1304,0.1426,6,notharmonic,1.8,word,m,,,,,,,
,,,,,,,,,,,,001,2023-11-07_21h51.41.979,vowel_harmony,2023.2.3,MacIntel,100,293.234,294.231,,,,,,,,,,,,,,,,,,,,,,,,,,294.231,294.882,m,1,0.628,,294.882,294.882,,0,114,114,82,1,83,aday,1028,46.7082,873,0.0954,4,harmonic,1.45,word,m,,,,,,,
,,,,,,,,,,,,001,2023-11-07_21h51.41.979,vowel_harmony,2023.2.3,MacIntel,100,294.882,295.882,,,,,,,,,,,,,,,,,,,,,,,,,,295.882,296.448,m,1,0.548,,296.448,296.448,,0,115,115,138,1,139,kardeş,1270,57.7038,1174,0.1283,6,notharmonic,1.9,word,m,,,,,,,
,,,,,,,,,,,,001,2023-11-07_21h51.41.979,vowel_harmony,2023.2.3,MacIntel,100,296.448,297.449,,,,,,,,,,,,,,,,,,,,,,,,,,297.449,298.299,m,1,0.832,,298.299,298.299,,0,116,116,48,1,49,teşvik,932,42.3464,867,0.0948,6,harmonic,1.8,word,m,,,,,,,
,,,,,,,,,,,,001,2023-11-07_21h51.41.979,vowel_harmony,2023.2.3,MacIntel,100,298.299,299.299,,,,,,,,,,,,,,,,,,,,,,,,,,299.299,299.815,m,1,0.496,,299.815,299.815,,0,117,117,36,1,37,meslek,1082,49.1618,976,0.1067,6,harmonic,1.9,word,m,,,,,,,
,,,,,,,,,,,,001,2023-11-07_21h51.41.979,vowel_harmony,2023.2.3,MacIntel,100,299.815,300.815,,,,,,,,,,,,,,,,,,,,,,,,,,300.815,301.549,z,1,0.714,,301.549,301.549,,0,118,118,228,1,229,haytam,,,,,6,harmonic,1.75,nw,z,,,,,,,
,,,,,,,,,,,,001,2023-11-07_21h51.41.979,vowel_harmony,2023.2.3,MacIntel,100,301.549,302.548,,,,,,,,,,,,,,,,,,,,,,,,,,302.548,303.348,z,1,0.781,,303.348,303.349,,0,119,119,244,1,245,kaof,,,,,4,harmonic,1.9,nw,z,,,,,,,
,,,,,,,,,,,,001,2023-11-07_21h51.41.979,vowel_harmony,2023.2.3,MacIntel,100,303.349,304.348,,,,,,,,,,,,,,,,,,,,,,,,,,304.348,305.066,z,1,0.696,,305.066,371.765,space,0,120,120,182,1,183,orsın,,,,,5,harmonic,1.95,nw,z,66.667,,,,,,
,,,,,,,,,,,,001,2023-11-07_21h51.41.979,vowel_harmony,2023.2.3,MacIntel,100,371.766,372.765,,,,,,,,,,,,,,,,,,,,,,,,,,372.765,374.714,z,1,1.919,,374.714,374.714,,0,121,121,338,1,339,pardön,,,,,6,notharmonic,1.95,nw,z,,,,,,,
,,,,,,,,,,,,001,2023-11-07_21h51.41.979,vowel_harmony,2023.2.3,MacIntel,100,374.715,375.715,,,,,,,,,,,,,,,,,,,,,,,,,,375.715,376.298,m,1,0.55,,376.298,376.298,,0,122,122,87,1,88,mümkün,6604,300.0596,6264,0.6848,6,harmonic,1.9,word,m,,,,,,,
,,,,,,,,,,,,001,2023-11-07_21h51.41.979,vowel_harmony,2023.2.3,MacIntel,100,376.299,377.298,,,,,,,,,,,,,,,,,,,,,,,,,,377.298,377.847,m,1,0.52,,377.847,377.847,,0,123,123,17,1,18,yakın,7990,363.0339,7595,0.8303,5,harmonic,1.8,word,m,,,,,,,
,,,,,,,,,,,,001,2023-11-07_21h51.41.979,vowel_harmony,2023.2.3,MacIntel,100,377.848,378.848,,,,,,,,,,,,,,,,,,,,,,,,,,378.848,379.548,z,1,0.672,,379.548,379.548,,0,124,124,233,1,234,devpi,,,,,5,harmonic,1.8,nw,z,,,,,,,
,,,,,,,,,,,,001,2023-11-07_21h51.41.979,vowel_harmony,2023.2.3,MacIntel,100,379.548,380.547,,,,,,,,,,,,,,,,,,,,,,,,,,380.547,381.053,m,1,0.486,,381.054,381.055,,0,125,125,27,1,28,bölge,1283,58.2944,1123,0.1228,5,harmonic,1.65,word,m,,,,,,,
,,,,,,,,,,,,001,2023-11-07_21h51.41.979,vowel_harmony,2023.2.3,MacIntel,100,381.055,382.048,,,,,,,,,,,,,,,,,,,,,,,,,,382.048,382.813,z,0,0.744,,382.813,382.814,,0,126,126,65,1,66,fikir,2552,115.9528,2413,0.2638,5,harmonic,1.9,word,m,,,,,,,
,,,,,,,,,,,,001,2023-11-07_21h51.41.979,vowel_harmony,2023.2.3,MacIntel,100,382.814,383.814,,,,,,,,,,,,,,,,,,,,,,,,,,383.814,384.531,z,1,0.697,,384.531,384.532,,0,127,127,270,1,271,miyaj,,,,,5,notharmonic,1.9,nw,z,,,,,,,
,,,,,,,,,,,,001,2023-11-07_21h51.41.979,vowel_harmony,2023.2.3,MacIntel,100,384.532,385.531,,,,,,,,,,,,,,,,,,,,,,,,,,385.531,386.23,z,1,0.68,,386.23,386.23,,0,128,128,183,1,184,orkın,,,,,5,harmonic,1.9,nw,z,,,,,,,
,,,,,,,,,,,,001,2023-11-07_21h51.41.979,vowel_harmony,2023.2.3,MacIntel,100,386.231,387.23,,,,,,,,,,,,,,,,,,,,,,,,,,387.23,387.916,z,1,0.665,,387.916,387.917,,0,129,129,212,1,213,ortat,,,,,5,harmonic,1.7,nw,z,,,,,,,
,,,,,,,,,,,,001,2023-11-07_21h51.41.979,vowel_harmony,2023.2.3,MacIntel,100,387.917,388.914,,,,,,,,,,,,,,,,,,,,,,,,,,388.914,389.514,z,1,0.578,,389.514,389.515,,0,130,130,220,1,221,denbi,,,,,5,harmonic,1.75,nw,z,,,,,,,
,,,,,,,,,,,,001,2023-11-07_21h51.41.979,vowel_harmony,2023.2.3,MacIntel,100,389.515,390.514,,,,,,,,,,,,,,,,,,,,,,,,,,390.514,391.03,m,1,0.495,,391.03,391.03,,0,131,131,92,1,93,sahne,1380,62.7017,1238,0.1353,5,notharmonic,1.65,word,m,,,,,,,
,,,,,,,,,,,,001,2023-11-07_21h51.41.979,vowel_harmony,2023.2.3,MacIntel,100,391.03,392.03,,,,,,,,,,,,,,,,,,,,,,,,,,392.03,392.697,z,1,0.645,,392.697,392.697,,0,132,132,255,1,256,yokın,,,,,5,harmonic,1.85,nw,z,,,,,,,
,,,,,,,,,,,,001,2023-11-07_21h51.41.979,vowel_harmony,2023.2.3,MacIntel,100,392.697,393.697,,,,,,,,,,,,,,,,,,,,,,,,,,393.697,394.247,z,1,0.532,,394.247,394.247,,0,133,133,324,1,325,pakeh,,,,,5,notharmonic,1.9,nw,z,,,,,,,
,,,,,,,,,,,,001,2023-11-07_21h51.41.979,vowel_harmony,2023.2.3,MacIntel,100,394.247,395.248,,,,,,,,,,,,,,,,,,,,,,,,,,395.248,395.997,z,1,0.728,,395.997,395.997,,0,134,134,313,1,314,ikas,,,,,4,notharmonic,1.85,nw,z,,,,,,,
,,,,,,,,,,,,001,2023-11-07_21h51.41.979,vowel_harmony,2023.2.3,MacIntel,100,395.997,396.998,,,,,,,,,,,,,,,,,,,,,,,,,,396.998,397.764,z,1,0.738,,397.764,397.764,,0,135,135,269,1,270,vekü,,,,,4,harmonic,2,nw,z,,,,,,,
,,,,,,,,,,,,001,2023-11-07_21h51.41.979,vowel_harmony,2023.2.3,MacIntel,100,397.765,398.764,,,,,,,,,,,,,,,,,,,,,,,,,,398.764,399.481,z,1,0.695,,399.481,399.481,,0,136,136,351,1,352,seğlık,,,,,6,notharmonic,1.9,nw,z,,,,,,,
,,,,,,,,,,,,001,2023-11-07_21h51.41.979,vowel_harmony,2023.2.3,MacIntel,100,399.481,400.48,,,,,,,,,,,,,,,,,,,,,,,,,,400.48,401.03,z,1,0.528,,401.03,401.03,,0,137,137,335,1,336,lilo,,,,,4,notharmonic,1.8,nw,z,,,,,,,
,,,,,,,,,,,,001,2023-11-07_21h51.41.979,vowel_harmony,2023.2.3,MacIntel,100,401.031,402.03,,,,,,,,,,,,,,,,,,,,,,,,,,402.03,402.681,z,1,0.629,,402.681,402.681,,0,138,138,309,1,310,yorgen,,,,,6,notharmonic,1.9,nw,z,,,,,,,
,,,,,,,,,,,,001,2023-11-07_21h51.41.979,vowel_harmony,2023.2.3,MacIntel,100,402.681,403.68,,,,,,,,,,,,,,,,,,,,,,,,,,403.68,404.247,z,1,0.543,,404.247,404.247,,0,139,139,274,1,275,pisan,,,,,5,notharmonic,1.75,nw,z,,,,,,,
,,,,,,,,,,,,001,2023-11-07_21h51.41.979,vowel_harmony,2023.2.3,MacIntel,100,404.247,405.248,,,,,,,,,,,,,,,,,,,,,,,,,,405.248,405.898,m,1,0.628,,405.898,405.898,,0,140,140,91,1,92,ifade,6177,280.6584,5726,0.626,5,notharmonic,1.7,word,m,,,,,,,
,,,,,,,,,,,,001,2023-11-07_21h51.41.979,vowel_harmony,2023.2.3,MacIntel,100,405.899,406.896,,,,,,,,,,,,,,,,,,,,,,,,,,406.896,407.481,m,1,0.563,,407.481,407.481,,0,141,141,78,1,79,ulusal,1551,70.4713,1355,0.1481,6,harmonic,1.75,word,m,,,,,,,
,,,,,,,,,,,,001,2023-11-07_21h51.41.979,vowel_harmony,2023.2.3,MacIntel,100,407.481,408.481,,,,,,,,,,,,,,,,,,,,,,,,,,408.481,408.998,m,1,0.489,,408.998,408.999,,0,142,142,52,1,53,resim,2506,113.8627,2188,0.2392,5,harmonic,1.4,word,m,,,,,,,
,,,,,,,,,,,,001,2023-11-07_21h51.41.979,vowel_harmony,2023.2.3,MacIntel,100,408.999,409.997,,,,,,,,,,,,,,,,,,,,,,,,,,409.997,410.757,z,1,0.718,,410.757,410.757,,0,143,143,250,1,251,kakuk,,,,,5,harmonic,1.9,nw,z,,,,,,,
,,,,,,,,,,,,001,2023-11-07_21h51.41.979,vowel_harmony,2023.2.3,MacIntel,100,410.758,411.753,,,,,,,,,,,,,,,,,,,,,,,,,,411.753,412.666,m,1,0.89,,412.666,412.667,,0,144,144,167,1,168,adalet,1611,73.1975,1388,0.1517,6,notharmonic,1.65,word,m,,,,,,,
,,,,,,,,,,,,001,2023-11-07_21h51.41.979,vowel_harmony,2023.2.3,MacIntel,100,412.667,413.664,,,,,,,,,,,,,,,,,,,,,,,,,,413.664,414.246,z,1,0.562,,414.246,414.247,,0,145,145,245,1,246,bıyan,,,,,5,harmonic,1.7,nw,z,,,,,,,
,,,,,,,,,,,,001,2023-11-07_21h51.41.979,vowel_harmony,2023.2.3,MacIntel,100,414.247,415.247,,,,,,,,,,,,,,,,,,,,,,,,,,415.247,415.814,m,1,0.545,,415.814,415.814,,0,146,146,130,1,131,hamile,1075,48.8437,877,0.0959,6,notharmonic,1.5,word,m,,,,,,,
,,,,,,,,,,,,001,2023-11-07_21h51.41.979,vowel_harmony,2023.2.3,MacIntel,100,415.814,416.814,,,,,,,,,,,,,,,,,,,,,,,,,,416.814,417.497,m,1,0.663,,417.497,417.497,,0,147,147,149,1,150,ceza,2611,118.6335,2169,0.2371,4,notharmonic,1.5,word,m,,,,,,,
,,,,,,,,,,,,001,2023-11-07_21h51.41.979,vowel_harmony,2023.2.3,MacIntel,100,417.497,418.496,,,,,,,,,,,,,,,,,,,,,,,,,,418.496,419.18,z,1,0.663,,419.18,419.18,,0,148,148,273,1,274,nimal,,,,,5,notharmonic,1.9,nw,z,,,,,,,
,,,,,,,,,,,,001,2023-11-07_21h51.41.979,vowel_harmony,2023.2.3,MacIntel,100,419.18,420.181,,,,,,,,,,,,,,,,,,,,,,,,,,420.181,420.763,m,1,0.563,,420.763,420.763,,0,149,149,79,1,80,durum,6783,308.1926,6431,0.703,5,harmonic,1.7,word,m,,,,,,,
,,,,,,,,,,,,001,2023-11-07_21h51.41.979,vowel_harmony,2023.2.3,MacIntel,100,420.764,421.763,,,,,,,,,,,,,,,,,,,,,,,,,,421.763,422.28,m,1,0.496,,422.28,422.281,,0,150,150,24,1,25,yorgun,1153,52.3877,1108,0.1211,6,harmonic,1.55,word,m,,,,,,,
,,,,,,,,,,,,001,2023-11-07_21h51.41.979,vowel_harmony,2023.2.3,MacIntel,100,422.281,423.28,,,,,,,,,,,,,,,,,,,,,,,,,,423.28,423.914,z,1,0.613,,423.914,423.914,,0,151,151,354,1,355,taden,,,,,5,notharmonic,1.7,nw,z,,,,,,,
,,,,,,,,,,,,001,2023-11-07_21h51.41.979,vowel_harmony,2023.2.3,MacIntel,100,423.914,424.914,,,,,,,,,,,,,,,,,,,,,,,,,,424.914,425.514,z,1,0.573,,425.514,425.514,,0,152,152,342,1,343,kulön,,,,,5,notharmonic,1.9,nw,z,,,,,,,
,,,,,,,,,,,,001,2023-11-07_21h51.41.979,vowel_harmony,2023.2.3,MacIntel,100,425.514,426.514,,,,,,,,,,,,,,,,,,,,,,,,,,426.514,427.147,m,1,0.613,,427.148,427.148,,0,153,153,55,1,56,akıl,2208,100.3228,2004,0.2191,4,harmonic,1,word,m,,,,,,,
,,,,,,,,,,,,001,2023-11-07_21h51.41.979,vowel_harmony,2023.2.3,MacIntel,100,427.148,428.147,,,,,,,,,,,,,,,,,,,,,,,,,,428.147,428.963,m,0,0.795,,428.963,428.963,,0,154,154,214,1,215,vecü,,,,,4,harmonic,1.95,nw,z,,,,,,,
,,,,,,,,,,,,001,2023-11-07_21h51.41.979,vowel_harmony,2023.2.3,MacIntel,100,428.963,429.963,,,,,,,,,,,,,,,,,,,,,,,,,,429.963,430.713,z,1,0.729,,430.713,430.713,,0,155,155,276,1,277,iptap,,,,,5,notharmonic,1.95,nw,z,,,,,,,
,,,,,,,,,,,,001,2023-11-07_21h51.41.979,vowel_harmony,2023.2.3,MacIntel,100,430.713,431.714,,,,,,,,,,,,,,,,,,,,,,,,,,431.714,432.314,m,1,0.577,,432.314,432.314,,0,156,156,139,1,140,lira,1253,56.9314,947,0.1035,4,notharmonic,1.4,word,m,,,,,,,
,,,,,,,,,,,,001,2023-11-07_21h51.41.979,vowel_harmony,2023.2.3,MacIntel,100,432.314,433.314,,,,,,,,,,,,,,,,,,,,,,,,,,433.314,433.915,m,1,0.583,,433.915,433.915,,0,157,157,44,1,45,kayıt,1234,56.0681,1058,0.1157,5,harmonic,1.35,word,m,,,,,,,
,,,,,,,,,,,,001,2023-11-07_21h51.41.979,vowel_harmony,2023.2.3,MacIntel,100,433.915,434.914,,,,,,,,,,,,,,,,,,,,,,,,,,434.914,435.88,m,1,0.944,,435.88,435.88,,0,158,158,172,1,173,milyar,1496,67.9723,1078,0.1178,6,notharmonic,1.85,word,m,,,,,,,
,,,,,,,,,,,,001,2023-11-07_21h51.41.979,vowel_harmony,2023.2.3,MacIntel,100,435.881,436.88,,,,,,,,,,,,,,,,,,,,,,,,,,436.88,437.464,z,1,0.561,,437.464,437.464,,0,159,159,201,1,202,ergiy,,,,,5,harmonic,1.85,nw,z,,,,,,,
,,,,,,,,,,,,001,2023-11-07_21h51.41.979,vowel_harmony,2023.2.3,MacIntel,100,437.464,438.463,,,,,,,,,,,,,,,,,,,,,,,,,,438.463,439.03,m,1,0.541,,439.03,439.03,,0,160,160,58,1,59,ayak,2143,97.3694,1931,0.2111,4,harmonic,1,word,m,,,,,,,
,,,,,,,,,,,,001,2023-11-07_21h51.41.979,vowel_harmony,2023.2.3,MacIntel,100,439.03,440.03,,,,,,,,,,,,,,,,,,,,,,,,,,440.03,440.68,z,1,0.63,,440.68,440.68,,0,161,161,272,1,273,daken,,,,,5,notharmonic,1.8,nw,z,,,,,,,
,,,,,,,,,,,,001,2023-11-07_21h51.41.979,vowel_harmony,2023.2.3,MacIntel,100,440.681,441.68,,,,,,,,,,,,,,,,,,,,,,,,,,441.68,442.413,z,1,0.712,,442.413,442.414,,0,162,162,254,1,255,millek,,,,,6,harmonic,1.8,nw,z,,,,,,,
,,,,,,,,,,,,001,2023-11-07_21h51.41.979,vowel_harmony,2023.2.3,MacIntel,100,442.414,443.413,,,,,,,,,,,,,,,,,,,,,,,,,,443.413,444.397,z,1,0.961,,444.397,444.397,,0,163,163,268,1,269,haldum,,,,,6,harmonic,2,nw,z,,,,,,,
,,,,,,,,,,,,001,2023-11-07_21h51.41.979,vowel_harmony,2023.2.3,MacIntel,100,444.397,445.397,,,,,,,,,,,,,,,,,,,,,,,,,,445.397,446.08,z,1,0.658,,446.08,446.08,,0,164,164,300,1,301,nilgi,,,,,5,notharmonic,1.85,nw,z,,,,,,,
,,,,,,,,,,,,001,2023-11-07_21h51.41.979,vowel_harmony,2023.2.3,MacIntel,100,446.08,447.08,,,,,,,,,,,,,,,,,,,,,,,,,,447.08,448.08,z,1,0.98,,448.08,448.08,,0,165,165,267,1,268,nokuma,,,,,6,harmonic,1.75,nw,z,,,,,,,
,,,,,,,,,,,,001,2023-11-07_21h51.41.979,vowel_harmony,2023.2.3,MacIntel,100,448.08,449.08,,,,,,,,,,,,,,,,,,,,,,,,,,449.08,449.83,z,1,0.73,,449.83,449.83,,0,166,166,181,1,182,rapkı,,,,,5,harmonic,1.85,nw,z,,,,,,,
,,,,,,,,,,,,001,2023-11-07_21h51.41.979,vowel_harmony,2023.2.3,MacIntel,100,449.83,450.829,,,,,,,,,,,,,,,,,,,,,,,,,,450.829,451.436,m,1,0.579,,451.436,451.438,,0,167,167,105,1,106,sahip,10887,494.6621,9847,1.0765,5,notharmonic,1.25,word,m,,,,,,,
,,,,,,,,,,,,001,2023-11-07_21h51.41.979,vowel_harmony,2023.2.3,MacIntel,100,451.438,452.433,,,,,,,,,,,,,,,,,,,,,,,,,,452.433,453.447,z,1,0.984,,453.447,453.447,,0,168,168,343,1,344,tarne,,,,,5,notharmonic,1.85,nw,z,,,,,,,
,,,,,,,,,,,,001,2023-11-07_21h51.41.979,vowel_harmony,2023.2.3,MacIntel,100,453.447,454.447,,,,,,,,,,,,,,,,,,,,,,,,,,454.447,455.063,m,1,0.596,,455.063,455.063,,0,169,169,148,1,149,selam,1868,84.8745,1764,0.1928,5,notharmonic,1.35,word,m,,,,,,,
,,,,,,,,,,,,001,2023-11-07_21h51.41.979,vowel_harmony,2023.2.3,MacIntel,100,455.063,456.064,,,,,,,,,,,,,,,,,,,,,,,,,,456.064,456.613,m,1,0.531,,456.613,456.613,,0,170,170,144,1,145,garip,2567,116.6343,2355,0.2574,5,notharmonic,1.65,word,m,,,,,,,
,,,,,,,,,,,,001,2023-11-07_21h51.41.979,vowel_harmony,2023.2.3,MacIntel,100,456.613,457.613,,,,,,,,,,,,,,,,,,,,,,,,,,457.613,458.213,z,1,0.579,,458.213,458.213,,0,171,171,291,1,292,mepan,,,,,5,notharmonic,1.75,nw,z,,,,,,,
,,,,,,,,,,,,001,2023-11-07_21h51.41.979,vowel_harmony,2023.2.3,MacIntel,100,458.214,459.213,,,,,,,,,,,,,,,,,,,,,,,,,,459.213,459.896,z,1,0.662,,459.896,459.896,,0,172,172,346,1,347,kidan,,,,,5,notharmonic,1.8,nw,z,,,,,,,
,,,,,,,,,,,,001,2023-11-07_21h51.41.979,vowel_harmony,2023.2.3,MacIntel,100,459.896,460.896,,,,,,,,,,,,,,,,,,,,,,,,,,460.896,461.413,m,1,0.498,,461.413,461.413,,0,173,173,13,1,14,nokta,2085,94.7341,1939,0.212,5,harmonic,1.5,word,m,,,,,,,
,,,,,,,,,,,,001,2023-11-07_21h51.41.979,vowel_harmony,2023.2.3,MacIntel,100,461.414,462.413,,,,,,,,,,,,,,,,,,,,,,,,,,462.413,463.363,z,1,0.93,,463.363,463.363,,0,174,174,278,1,279,sekon,,,,,5,notharmonic,1.85,nw,z,,,,,,,
,,,,,,,,,,,,001,2023-11-07_21h51.41.979,vowel_harmony,2023.2.3,MacIntel,100,463.363,464.362,,,,,,,,,,,,,,,,,,,,,,,,,,464.362,464.962,m,1,0.579,,464.962,464.963,,0,175,175,121,1,122,mesaj,1604,72.8794,1386,0.1515,5,notharmonic,1.8,word,m,,,,,,,
,,,,,,,,,,,,001,2023-11-07_21h51.41.979,vowel_harmony,2023.2.3,MacIntel,100,464.963,465.962,,,,,,,,,,,,,,,,,,,,,,,,,,465.962,466.68,m,1,0.698,,466.68,466.68,,0,176,176,19,1,20,ödül,1063,48.2985,926,0.1012,4,harmonic,1.7,word,m,,,,,,,
,,,,,,,,,,,,001,2023-11-07_21h51.41.979,vowel_harmony,2023.2.3,MacIntel,100,466.68,467.68,,,,,,,,,,,,,,,,,,,,,,,,,,467.68,468.296,m,1,0.596,,468.296,468.296,,0,177,177,8,1,9,güven,1433,65.1098,1300,0.1421,5,harmonic,1.35,word,m,,,,,,,
,,,,,,,,,,,,001,2023-11-07_21h51.41.979,vowel_harmony,2023.2.3,MacIntel,100,468.297,469.296,,,,,,,,,,,,,,,,,,,,,,,,,,469.296,469.796,m,1,0.48,,469.796,469.796,,0,178,178,18,1,19,normal,4154,188.7413,3788,0.4141,6,harmonic,1.75,word,m,,,,,,,
,,,,,,,,,,,,001,2023-11-07_21h51.41.979,vowel_harmony,2023.2.3,MacIntel,100,469.796,470.797,,,,,,,,,,,,,,,,,,,,,,,,,,470.797,471.513,z,1,0.694,,471.513,471.513,,0,179,179,359,1,360,kardez,,,,,6,notharmonic,1.95,nw,z,,,,,,,
,,,,,,,,,,,,001,2023-11-07_21h51.41.979,vowel_harmony,2023.2.3,MacIntel,100,471.514,472.512,,,,,,,,,,,,,,,,,,,,,,,,,,472.512,473.163,m,1,0.628,,473.163,473.163,,0,180,180,14,1,15,yaşam,4348,197.5559,3918,0.4283,5,harmonic,1.4,word,m,,,,,,,
,,,,,,,,,,,,001,2023-11-07_21h51.41.979,vowel_harmony,2023.2.3,MacIntel,100,473.163,474.162,,,,,,,,,,,,,,,,,,,,,,,,,,474.162,475.029,m,1,0.845,,475.029,475.029,,0,181,181,40,1,41,tepki,1695,77.0141,1578,0.1725,5,harmonic,1.55,word,m,,,,,,,
,,,,,,,,,,,,001,2023-11-07_21h51.41.979,vowel_harmony,2023.2.3,MacIntel,100,475.029,476.029,,,,,,,,,,,,,,,,,,,,,,,,,,476.029,476.712,m,1,0.664,,476.712,476.713,,0,182,182,95,1,96,takip,4996,226.9984,4651,0.5084,5,notharmonic,1.55,word,m,,,,,,,
,,,,,,,,,,,,001,2023-11-07_21h51.41.979,vowel_harmony,2023.2.3,MacIntel,100,476.713,477.713,,,,,,,,,,,,,,,,,,,,,,,,,,477.713,478.431,z,1,0.701,,478.431,478.431,,0,183,183,310,1,311,yandeş,,,,,6,notharmonic,1.95,nw,z,,,,,,,
,,,,,,,,,,,,001,2023-11-07_21h51.41.979,vowel_harmony,2023.2.3,MacIntel,100,478.432,479.429,,,,,,,,,,,,,,,,,,,,,,,,,,479.429,480.096,m,1,0.646,,480.096,480.096,,0,184,184,151,1,152,ateş,2108,95.7792,1803,0.1971,4,notharmonic,1.65,word,m,,,,,,,
,,,,,,,,,,,,001,2023-11-07_21h51.41.979,vowel_harmony,2023.2.3,MacIntel,100,480.096,481.096,,,,,,,,,,,,,,,,,,,,,,,,,,481.096,481.813,m,1,0.698,,481.813,481.814,,0,185,185,104,1,105,cevap,5232,237.7213,4822,0.5271,5,notharmonic,1.85,word,m,,,,,,,
,,,,,,,,,,,,001,2023-11-07_21h51.41.979,vowel_harmony,2023.2.3,MacIntel,100,481.814,482.812,,,,,,,,,,,,,,,,,,,,,,,,,,482.812,483.446,z,1,0.608,,483.446,483.447,,0,186,186,283,1,284,fahe,,,,,4,notharmonic,1.95,nw,z,,,,,,,
,,,,,,,,,,,,001,2023-11-07_21h51.41.979,vowel_harmony,2023.2.3,MacIntel,100,483.447,484.446,,,,,,,,,,,,,,,,,,,,,,,,,,484.447,485.33,z,1,0.863,,485.33,485.33,,0,187,187,234,1,235,düzöt,,,,,5,harmonic,2.05,nw,z,,,,,,,
,,,,,,,,,,,,001,2023-11-07_21h51.41.979,vowel_harmony,2023.2.3,MacIntel,100,485.33,486.329,,,,,,,,,,,,,,,,,,,,,,,,,,486.329,487.246,z,0,0.896,,487.246,487.246,,0,188,188,66,1,67,sanık,768,34.8949,699,0.0764,5,harmonic,1.85,word,m,,,,,,,
,,,,,,,,,,,,001,2023-11-07_21h51.41.979,vowel_harmony,2023.2.3,MacIntel,100,487.246,488.246,,,,,,,,,,,,,,,,,,,,,,,,,,488.246,488.796,m,1,0.527,,488.796,488.797,,0,189,189,28,1,29,parlak,1142,51.888,1088,0.1189,6,harmonic,1.7,word,m,,,,,,,
,,,,,,,,,,,,001,2023-11-07_21h51.41.979,vowel_harmony,2023.2.3,MacIntel,100,488.797,489.796,,,,,,,,,,,,,,,,,,,,,,,,,,489.796,491.262,z,1,1.447,,491.262,491.262,,0,190,190,224,1,225,ertre,,,,,5,harmonic,1.95,nw,z,,,,,,,
,,,,,,,,,,,,001,2023-11-07_21h51.41.979,vowel_harmony,2023.2.3,MacIntel,100,491.263,492.263,,,,,,,,,,,,,,,,,,,,,,,,,,492.263,493.063,z,1,0.778,,493.063,493.063,,0,191,191,260,1,261,yarlam,,,,,6,harmonic,1.75,nw,z,,,,,,,
,,,,,,,,,,,,001,2023-11-07_21h51.41.979,vowel_harmony,2023.2.3,MacIntel,100,493.063,494.063,,,,,,,,,,,,,,,,,,,,,,,,,,494.063,494.713,z,1,0.631,,494.713,494.713,,0,192,192,303,1,304,fisor,,,,,5,notharmonic,1.9,nw,z,,,,,,,
,,,,,,,,,,,,001,2023-11-07_21h51.41.979,vowel_harmony,2023.2.3,MacIntel,100,494.713,495.713,,,,,,,,,,,,,,,,,,,,,,,,,,495.713,496.38,m,1,0.648,,496.38,496.38,,0,193,193,5,1,6,bebek,3301,149.9843,2794,0.3054,5,harmonic,1.6,word,m,,,,,,,
,,,,,,,,,,,,001,2023-11-07_21h51.41.979,vowel_harmony,2023.2.3,MacIntel,100,496.38,497.379,,,,,,,,,,,,,,,,,,,,,,,,,,497.379,498.03,z,1,0.633,,498.03,498.03,,0,194,194,186,1,187,habık,,,,,5,harmonic,1.9,nw,z,,,,,,,
,,,,,,,,,,,,001,2023-11-07_21h51.41.979,vowel_harmony,2023.2.3,MacIntel,100,498.03,499.029,,,,,,,,,,,,,,,,,,,,,,,,,,499.029,499.546,m,1,0.498,,499.546,499.546,,0,195,195,143,1,144,kitap,8359,379.7998,6786,0.7418,5,notharmonic,1.9,word,m,,,,,,,
,,,,,,,,,,,,001,2023-11-07_21h51.41.979,vowel_harmony,2023.2.3,MacIntel,100,499.547,500.546,,,,,,,,,,,,,,,,,,,,,,,,,,500.546,501.185,m,1,0.61,,501.185,501.185,,0,196,196,37,1,38,hayvan,2363,107.3653,1894,0.2071,6,harmonic,1.5,word,m,,,,,,,
,,,,,,,,,,,,001,2023-11-07_21h51.41.979,vowel_harmony,2023.2.3,MacIntel,100,501.185,502.183,,,,,,,,,,,,,,,,,,,,,,,,,,502.184,502.859,z,1,0.651,,502.859,502.859,,0,197,197,306,1,307,otet,,,,,4,notharmonic,1.95,nw,z,,,,,,,
,,,,,,,,,,,,001,2023-11-07_21h51.41.979,vowel_harmony,2023.2.3,MacIntel,100,502.859,503.851,,,,,,,,,,,,,,,,,,,,,,,,,,503.851,504.44,m,1,0.565,,504.44,504.44,,0,198,198,29,1,30,huzur,1911,86.8283,1799,0.1967,5,harmonic,1.8,word,m,,,,,,,
,,,,,,,,,,,,001,2023-11-07_21h51.41.979,vowel_harmony,2023.2.3,MacIntel,100,504.44,505.435,,,,,,,,,,,,,,,,,,,,,,,,,,505.435,506.202,z,1,0.74,,506.202,506.203,,0,199,199,356,1,357,mergun,,,,,6,notharmonic,1.95,nw,z,,,,,,,
,,,,,,,,,,,,001,2023-11-07_21h51.41.979,vowel_harmony,2023.2.3,MacIntel,100,506.203,507.198,,,,,,,,,,,,,,,,,,,,,,,,,,507.198,508.219,m,0,0.992,,508.219,508.219,,0,200,200,341,1,342,işgan,,,,,5,notharmonic,1.95,nw,z,,,,,,,
,,,,,,,,,,,,001,2023-11-07_21h51.41.979,vowel_harmony,2023.2.3,MacIntel,100,508.219,509.213,,,,,,,,,,,,,,,,,,,,,,,,,,509.213,510.014,z,1,0.781,,510.014,510.014,,0,201,201,297,1,298,sapet,,,,,5,notharmonic,1.85,nw,z,,,,,,,
,,,,,,,,,,,,001,2023-11-07_21h51.41.979,vowel_harmony,2023.2.3,MacIntel,100,510.014,511.013,,,,,,,,,,,,,,,,,,,,,,,,,,511.013,511.579,z,1,0.546,,511.579,511.579,,0,202,202,262,1,263,sauk,,,,,4,harmonic,1.85,nw,z,,,,,,,
,,,,,,,,,,,,001,2023-11-07_21h51.41.979,vowel_harmony,2023.2.3,MacIntel,100,511.579,512.579,,,,,,,,,,,,,,,,,,,,,,,,,,512.579,513.146,m,1,0.546,,513.146,513.146,,0,203,203,39,1,40,yaygın,1061,48.2076,1019,0.1114,6,harmonic,1.35,word,m,,,,,,,
,,,,,,,,,,,,001,2023-11-07_21h51.41.979,vowel_harmony,2023.2.3,MacIntel,100,513.147,514.146,,,,,,,,,,,,,,,,,,,,,,,,,,514.146,514.796,z,1,0.63,,514.796,514.796,,0,204,204,229,1,230,tonam,,,,,5,harmonic,1.8,nw,z,,,,,,,
,,,,,,,,,,,,001,2023-11-07_21h51.41.979,vowel_harmony,2023.2.3,MacIntel,100,514.796,515.795,,,,,,,,,,,,,,,,,,,,,,,,,,515.795,516.645,z,1,0.823,,516.645,516.645,,0,205,205,320,1,321,finak,,,,,5,notharmonic,1.85,nw,z,,,,,,,
,,,,,,,,,,,,001,2023-11-07_21h51.41.979,vowel_harmony,2023.2.3,MacIntel,100,516.646,517.646,,,,,,,,,,,,,,,,,,,,,,,,,,517.646,518.396,z,1,0.73,,518.396,518.396,,0,206,206,326,1,327,ailo,,,,,4,notharmonic,1.75,nw,z,,,,,,,
,,,,,,,,,,,,001,2023-11-07_21h51.41.979,vowel_harmony,2023.2.3,MacIntel,100,518.396,519.396,,,,,,,,,,,,,,,,,,,,,,,,,,519.396,519.979,m,1,0.56,,519.979,519.979,,0,207,207,51,1,52,ilginç,2803,127.3572,2690,0.2941,6,harmonic,1.8,word,m,,,,,,,
,,,,,,,,,,,,001,2023-11-07_21h51.41.979,vowel_harmony,2023.2.3,MacIntel,100,519.98,520.979,,,,,,,,,,,,,,,,,,,,,,,,,,520.979,521.68,m,1,0.681,,521.68,521.68,,0,208,208,157,1,158,aktif,1062,48.2531,986,0.1078,5,notharmonic,1.9,word,m,,,,,,,
,,,,,,,,,,,,001,2023-11-07_21h51.41.979,vowel_harmony,2023.2.3,MacIntel,100,521.68,522.681,,,,,,,,,,,,,,,,,,,,,,,,,,522.681,523.459,m,1,0.753,,523.459,523.459,,0,209,209,135,1,136,hafif,3355,152.4379,3101,0.339,5,notharmonic,1.75,word,m,,,,,,,
,,,,,,,,,,,,001,2023-11-07_21h51.41.979,vowel_harmony,2023.2.3,MacIntel,100,523.459,524.463,,,,,,,,,,,,,,,,,,,,,,,,,,524.463,525.07,m,1,0.57,,525.07,525.07,,0,210,210,81,1,82,üretim,1593,72.3796,1283,0.1403,6,harmonic,1.6,word,m,,,,,,,
,,,,,,,,,,,,001,2023-11-07_21h51.41.979,vowel_harmony,2023.2.3,MacIntel,100,525.07,526.067,,,,,,,,,,,,,,,,,,,,,,,,,,526.067,526.869,z,1,0.776,,526.869,526.869,,0,211,211,327,1,328,parkeş,,,,,6,notharmonic,1.9,nw,z,,,,,,,
,,,,,,,,,,,,001,2023-11-07_21h51.41.979,vowel_harmony,2023.2.3,MacIntel,100,526.869,527.867,,,,,,,,,,,,,,,,,,,,,,,,,,527.867,528.601,m,1,0.709,,528.601,528.602,,0,212,212,150,1,151,sabit,1046,47.5261,915,0.1,5,notharmonic,1.75,word,m,,,,,,,
,,,,,,,,,,,,001,2023-11-07_21h51.41.979,vowel_harmony,2023.2.3,MacIntel,100,528.602,529.601,,,,,,,,,,,,,,,,,,,,,,,,,,529.601,530.207,z,1,0.581,,530.207,530.207,,0,213,213,180,1,181,ayaro,,,,,5,harmonic,1.8,nw,z,,,,,,,
,,,,,,,,,,,,001,2023-11-07_21h51.41.979,vowel_harmony,2023.2.3,MacIntel,100,530.208,531.199,,,,,,,,,,,,,,,,,,,,,,,,,,531.199,531.8,z,1,0.576,,531.8,531.8,,0,214,214,185,1,186,örtin,,,,,5,harmonic,1.9,nw,z,,,,,,,
,,,,,,,,,,,,001,2023-11-07_21h51.41.979,vowel_harmony,2023.2.3,MacIntel,100,531.8,532.802,,,,,,,,,,,,,,,,,,,,,,,,,,532.802,533.417,m,1,0.59,,533.418,533.418,,0,215,215,90,1,91,tarif,2834,128.7657,2611,0.2854,5,notharmonic,1.5,word,m,,,,,,,
,,,,,,,,,,,,001,2023-11-07_21h51.41.979,vowel_harmony,2023.2.3,MacIntel,100,533.419,534.415,,,,,,,,,,,,,,,,,,,,,,,,,,534.415,535.102,z,1,0.661,,535.103,535.103,,0,216,216,239,1,240,şekik,,,,,5,harmonic,1.7,nw,z,,,,,,,
,,,,,,,,,,,,001,2023-11-07_21h51.41.979,vowel_harmony,2023.2.3,MacIntel,100,535.104,536.102,,,,,,,,,,,,,,,,,,,,,,,,,,536.102,536.835,m,1,0.702,,536.835,536.835,,0,217,217,97,1,98,mevcut,3007,136.6262,2842,0.3107,6,notharmonic,1.95,word,m,,,,,,,
,,,,,,,,,,,,001,2023-11-07_21h51.41.979,vowel_harmony,2023.2.3,MacIntel,100,536.835,537.832,,,,,,,,,,,,,,,,,,,,,,,,,,537.832,538.509,z,1,0.65,,538.509,538.509,,0,218,218,263,1,264,duzur,,,,,5,harmonic,1.8,nw,z,,,,,,,
,,,,,,,,,,,,001,2023-11-07_21h51.41.979,vowel_harmony,2023.2.3,MacIntel,100,538.509,539.498,,,,,,,,,,,,,,,,,,,,,,,,,,539.499,540.184,z,1,0.659,,540.184,540.184,,0,219,219,336,1,337,diyam,,,,,5,notharmonic,1.85,nw,z,,,,,,,
,,,,,,,,,,,,001,2023-11-07_21h51.41.979,vowel_harmony,2023.2.3,MacIntel,100,540.186,541.183,,,,,,,,,,,,,,,,,,,,,,,,,,541.183,541.734,m,1,0.526,,541.734,541.736,,0,220,220,1,1,2,erkek,6188,281.1582,5195,0.5679,5,harmonic,1.65,word,m,,,,,,,
,,,,,,,,,,,,001,2023-11-07_21h51.41.979,vowel_harmony,2023.2.3,MacIntel,100,541.736,542.733,,,,,,,,,,,,,,,,,,,,,,,,,,542.733,543.302,z,1,0.545,,543.302,543.302,,0,221,221,299,1,300,fihal,,,,,5,notharmonic,1.95,nw,z,,,,,,,
,,,,,,,,,,,,001,2023-11-07_21h51.41.979,vowel_harmony,2023.2.3,MacIntel,100,543.303,544.292,,,,,,,,,,,,,,,,,,,,,,,,,,544.292,545.258,z,1,0.938,,545.258,545.258,,0,222,222,237,1,238,taşal,,,,,5,harmonic,1.8,nw,z,,,,,,,
,,,,,,,,,,,,001,2023-11-07_21h51.41.979,vowel_harmony,2023.2.3,MacIntel,100,545.258,546.262,,,,,,,,,,,,,,,,,,,,,,,,,,546.262,547.279,z,1,0.996,,547.279,547.279,,0,223,223,304,1,305,annö,,,,,4,notharmonic,1.95,nw,z,,,,,,,
,,,,,,,,,,,,001,2023-11-07_21h51.41.979,vowel_harmony,2023.2.3,MacIntel,100,547.279,548.279,,,,,,,,,,,,,,,,,,,,,,,,,,548.279,549.312,z,1,1.013,,549.312,549.312,,0,224,224,208,1,209,yayram,,,,,6,harmonic,1.85,nw,z,,,,,,,
,,,,,,,,,,,,001,2023-11-07_21h51.41.979,vowel_harmony,2023.2.3,MacIntel,100,549.312,550.312,,,,,,,,,,,,,,,,,,,,,,,,,,550.312,550.978,z,1,0.644,,550.978,550.978,,0,225,225,209,1,210,sapor,,,,,5,harmonic,1.8,nw,z,,,,,,,
,,,,,,,,,,,,001,2023-11-07_21h51.41.979,vowel_harmony,2023.2.3,MacIntel,100,550.978,551.979,,,,,,,,,,,,,,,,,,,,,,,,,,551.979,552.695,m,1,0.695,,552.695,552.695,,0,226,226,61,1,62,yıldız,1775,80.649,1532,0.1675,6,harmonic,1.6,word,m,,,,,,,
,,,,,,,,,,,,001,2023-11-07_21h51.41.979,vowel_harmony,2023.2.3,MacIntel,100,552.695,553.695,,,,,,,,,,,,,,,,,,,,,,,,,,553.695,554.445,z,1,0.729,,554.445,554.445,,0,227,227,203,1,204,döves,,,,,5,harmonic,1.8,nw,z,,,,,,,
,,,,,,,,,,,,001,2023-11-07_21h51.41.979,vowel_harmony,2023.2.3,MacIntel,100,554.446,555.444,,,,,,,,,,,,,,,,,,,,,,,,,,555.444,556.079,z,1,0.611,,556.08,556.08,,0,228,228,333,1,334,heyran,,,,,6,notharmonic,1.85,nw,z,,,,,,,
,,,,,,,,,,,,001,2023-11-07_21h51.41.979,vowel_harmony,2023.2.3,MacIntel,100,556.08,557.079,,,,,,,,,,,,,,,,,,,,,,,,,,557.079,558.045,m,1,0.945,,558.045,558.045,,0,229,229,9,1,10,karar,8108,368.3954,7436,0.8129,5,harmonic,1.6,word,m,,,,,,,
,,,,,,,,,,,,001,2023-11-07_21h51.41.979,vowel_harmony,2023.2.3,MacIntel,100,558.045,559.045,,,,,,,,,,,,,,,,,,,,,,,,,,559.045,559.694,z,1,0.629,,559.695,559.695,,0,230,230,204,1,205,gerkez,,,,,6,harmonic,1.9,nw,z,,,,,,,
,,,,,,,,,,,,001,2023-11-07_21h51.41.979,vowel_harmony,2023.2.3,MacIntel,100,559.695,560.695,,,,,,,,,,,,,,,,,,,,,,,,,,560.695,561.511,m,1,0.799,,561.511,561.512,,0,231,231,84,1,85,ülke,3121,141.8059,2801,0.3062,4,harmonic,1.65,word,m,,,,,,,
,,,,,,,,,,,,001,2023-11-07_21h51.41.979,vowel_harmony,2023.2.3,MacIntel,100,561.512,562.512,,,,,,,,,,,,,,,,,,,,,,,,,,562.512,563.211,m,1,0.682,,563.211,563.212,,0,232,232,54,1,55,yedek,825,37.4847,732,0.08,5,harmonic,1.65,word,m,,,,,,,
,,,,,,,,,,,,001,2023-11-07_21h51.41.979,vowel_harmony,2023.2.3,MacIntel,100,563.212,564.211,,,,,,,,,,,,,,,,,,,,,,,,,,564.211,564.878,m,1,0.643,,564.878,564.878,,0,233,233,154,1,155,sakin,1855,84.2838,1635,0.1787,5,notharmonic,1.05,word,m,,,,,,,
,,,,,,,,,,,,001,2023-11-07_21h51.41.979,vowel_harmony,2023.2.3,MacIntel,100,564.878,565.879,,,,,,,,,,,,,,,,,,,,,,,,,,565.879,566.463,z,1,0.565,,566.463,566.463,,0,234,234,349,1,350,harten,,,,,6,notharmonic,1.85,nw,z,,,,,,,
,,,,,,,,,,,,001,2023-11-07_21h51.41.979,vowel_harmony,2023.2.3,MacIntel,100,566.464,567.462,,,,,,,,,,,,,,,,,,,,,,,,,,567.462,568.101,m,1,0.609,,568.101,568.101,,0,235,235,132,1,133,modern,2326,105.6842,2031,0.222,6,notharmonic,1.85,word,m,,,,,,,
,,,,,,,,,,,,001,2023-11-07_21h51.41.979,vowel_harmony,2023.2.3,MacIntel,100,568.102,569.098,,,,,,,,,,,,,,,,,,,,,,,,,,569.098,570.069,m,1,0.944,,570.07,570.07,,0,236,236,171,1,172,reklam,1565,71.1074,1244,0.136,6,notharmonic,1.9,word,m,,,,,,,
,,,,,,,,,,,,001,2023-11-07_21h51.41.979,vowel_harmony,2023.2.3,MacIntel,100,570.07,571.062,,,,,,,,,,,,,,,,,,,,,,,,,,571.062,571.628,z,1,0.549,,571.628,571.628,,0,237,237,199,1,200,movu,,,,,4,harmonic,1.9,nw,z,,,,,,,
,,,,,,,,,,,,001,2023-11-07_21h51.41.979,vowel_harmony,2023.2.3,MacIntel,100,571.629,572.628,,,,,,,,,,,,,,,,,,,,,,,,,,572.628,573.495,m,1,0.846,,573.495,573.495,,0,238,238,41,1,42,zengin,2193,99.6412,2015,0.2203,6,harmonic,1.65,word,m,,,,,,,
,,,,,,,,,,,,001,2023-11-07_21h51.41.979,vowel_harmony,2023.2.3,MacIntel,100,573.495,574.494,,,,,,,,,,,,,,,,,,,,,,,,,,574.494,575.111,z,1,0.596,,575.111,575.111,,0,239,239,264,1,265,vepü,,,,,4,harmonic,2,nw,z,,,,,,,
,,,,,,,,,,,,001,2023-11-07_21h51.41.979,vowel_harmony,2023.2.3,MacIntel,100,575.111,576.112,,,,,,,,,,,,,,,,,,,,,,,,,,576.112,576.795,z,1,0.656,,576.795,581.695,space,0,240,240,321,1,322,makih,,,,,5,notharmonic,1.8,nw,z,4.883,,,,,,
,,,,,,,,,,,,001,2023-11-07_21h51.41.979,vowel_harmony,2023.2.3,MacIntel,100,581.695,582.694,,,,,,,,,,,,,,,,,,,,,,,,,,582.694,583.444,m,1,0.729,,583.444,583.444,,0,241,241,75,1,76,roman,1499,68.1086,1281,0.14,5,harmonic,1.6,word,m,,,,,,,
,,,,,,,,,,,,001,2023-11-07_21h51.41.979,vowel_harmony,2023.2.3,MacIntel,100,583.445,584.444,,,,,,,,,,,,,,,,,,,,,,,,,,584.444,584.934,m,1,0.462,,584.934,584.934,,0,242,242,122,1,123,devam,17666,802.673,16284,1.7802,5,notharmonic,1.55,word,m,,,,,,,
,,,,,,,,,,,,001,2023-11-07_21h51.41.979,vowel_harmony,2023.2.3,MacIntel,100,584.935,585.928,,,,,,,,,,,,,,,,,,,,,,,,,,585.928,586.564,z,1,0.618,,586.564,586.565,,0,243,243,348,1,349,aife,,,,,4,notharmonic,1.75,nw,z,,,,,,,
,,,,,,,,,,,,001,2023-11-07_21h51.41.979,vowel_harmony,2023.2.3,MacIntel,100,586.565,587.561,,,,,,,,,,,,,,,,,,,,,,,,,,587.561,588.177,z,1,0.593,,588.177,588.177,,0,244,244,213,1,214,kaun,,,,,4,harmonic,1.7,nw,z,,,,,,,
,,,,,,,,,,,,001,2023-11-07_21h51.41.979,vowel_harmony,2023.2.3,MacIntel,100,588.178,589.178,,,,,,,,,,,,,,,,,,,,,,,,,,589.178,589.678,m,1,0.481,,589.678,589.678,,0,245,245,176,1,177,harika,4682,212.7315,4422,0.4834,6,notharmonic,1.9,word,m,,,,,,,
,,,,,,,,,,,,001,2023-11-07_21h51.41.979,vowel_harmony,2023.2.3,MacIntel,100,589.678,590.678,,,,,,,,,,,,,,,,,,,,,,,,,,590.678,591.612,z,1,0.915,,591.612,591.612,,0,246,246,221,1,222,yaypın,,,,,6,harmonic,1.75,nw,z,,,,,,,
,,,,,,,,,,,,001,2023-11-07_21h51.41.979,vowel_harmony,2023.2.3,MacIntel,100,591.612,592.612,,,,,,,,,,,,,,,,,,,,,,,,,,592.612,593.261,m,1,0.63,,593.262,593.262,,0,247,247,108,1,109,tarih,2806,127.4935,2483,0.2714,5,notharmonic,1.55,word,m,,,,,,,
,,,,,,,,,,,,001,2023-11-07_21h51.41.979,vowel_harmony,2023.2.3,MacIntel,100,593.262,594.262,,,,,,,,,,,,,,,,,,,,,,,,,,594.262,594.812,m,1,0.527,,594.812,594.812,,0,248,248,107,1,108,merak,5806,263.8016,5524,0.6039,5,notharmonic,1.65,word,m,,,,,,,
,,,,,,,,,,,,001,2023-11-07_21h51.41.979,vowel_harmony,2023.2.3,MacIntel,100,594.812,595.812,,,,,,,,,,,,,,,,,,,,,,,,,,595.812,596.412,z,1,0.578,,596.412,596.412,,0,249,249,258,1,259,karıha,,,,,6,harmonic,1.75,nw,z,,,,,,,
,,,,,,,,,,,,001,2023-11-07_21h51.41.979,vowel_harmony,2023.2.3,MacIntel,100,596.412,597.412,,,,,,,,,,,,,,,,,,,,,,,,,,597.412,597.995,m,1,0.562,,597.995,597.995,,0,250,250,6,1,7,hayal,4498,204.3713,4079,0.4459,5,harmonic,1.45,word,m,,,,,,,
,,,,,,,,,,,,001,2023-11-07_21h51.41.979,vowel_harmony,2023.2.3,MacIntel,100,597.995,598.995,,,,,,,,,,,,,,,,,,,,,,,,,,598.995,599.577,m,1,0.56,,599.577,599.577,,0,251,251,21,1,22,duygu,1877,85.2834,1760,0.1924,5,harmonic,1.8,word,m,,,,,,,
,,,,,,,,,,,,001,2023-11-07_21h51.41.979,vowel_harmony,2023.2.3,MacIntel,100,599.577,600.578,,,,,,,,,,,,,,,,,,,,,,,,,,600.578,601.162,z,1,0.564,,601.162,601.162,,0,252,252,257,1,258,zerü,,,,,4,harmonic,1.8,nw,z,,,,,,,
,,,,,,,,,,,,001,2023-11-07_21h51.41.979,vowel_harmony,2023.2.3,MacIntel,100,601.162,602.161,,,,,,,,,,,,,,,,,,,,,,,,,,602.161,603.044,z,1,0.862,,603.044,603.044,,0,253,253,211,1,212,yarum,,,,,5,harmonic,1.75,nw,z,,,,,,,
,,,,,,,,,,,,001,2023-11-07_21h51.41.979,vowel_harmony,2023.2.3,MacIntel,100,603.044,604.045,,,,,,,,,,,,,,,,,,,,,,,,,,604.045,604.613,m,1,0.545,,604.613,604.613,,0,254,254,53,1,54,gelir,7578,344.3143,7014,0.7668,5,harmonic,1.4,word,m,,,,,,,
,,,,,,,,,,,,001,2023-11-07_21h51.41.979,vowel_harmony,2023.2.3,MacIntel,100,604.614,605.611,,,,,,,,,,,,,,,,,,,,,,,,,,605.611,606.13,m,1,0.497,,606.135,606.135,,0,255,255,177,1,178,tekrar,10788,490.1639,9352,1.0224,6,notharmonic,1.85,word,m,,,,,,,
,,,,,,,,,,,,001,2023-11-07_21h51.41.979,vowel_harmony,2023.2.3,MacIntel,100,606.135,607.128,,,,,,,,,,,,,,,,,,,,,,,,,,607.128,607.844,z,1,0.697,,607.844,607.844,,0,256,256,215,1,216,aydo,,,,,4,harmonic,1.9,nw,z,,,,,,,
,,,,,,,,,,,,001,2023-11-07_21h51.41.979,vowel_harmony,2023.2.3,MacIntel,100,607.845,608.845,,,,,,,,,,,,,,,,,,,,,,,,,,608.845,609.461,m,1,0.593,,609.461,609.461,,0,257,257,23,1,24,kurum,986,44.7999,882,0.0964,5,harmonic,1.75,word,m,,,,,,,
,,,,,,,,,,,,001,2023-11-07_21h51.41.979,vowel_harmony,2023.2.3,MacIntel,100,609.461,610.461,,,,,,,,,,,,,,,,,,,,,,,,,,610.461,611.078,z,1,0.595,,611.078,611.078,,0,258,258,256,1,257,yaruza,,,,,6,harmonic,1.9,nw,z,,,,,,,
,,,,,,,,,,,,001,2023-11-07_21h51.41.979,vowel_harmony,2023.2.3,MacIntel,100,611.079,612.078,,,,,,,,,,,,,,,,,,,,,,,,,,612.078,612.727,m,1,0.63,,612.727,612.727,,0,259,259,85,1,86,geçmiş,4195,190.6042,4039,0.4415,6,harmonic,1.55,word,m,,,,,,,
,,,,,,,,,,,,001,2023-11-07_21h51.41.979,vowel_harmony,2023.2.3,MacIntel,100,612.728,613.727,,,,,,,,,,,,,,,,,,,,,,,,,,613.727,614.577,z,1,0.823,,614.577,614.577,,0,260,260,184,1,185,yapor,,,,,5,harmonic,1.9,nw,z,,,,,,,
,,,,,,,,,,,,001,2023-11-07_21h51.41.979,vowel_harmony,2023.2.3,MacIntel,100,614.578,615.578,,,,,,,,,,,,,,,,,,,,,,,,,,615.578,616.427,m,1,0.827,,616.427,616.428,,0,261,261,10,1,11,bardak,1728,78.5135,1569,0.1715,6,harmonic,1.6,word,m,,,,,,,
,,,,,,,,,,,,001,2023-11-07_21h51.41.979,vowel_harmony,2023.2.3,MacIntel,100,616.428,617.427,,,,,,,,,,,,,,,,,,,,,,,,,,617.427,617.977,m,1,0.53,,617.977,617.978,,0,262,262,168,1,169,kilo,3389,153.9827,2646,0.2893,4,notharmonic,1.65,word,m,,,,,,,
,,,,,,,,,,,,001,2023-11-07_21h51.41.979,vowel_harmony,2023.2.3,MacIntel,100,617.978,618.977,,,,,,,,,,,,,,,,,,,,,,,,,,618.977,619.644,m,1,0.646,,619.644,619.644,,0,263,263,110,1,111,rüya,1062,48.2531,937,0.1024,4,notharmonic,1.75,word,m,,,,,,,
,,,,,,,,,,,,001,2023-11-07_21h51.41.979,vowel_harmony,2023.2.3,MacIntel,100,619.644,620.645,,,,,,,,,,,,,,,,,,,,,,,,,,620.645,621.461,z,1,0.794,,621.461,621.462,,0,264,264,232,1,233,kanur,,,,,5,harmonic,1.7,nw,z,,,,,,,
,,,,,,,,,,,,001,2023-11-07_21h51.41.979,vowel_harmony,2023.2.3,MacIntel,100,621.462,622.461,,,,,,,,,,,,,,,,,,,,,,,,,,622.461,623.077,m,1,0.594,,623.077,623.077,,0,265,265,134,1,135,iptal,793,36.0308,725,0.0793,5,notharmonic,1.35,word,m,,,,,,,
,,,,,,,,,,,,001,2023-11-07_21h51.41.979,vowel_harmony,2023.2.3,MacIntel,100,623.078,624.077,,,,,,,,,,,,,,,,,,,,,,,,,,624.077,624.66,m,1,0.562,,624.66,624.66,,0,266,266,45,1,46,bilgi,5981,271.7529,5353,0.5852,5,harmonic,1.5,word,m,,,,,,,
,,,,,,,,,,,,001,2023-11-07_21h51.41.979,vowel_harmony,2023.2.3,MacIntel,100,624.661,625.661,,,,,,,,,,,,,,,,,,,,,,,,,,625.661,626.26,z,1,0.578,,626.26,626.26,,0,267,267,231,1,232,norgun,,,,,6,harmonic,1.75,nw,z,,,,,,,
,,,,,,,,,,,,001,2023-11-07_21h51.41.979,vowel_harmony,2023.2.3,MacIntel,100,626.261,627.261,,,,,,,,,,,,,,,,,,,,,,,,,,627.261,627.794,m,1,0.513,,627.794,627.794,,0,268,268,101,1,102,imza,1358,61.7021,1253,0.137,4,notharmonic,1.65,word,m,,,,,,,
,,,,,,,,,,,,001,2023-11-07_21h51.41.979,vowel_harmony,2023.2.3,MacIntel,100,627.794,628.794,,,,,,,,,,,,,,,,,,,,,,,,,,628.794,629.411,z,1,0.596,,629.411,629.411,,0,269,269,292,1,293,kinam,,,,,5,notharmonic,1.85,nw,z,,,,,,,
,,,,,,,,,,,,001,2023-11-07_21h51.41.979,vowel_harmony,2023.2.3,MacIntel,100,629.411,630.411,,,,,,,,,,,,,,,,,,,,,,,,,,630.411,631.211,z,1,0.78,,631.211,631.211,,0,270,270,206,1,207,bevek,,,,,5,harmonic,1.75,nw,z,,,,,,,
,,,,,,,,,,,,001,2023-11-07_21h51.41.979,vowel_harmony,2023.2.3,MacIntel,100,631.212,632.211,,,,,,,,,,,,,,,,,,,,,,,,,,632.211,632.71,z,1,0.48,,632.71,632.71,,0,271,271,191,1,192,doab,,,,,4,harmonic,2,nw,z,,,,,,,
,,,,,,,,,,,,001,2023-11-07_21h51.41.979,vowel_harmony,2023.2.3,MacIntel,100,632.711,633.711,,,,,,,,,,,,,,,,,,,,,,,,,,633.711,634.26,z,1,0.527,,634.26,634.26,,0,272,272,249,1,250,hurıt,,,,,5,harmonic,1.95,nw,z,,,,,,,
,,,,,,,,,,,,001,2023-11-07_21h51.41.979,vowel_harmony,2023.2.3,MacIntel,100,634.26,635.261,,,,,,,,,,,,,,,,,,,,,,,,,,635.261,636.161,z,1,0.879,,636.161,636.161,,0,273,273,198,1,199,yarbız,,,,,6,harmonic,1.95,nw,z,,,,,,,
,,,,,,,,,,,,001,2023-11-07_21h51.41.979,vowel_harmony,2023.2.3,MacIntel,100,636.161,637.16,,,,,,,,,,,,,,,,,,,,,,,,,,637.16,637.76,m,1,0.58,,637.76,637.76,,0,274,274,57,1,58,bölüm,1910,86.7828,1605,0.1755,5,harmonic,1.45,word,m,,,,,,,
,,,,,,,,,,,,001,2023-11-07_21h51.41.979,vowel_harmony,2023.2.3,MacIntel,100,637.76,638.76,,,,,,,,,,,,,,,,,,,,,,,,,,638.76,639.511,z,1,0.732,,639.511,639.511,,0,275,275,293,1,294,esnan,,,,,5,notharmonic,1.85,nw,z,,,,,,,
,,,,,,,,,,,,001,2023-11-07_21h51.41.979,vowel_harmony,2023.2.3,MacIntel,100,639.511,640.51,,,,,,,,,,,,,,,,,,,,,,,,,,640.51,641.311,z,1,0.78,,641.311,641.311,,0,276,276,318,1,319,yorgün,,,,,6,notharmonic,1.9,nw,z,,,,,,,
,,,,,,,,,,,,001,2023-11-07_21h51.41.979,vowel_harmony,2023.2.3,MacIntel,100,641.311,642.311,,,,,,,,,,,,,,,,,,,,,,,,,,642.311,642.943,z,1,0.611,,642.943,642.943,,0,277,277,200,1,201,duşın,,,,,5,harmonic,1.9,nw,z,,,,,,,
,,,,,,,,,,,,001,2023-11-07_21h51.41.979,vowel_harmony,2023.2.3,MacIntel,100,642.944,643.944,,,,,,,,,,,,,,,,,,,,,,,,,,643.944,644.71,m,1,0.745,,644.71,644.71,,0,278,278,69,1,70,forma,719,32.6685,597,0.0653,5,harmonic,1.8,word,m,,,,,,,
,,,,,,,,,,,,001,2023-11-07_21h51.41.979,vowel_harmony,2023.2.3,MacIntel,100,644.71,645.71,,,,,,,,,,,,,,,,,,,,,,,,,,645.71,646.31,z,0,0.579,,646.31,646.31,,0,279,279,166,1,167,maden,402,18.2653,339,0.0371,5,notharmonic,1.45,word,m,,,,,,,
,,,,,,,,,,,,001,2023-11-07_21h51.41.979,vowel_harmony,2023.2.3,MacIntel,100,646.31,647.31,,,,,,,,,,,,,,,,,,,,,,,,,,647.31,648.793,m,1,1.463,,648.793,648.793,,0,280,280,3,1,4,minik,2916,132.4915,2594,0.2836,5,harmonic,1.6,word,m,,,,,,,
,,,,,,,,,,,,001,2023-11-07_21h51.41.979,vowel_harmony,2023.2.3,MacIntel,100,648.794,649.794,,,,,,,,,,,,,,,,,,,,,,,,,,649.794,650.544,m,1,0.729,,650.545,650.545,,0,281,281,47,1,48,kaza,740,33.6227,679,0.0742,4,harmonic,1.85,word,m,,,,,,,
,,,,,,,,,,,,001,2023-11-07_21h51.41.979,vowel_harmony,2023.2.3,MacIntel,100,650.545,651.544,,,,,,,,,,,,,,,,,,,,,,,,,,651.544,652.611,z,1,1.045,,652.611,652.611,,0,282,282,334,1,335,işgan,,,,,5,notharmonic,1.95,nw,z,,,,,,,
,,,,,,,,,,,,001,2023-11-07_21h51.41.979,vowel_harmony,2023.2.3,MacIntel,100,652.611,653.611,,,,,,,,,,,,,,,,,,,,,,,,,,653.611,654.393,z,1,0.76,,654.393,654.393,,0,283,283,259,1,260,hayuk,,,,,5,harmonic,1.95,nw,z,,,,,,,
,,,,,,,,,,,,001,2023-11-07_21h51.41.979,vowel_harmony,2023.2.3,MacIntel,100,654.394,655.394,,,,,,,,,,,,,,,,,,,,,,,,,,655.394,655.977,m,1,0.564,,655.977,655.977,,0,284,284,67,1,68,bayram,1948,88.5094,1648,0.1802,6,harmonic,1.85,word,m,,,,,,,
,,,,,,,,,,,,001,2023-11-07_21h51.41.979,vowel_harmony,2023.2.3,MacIntel,100,655.978,656.977,,,,,,,,,,,,,,,,,,,,,,,,,,656.977,657.976,z,1,0.979,,657.976,657.977,,0,285,285,312,1,313,şahmin,,,,,6,notharmonic,1.8,nw,z,,,,,,,
,,,,,,,,,,,,001,2023-11-07_21h51.41.979,vowel_harmony,2023.2.3,MacIntel,100,657.977,658.977,,,,,,,,,,,,,,,,,,,,,,,,,,658.977,659.676,m,1,0.679,,659.677,659.677,,0,286,286,169,1,170,hikaye,1555,70.653,1405,0.1536,6,notharmonic,1.8,word,m,,,,,,,
,,,,,,,,,,,,001,2023-11-07_21h51.41.979,vowel_harmony,2023.2.3,MacIntel,100,659.677,660.677,,,,,,,,,,,,,,,,,,,,,,,,,,660.677,661.477,z,1,0.78,,661.477,661.477,,0,287,287,347,1,348,tekram,,,,,6,notharmonic,1.95,nw,z,,,,,,,
,,,,,,,,,,,,001,2023-11-07_21h51.41.979,vowel_harmony,2023.2.3,MacIntel,100,661.477,662.477,,,,,,,,,,,,,,,,,,,,,,,,,,662.477,663.26,m,1,0.762,,663.26,663.26,,0,288,288,165,1,166,gazete,1402,63.7013,1270,0.1388,6,notharmonic,1.8,word,m,,,,,,,
,,,,,,,,,,,,001,2023-11-07_21h51.41.979,vowel_harmony,2023.2.3,MacIntel,100,663.26,664.261,,,,,,,,,,,,,,,,,,,,,,,,,,664.261,664.86,z,1,0.58,,664.86,664.86,,0,289,289,344,1,345,barika,,,,,6,notharmonic,1.75,nw,z,,,,,,,
,,,,,,,,,,,,001,2023-11-07_21h51.41.979,vowel_harmony,2023.2.3,MacIntel,100,664.86,665.861,,,,,,,,,,,,,,,,,,,,,,,,,,665.861,666.776,z,1,0.895,,666.776,666.777,,0,290,290,290,1,291,aipa,,,,,4,notharmonic,1.95,nw,z,,,,,,,
,,,,,,,,,,,,001,2023-11-07_21h51.41.979,vowel_harmony,2023.2.3,MacIntel,100,666.777,667.777,,,,,,,,,,,,,,,,,,,,,,,,,,667.777,668.26,m,1,0.463,,668.26,668.26,,0,291,291,49,1,50,şeker,4708,213.9128,4170,0.4559,5,harmonic,1.6,word,m,,,,,,,
,,,,,,,,,,,,001,2023-11-07_21h51.41.979,vowel_harmony,2023.2.3,MacIntel,100,668.26,669.261,,,,,,,,,,,,,,,,,,,,,,,,,,669.261,669.826,z,1,0.546,,669.826,669.826,,0,292,292,205,1,206,kahay,,,,,5,harmonic,1.9,nw,z,,,,,,,
,,,,,,,,,,,,001,2023-11-07_21h51.41.979,vowel_harmony,2023.2.3,MacIntel,100,669.827,670.827,,,,,,,,,,,,,,,,,,,,,,,,,,670.827,671.46,m,1,0.612,,671.46,671.46,,0,293,293,133,1,134,taze,2268,103.0489,2062,0.2254,4,notharmonic,1.65,word,m,,,,,,,
,,,,,,,,,,,,001,2023-11-07_21h51.41.979,vowel_harmony,2023.2.3,MacIntel,100,671.46,672.461,,,,,,,,,,,,,,,,,,,,,,,,,,672.461,673.076,m,1,0.595,,673.076,673.076,,0,294,294,156,1,157,medya,1784,81.0579,1495,0.1634,5,notharmonic,1.35,word,m,,,,,,,
,,,,,,,,,,,,001,2023-11-07_21h51.41.979,vowel_harmony,2023.2.3,MacIntel,100,673.076,674.077,,,,,,,,,,,,,,,,,,,,,,,,,,674.077,674.91,m,1,0.812,,674.91,674.91,,0,295,295,102,1,103,esas,1965,89.2818,1795,0.1962,4,notharmonic,1.75,word,m,,,,,,,
,,,,,,,,,,,,001,2023-11-07_21h51.41.979,vowel_harmony,2023.2.3,MacIntel,100,674.91,675.909,,,,,,,,,,,,,,,,,,,,,,,,,,675.909,676.493,m,1,0.562,,676.493,676.493,,0,296,296,127,1,128,şahane,1153,52.3877,1108,0.1211,6,notharmonic,1.8,word,m,,,,,,,
,,,,,,,,,,,,001,2023-11-07_21h51.41.979,vowel_harmony,2023.2.3,MacIntel,100,676.494,677.493,,,,,,,,,,,,,,,,,,,,,,,,,,677.493,678.159,m,1,0.646,,678.159,678.159,,0,297,297,125,1,126,ikna,1276,57.9764,1173,0.1282,4,notharmonic,1.85,word,m,,,,,,,
,,,,,,,,,,,,001,2023-11-07_21h51.41.979,vowel_harmony,2023.2.3,MacIntel,100,678.16,679.16,,,,,,,,,,,,,,,,,,,,,,,,,,679.16,679.81,z,1,0.629,,679.81,679.81,,0,298,298,218,1,219,tezöl,,,,,5,harmonic,2,nw,z,,,,,,,
,,,,,,,,,,,,001,2023-11-07_21h51.41.979,vowel_harmony,2023.2.3,MacIntel,100,679.81,680.81,,,,,,,,,,,,,,,,,,,,,,,,,,680.81,681.36,m,1,0.53,,681.36,681.36,,0,299,299,73,1,74,millet,1658,75.3329,1508,0.1649,6,harmonic,1.7,word,m,,,,,,,
,,,,,,,,,,,,001,2023-11-07_21h51.41.979,vowel_harmony,2023.2.3,MacIntel,100,681.361,682.36,,,,,,,,,,,,,,,,,,,,,,,,,,682.36,683.043,z,1,0.663,,683.044,683.044,,0,300,300,315,1,316,takep,,,,,5,notharmonic,1.85,nw,z,,,,,,,
,,,,,,,,,,,,001,2023-11-07_21h51.41.979,vowel_harmony,2023.2.3,MacIntel,100,683.044,684.043,,,,,,,,,,,,,,,,,,,,,,,,,,684.043,684.744,m,1,0.68,,684.744,684.744,,0,301,301,74,1,75,başarı,1398,63.5196,1300,0.1421,6,harmonic,1.2,word,m,,,,,,,
,,,,,,,,,,,,001,2023-11-07_21h51.41.979,vowel_harmony,2023.2.3,MacIntel,100,684.745,685.744,,,,,,,,,,,,,,,,,,,,,,,,,,685.744,686.376,m,1,0.612,,686.376,686.376,,0,302,302,117,1,118,nasip,1069,48.5711,1042,0.1139,5,notharmonic,1.8,word,m,,,,,,,
,,,,,,,,,,,,001,2023-11-07_21h51.41.979,vowel_harmony,2023.2.3,MacIntel,100,686.376,687.376,,,,,,,,,,,,,,,,,,,,,,,,,,687.376,688.11,z,1,0.714,,688.11,688.11,,0,303,303,317,1,318,mevul,,,,,5,notharmonic,1.95,nw,z,,,,,,,
,,,,,,,,,,,,001,2023-11-07_21h51.41.979,vowel_harmony,2023.2.3,MacIntel,100,688.11,689.109,,,,,,,,,,,,,,,,,,,,,,,,,,689.109,689.959,z,1,0.83,,689.959,689.959,,0,304,304,325,1,326,garit,,,,,5,notharmonic,1.85,nw,z,,,,,,,
,,,,,,,,,,,,001,2023-11-07_21h51.41.979,vowel_harmony,2023.2.3,MacIntel,100,689.96,690.96,,,,,,,,,,,,,,,,,,,,,,,,,,690.96,691.693,z,1,0.712,,691.693,691.693,,0,305,305,279,1,280,tadde,,,,,5,notharmonic,1.8,nw,z,,,,,,,
,,,,,,,,,,,,001,2023-11-07_21h51.41.979,vowel_harmony,2023.2.3,MacIntel,100,691.694,692.693,,,,,,,,,,,,,,,,,,,,,,,,,,692.693,693.676,z,1,0.962,,693.676,693.676,,0,306,306,261,1,262,kardok,,,,,6,harmonic,1.95,nw,z,,,,,,,
,,,,,,,,,,,,001,2023-11-07_21h51.41.979,vowel_harmony,2023.2.3,MacIntel,100,693.677,694.677,,,,,,,,,,,,,,,,,,,,,,,,,,694.677,695.409,m,1,0.713,,695.41,695.41,,0,307,307,140,1,141,sahil,481,21.8547,443,0.0484,5,notharmonic,1.45,word,m,,,,,,,
,,,,,,,,,,,,001,2023-11-07_21h51.41.979,vowel_harmony,2023.2.3,MacIntel,100,695.41,696.41,,,,,,,,,,,,,,,,,,,,,,,,,,696.41,697.026,z,1,0.596,,697.026,697.026,,0,308,308,282,1,283,taöz,,,,,4,notharmonic,1.9,nw,z,,,,,,,
,,,,,,,,,,,,001,2023-11-07_21h51.41.979,vowel_harmony,2023.2.3,MacIntel,100,697.026,698.026,,,,,,,,,,,,,,,,,,,,,,,,,,698.026,698.611,m,1,0.565,,698.611,698.611,,0,309,309,59,1,60,köpek,1044,47.4352,901,0.0985,5,harmonic,1.75,word,m,,,,,,,
,,,,,,,,,,,,001,2023-11-07_21h51.41.979,vowel_harmony,2023.2.3,MacIntel,100,698.614,699.61,,,,,,,,,,,,,,,,,,,,,,,,,,699.611,700.743,z,1,1.112,,700.743,700.743,,0,310,310,357,1,358,işarek,,,,,6,notharmonic,1.95,nw,z,,,,,,,
,,,,,,,,,,,,001,2023-11-07_21h51.41.979,vowel_harmony,2023.2.3,MacIntel,100,700.743,701.744,,,,,,,,,,,,,,,,,,,,,,,,,,701.744,702.376,m,1,0.614,,702.376,702.376,,0,311,311,142,1,143,siyasi,2909,132.1734,2445,0.2673,6,notharmonic,1.8,word,m,,,,,,,
,,,,,,,,,,,,001,2023-11-07_21h51.41.979,vowel_harmony,2023.2.3,MacIntel,100,702.376,703.376,,,,,,,,,,,,,,,,,,,,,,,,,,703.376,704.009,z,1,0.615,,704.009,704.009,,0,312,312,298,1,299,yelsın,,,,,6,notharmonic,1.95,nw,z,,,,,,,
,,,,,,,,,,,,001,2023-11-07_21h51.41.979,vowel_harmony,2023.2.3,MacIntel,100,704.009,705.01,,,,,,,,,,,,,,,,,,,,,,,,,,705.01,705.577,m,1,0.547,,705.577,705.577,,0,313,313,103,1,104,tane,5623,255.4868,5075,0.5548,4,notharmonic,1.3,word,m,,,,,,,
,,,,,,,,,,,,001,2023-11-07_21h51.41.979,vowel_harmony,2023.2.3,MacIntel,100,705.577,706.576,,,,,,,,,,,,,,,,,,,,,,,,,,706.576,707.276,z,1,0.679,,707.276,707.276,,0,314,314,305,1,306,tamü,,,,,4,notharmonic,1.75,nw,z,,,,,,,
,,,,,,,,,,,,001,2023-11-07_21h51.41.979,vowel_harmony,2023.2.3,MacIntel,100,707.277,708.277,,,,,,,,,,,,,,,,,,,,,,,,,,708.277,708.893,z,1,0.596,,708.893,708.893,,0,315,315,248,1,249,şegim,,,,,5,harmonic,1.9,nw,z,,,,,,,
,,,,,,,,,,,,001,2023-11-07_21h51.41.979,vowel_harmony,2023.2.3,MacIntel,100,708.894,709.893,,,,,,,,,,,,,,,,,,,,,,,,,,709.893,710.643,z,1,0.729,,710.643,710.643,,0,316,316,189,1,190,düvre,,,,,5,harmonic,1.85,nw,z,,,,,,,
,,,,,,,,,,,,001,2023-11-07_21h51.41.979,vowel_harmony,2023.2.3,MacIntel,100,710.644,711.643,,,,,,,,,,,,,,,,,,,,,,,,,,711.643,712.36,z,1,0.696,,712.36,712.36,,0,317,317,236,1,237,toklam,,,,,6,harmonic,1.85,nw,z,,,,,,,
,,,,,,,,,,,,001,2023-11-07_21h51.41.979,vowel_harmony,2023.2.3,MacIntel,100,712.36,713.359,,,,,,,,,,,,,,,,,,,,,,,,,,713.359,714.043,m,1,0.661,,714.043,714.043,,0,318,318,124,1,125,ilan,1579,71.7435,1499,0.1639,4,notharmonic,1,word,m,,,,,,,
,,,,,,,,,,,,001,2023-11-07_21h51.41.979,vowel_harmony,2023.2.3,MacIntel,100,714.043,715.042,,,,,,,,,,,,,,,,,,,,,,,,,,715.042,715.626,m,1,0.562,,715.627,715.627,,0,319,319,20,1,21,nefes,2871,130.4469,2553,0.2791,5,harmonic,1.8,word,m,,,,,,,
,,,,,,,,,,,,001,2023-11-07_21h51.41.979,vowel_harmony,2023.2.3,MacIntel,100,715.627,716.626,,,,,,,,,,,,,,,,,,,,,,,,,,716.626,717.642,m,0,0.996,,717.642,717.642,,0,320,320,358,1,359,yangin,,,,,6,notharmonic,1.9,nw,z,,,,,,,
,,,,,,,,,,,,001,2023-11-07_21h51.41.979,vowel_harmony,2023.2.3,MacIntel,100,717.643,718.642,,,,,,,,,,,,,,,,,,,,,,,,,,718.642,719.609,m,1,0.947,,719.609,719.609,,0,321,321,43,1,44,geniş,3380,153.5738,3185,0.3482,5,harmonic,1.35,word,m,,,,,,,
,,,,,,,,,,,,001,2023-11-07_21h51.41.979,vowel_harmony,2023.2.3,MacIntel,100,719.609,720.61,,,,,,,,,,,,,,,,,,,,,,,,,,720.61,721.643,m,1,1.013,,721.643,721.643,,0,322,322,119,1,120,kulüp,649,29.488,467,0.0511,5,notharmonic,1.4,word,m,,,,,,,
,,,,,,,,,,,,001,2023-11-07_21h51.41.979,vowel_harmony,2023.2.3,MacIntel,100,721.644,722.642,,,,,,,,,,,,,,,,,,,,,,,,,,722.642,723.376,z,1,0.713,,723.376,723.376,,0,323,323,332,1,333,tahane,,,,,6,notharmonic,1.85,nw,z,,,,,,,
,,,,,,,,,,,,001,2023-11-07_21h51.41.979,vowel_harmony,2023.2.3,MacIntel,100,723.376,724.376,,,,,,,,,,,,,,,,,,,,,,,,,,724.376,725.293,m,1,0.895,,725.293,725.293,,0,324,324,179,1,180,dakika,5891,267.6637,5207,0.5692,6,notharmonic,1.75,word,m,,,,,,,
,,,,,,,,,,,,001,2023-11-07_21h51.41.979,vowel_harmony,2023.2.3,MacIntel,100,725.293,726.293,,,,,,,,,,,,,,,,,,,,,,,,,,726.293,726.893,m,1,0.58,,726.893,726.893,,0,325,325,72,1,73,çorba,1674,76.0599,1513,0.1654,5,harmonic,1.75,word,m,,,,,,,
,,,,,,,,,,,,001,2023-11-07_21h51.41.979,vowel_harmony,2023.2.3,MacIntel,100,726.893,727.893,,,,,,,,,,,,,,,,,,,,,,,,,,727.893,728.459,m,1,0.545,,728.459,728.459,,0,326,326,162,1,163,hariç,1267,57.5675,1233,0.1348,5,notharmonic,1.75,word,m,,,,,,,
,,,,,,,,,,,,001,2023-11-07_21h51.41.979,vowel_harmony,2023.2.3,MacIntel,100,728.459,729.46,,,,,,,,,,,,,,,,,,,,,,,,,,729.46,730.092,z,1,0.613,,730.092,730.092,,0,327,327,339,1,340,asmel,,,,,5,notharmonic,1.95,nw,z,,,,,,,
,,,,,,,,,,,,001,2023-11-07_21h51.41.979,vowel_harmony,2023.2.3,MacIntel,100,730.093,731.093,,,,,,,,,,,,,,,,,,,,,,,,,,731.093,731.809,m,1,0.697,,731.809,731.809,,0,328,328,46,1,47,takım,4370,198.5555,3726,0.4073,5,harmonic,1.7,word,m,,,,,,,
,,,,,,,,,,,,001,2023-11-07_21h51.41.979,vowel_harmony,2023.2.3,MacIntel,100,731.809,732.81,,,,,,,,,,,,,,,,,,,,,,,,,,732.81,733.459,m,1,0.628,,733.459,733.459,,0,329,329,158,1,159,klasik,1871,85.0108,1734,0.1896,6,notharmonic,2,word,m,,,,,,,
,,,,,,,,,,,,001,2023-11-07_21h51.41.979,vowel_harmony,2023.2.3,MacIntel,100,733.459,734.46,,,,,,,,,,,,,,,,,,,,,,,,,,734.46,735.175,z,1,0.694,,735.175,735.175,,0,330,330,281,1,282,afel,,,,,4,notharmonic,1.8,nw,z,,,,,,,
,,,,,,,,,,,,001,2023-11-07_21h51.41.979,vowel_harmony,2023.2.3,MacIntel,100,735.176,736.176,,,,,,,,,,,,,,,,,,,,,,,,,,736.176,737.093,z,1,0.894,,737.093,737.093,,0,331,331,287,1,288,haköm,,,,,5,notharmonic,1.9,nw,z,,,,,,,
,,,,,,,,,,,,001,2023-11-07_21h51.41.979,vowel_harmony,2023.2.3,MacIntel,100,737.093,738.092,,,,,,,,,,,,,,,,,,,,,,,,,,738.093,739.126,z,1,1.013,,739.126,739.126,,0,332,332,316,1,317,misaf,,,,,5,notharmonic,1.85,nw,z,,,,,,,
,,,,,,,,,,,,001,2023-11-07_21h51.41.979,vowel_harmony,2023.2.3,MacIntel,100,739.127,740.126,,,,,,,,,,,,,,,,,,,,,,,,,,740.126,740.926,m,1,0.779,,740.926,740.926,,0,333,333,70,1,71,yarın,3440,156.3,3222,0.3522,5,harmonic,1.85,word,m,,,,,,,
,,,,,,,,,,,,001,2023-11-07_21h51.41.979,vowel_harmony,2023.2.3,MacIntel,100,740.927,741.926,,,,,,,,,,,,,,,,,,,,,,,,,,741.926,742.659,z,1,0.714,,742.659,742.659,,0,334,334,217,1,218,sanfız,,,,,6,harmonic,1.85,nw,z,,,,,,,
,,,,,,,,,,,,001,2023-11-07_21h51.41.979,vowel_harmony,2023.2.3,MacIntel,100,742.66,743.659,,,,,,,,,,,,,,,,,,,,,,,,,,743.66,744.175,m,1,0.495,,744.176,744.176,,0,335,335,68,1,69,ücret,734,33.35,634,0.0693,5,harmonic,1.85,word,m,,,,,,,
,,,,,,,,,,,,001,2023-11-07_21h51.41.979,vowel_harmony,2023.2.3,MacIntel,100,744.176,745.175,,,,,,,,,,,,,,,,,,,,,,,,,,745.175,745.793,m,1,0.598,,745.793,745.793,,0,336,336,116,1,117,daire,621,28.2158,503,0.055,5,notharmonic,1,word,m,,,,,,,
,,,,,,,,,,,,001,2023-11-07_21h51.41.979,vowel_harmony,2023.2.3,MacIntel,100,745.793,746.793,,,,,,,,,,,,,,,,,,,,,,,,,,746.793,747.408,z,1,0.596,,747.408,747.409,,0,337,337,289,1,290,karmen,,,,,6,notharmonic,1.75,nw,z,,,,,,,
,,,,,,,,,,,,001,2023-11-07_21h51.41.979,vowel_harmony,2023.2.3,MacIntel,100,747.409,748.409,,,,,,,,,,,,,,,,,,,,,,,,,,748.41,749.176,z,1,0.746,,749.176,749.176,,0,338,338,235,1,236,oşup,,,,,4,harmonic,1.75,nw,z,,,,,,,
,,,,,,,,,,,,001,2023-11-07_21h51.41.979,vowel_harmony,2023.2.3,MacIntel,100,749.176,750.175,,,,,,,,,,,,,,,,,,,,,,,,,,750.175,750.758,m,1,0.564,,750.758,750.759,,0,339,339,0,1,1,sanat,3121,141.8059,2485,0.2717,5,harmonic,1.4,word,m,,,,,,,
,,,,,,,,,,,,001,2023-11-07_21h51.41.979,vowel_harmony,2023.2.3,MacIntel,100,750.759,751.759,,,,,,,,,,,,,,,,,,,,,,,,,,751.759,752.309,z,1,0.53,,752.309,752.309,,0,340,340,242,1,243,kahon,,,,,5,harmonic,1.85,nw,z,,,,,,,
,,,,,,,,,,,,001,2023-11-07_21h51.41.979,vowel_harmony,2023.2.3,MacIntel,100,752.309,753.308,,,,,,,,,,,,,,,,,,,,,,,,,,753.308,753.942,m,1,0.613,,753.942,753.942,,0,341,341,12,1,13,konu,5400,245.3546,5110,0.5586,4,harmonic,1,word,m,,,,,,,
,,,,,,,,,,,,001,2023-11-07_21h51.41.979,vowel_harmony,2023.2.3,MacIntel,100,753.942,754.943,,,,,,,,,,,,,,,,,,,,,,,,,,754.943,755.642,m,1,0.679,,755.642,755.642,,0,342,342,99,1,100,ilave,3173,144.1685,2619,0.2863,5,notharmonic,1.85,word,m,,,,,,,
,,,,,,,,,,,,001,2023-11-07_21h51.41.979,vowel_harmony,2023.2.3,MacIntel,100,755.642,756.642,,,,,,,,,,,,,,,,,,,,,,,,,,756.642,757.326,z,1,0.663,,757.326,757.326,,0,343,343,284,1,285,deval,,,,,5,notharmonic,1.75,nw,z,,,,,,,
,,,,,,,,,,,,001,2023-11-07_21h51.41.979,vowel_harmony,2023.2.3,MacIntel,100,757.326,758.326,,,,,,,,,,,,,,,,,,,,,,,,,,758.326,758.858,m,0,0.512,,758.858,758.858,,0,344,344,345,1,346,bardeş,,,,,6,notharmonic,1.95,nw,z,,,,,,,
,,,,,,,,,,,,001,2023-11-07_21h51.41.979,vowel_harmony,2023.2.3,MacIntel,100,758.859,759.859,,,,,,,,,,,,,,,,,,,,,,,,,,759.859,760.626,z,1,0.746,,760.626,760.626,,0,345,345,246,1,247,orkın,,,,,5,harmonic,1.9,nw,z,,,,,,,
,,,,,,,,,,,,001,2023-11-07_21h51.41.979,vowel_harmony,2023.2.3,MacIntel,100,760.626,761.626,,,,,,,,,,,,,,,,,,,,,,,,,,761.626,762.326,m,1,0.68,,762.326,762.326,,0,346,346,128,1,129,tatil,2152,97.7783,1865,0.2039,5,notharmonic,1.7,word,m,,,,,,,
,,,,,,,,,,,,001,2023-11-07_21h51.41.979,vowel_harmony,2023.2.3,MacIntel,100,762.326,763.326,,,,,,,,,,,,,,,,,,,,,,,,,,763.326,763.959,m,1,0.616,,763.959,763.959,,0,347,347,123,1,124,haber,4559,207.1429,4151,0.4538,5,notharmonic,1.85,word,m,,,,,,,
,,,,,,,,,,,,001,2023-11-07_21h51.41.979,vowel_harmony,2023.2.3,MacIntel,100,763.959,764.959,,,,,,,,,,,,,,,,,,,,,,,,,,764.959,765.659,z,1,0.68,,765.659,765.659,,0,348,348,247,1,248,hafgın,,,,,6,harmonic,2,nw,z,,,,,,,
,,,,,,,,,,,,001,2023-11-07_21h51.41.979,vowel_harmony,2023.2.3,MacIntel,100,765.66,766.659,,,,,,,,,,,,,,,,,,,,,,,,,,766.659,767.359,z,0,0.679,,767.359,767.359,,0,349,349,89,1,90,etki,1234,56.0681,1169,0.1278,4,harmonic,1.4,word,m,,,,,,,
,,,,,,,,,,,,001,2023-11-07_21h51.41.979,vowel_harmony,2023.2.3,MacIntel,100,767.359,768.359,,,,,,,,,,,,,,,,,,,,,,,,,,768.359,769.109,z,1,0.731,,769.109,769.109,,0,350,350,265,1,266,parula,,,,,6,harmonic,1.75,nw,z,,,,,,,
,,,,,,,,,,,,001,2023-11-07_21h51.41.979,vowel_harmony,2023.2.3,MacIntel,100,769.109,770.108,,,,,,,,,,,,,,,,,,,,,,,,,,770.108,770.659,m,1,0.53,,770.659,770.659,,0,351,351,113,1,114,model,1200,54.5232,1082,0.1183,5,notharmonic,1.75,word,m,,,,,,,
,,,,,,,,,,,,001,2023-11-07_21h51.41.979,vowel_harmony,2023.2.3,MacIntel,100,770.66,771.659,,,,,,,,,,,,,,,,,,,,,,,,,,771.659,772.191,m,1,0.512,,772.192,772.192,,0,352,352,94,1,95,final,876,39.802,778,0.0851,5,notharmonic,1,word,m,,,,,,,
,,,,,,,,,,,,001,2023-11-07_21h51.41.979,vowel_harmony,2023.2.3,MacIntel,100,772.192,773.192,,,,,,,,,,,,,,,,,,,,,,,,,,773.192,773.892,m,1,0.679,,773.892,773.892,,0,353,353,160,1,161,hakem,603,27.3979,473,0.0517,5,notharmonic,1.3,word,m,,,,,,,
,,,,,,,,,,,,001,2023-11-07_21h51.41.979,vowel_harmony,2023.2.3,MacIntel,100,773.893,774.892,,,,,,,,,,,,,,,,,,,,,,,,,,774.892,775.625,z,1,0.711,,775.626,775.626,,0,354,354,230,1,231,bikir,,,,,5,harmonic,1.75,nw,z,,,,,,,
,,,,,,,,,,,,001,2023-11-07_21h51.41.979,vowel_harmony,2023.2.3,MacIntel,100,775.626,776.625,,,,,,,,,,,,,,,,,,,,,,,,,,776.625,777.175,m,1,0.527,,777.175,777.175,,0,355,355,141,1,142,madde,3793,172.3389,3389,0.3705,5,notharmonic,1.7,word,m,,,,,,,
,,,,,,,,,,,,001,2023-11-07_21h51.41.979,vowel_harmony,2023.2.3,MacIntel,100,777.175,778.175,,,,,,,,,,,,,,,,,,,,,,,,,,778.175,778.825,m,1,0.63,,778.825,778.825,,0,356,356,25,1,26,rapor,703,31.9415,617,0.0675,5,harmonic,1.8,word,m,,,,,,,
,,,,,,,,,,,,001,2023-11-07_21h51.41.979,vowel_harmony,2023.2.3,MacIntel,100,778.826,779.825,,,,,,,,,,,,,,,,,,,,,,,,,,779.825,780.442,m,1,0.595,,780.442,780.442,,0,357,357,137,1,138,parti,2613,118.7244,2059,0.2251,5,notharmonic,1.8,word,m,,,,,,,
,,,,,,,,,,,,001,2023-11-07_21h51.41.979,vowel_harmony,2023.2.3,MacIntel,100,780.442,781.441,,,,,,,,,,,,,,,,,,,,,,,,,,781.441,782.225,z,1,0.764,,782.225,782.225,,0,358,358,296,1,297,işban,,,,,5,notharmonic,1.95,nw,z,,,,,,,
,,,,,,,,,,,,001,2023-11-07_21h51.41.979,vowel_harmony,2023.2.3,MacIntel,100,782.225,783.225,,,,,,,,,,,,,,,,,,,,,,,,,,783.225,783.792,m,1,0.545,,783.792,783.792,,0,359,359,62,1,63,cümle,1911,86.8283,1765,0.193,5,harmonic,1.85,word,m,,,,,,,
,,,,,,,,,,,,001,2023-11-07_21h51.41.979,vowel_harmony,2023.2.3,MacIntel,100,,,,,,,,,,,,,,,,,,,,,,,,,,,,,,,,,,,,,,,,,,,,,,,,,,,,,,,783.792,785.466,space,1.642,