Welcome_screen.started,Welcome_screen.stopped,key_respwelcome.keys,key_respwelcome.rt,key_respwelcome.duration,intro_x.thisRepN,intro_x.thisTrialN,intro_x.thisN,intro_x.thisIndex,intro_x.ran,Introduction,participant,session,date,expName,psychopyVersion,OS,frameRate,Fixation.started,Fixation.stopped,Studypractice.started,Studypractice.stopped,key_respstudy.keys,key_respstudy.corr,key_respstudy.rt,key_respstudy.duration,rt,corr,Feedback.started,Feedback.stopped,practice_loop.thisRepN,practice_loop.thisTrialN,practice_loop.thisN,practice_loop.thisIndex,practice_loop.ran,item_nr_p,target_p,isHarmonic_p,target_cond_p,CorrAns_p,Instraction.started,Instraction.stopped,key_respınstraction.keys,key_respınstraction.rt,key_respınstraction.duration,TestTrial.started,TestTrial.stopped,key_respTest.keys,key_respTest.corr,key_respTest.rt,key_respTest.duration,Pause.started,Pause.stopped,key_resp_xx.keys,test_loop.thisRepN,test_loop.thisTrialN,test_loop.thisN,test_loop.thisIndex,test_loop.ran,item_nr,target,BlogFreq_A1,BlogFreqpm_A1,BlogCD_A1,BlogCDPc_A1,WordLength_A1,isHarmonic_A1,old20,target_cond,CorrAns,key_resp_xx.rt,key_resp_xx.duration,Goodbye_screen.started,Goodbye_screen.stopped,key_respgoodbye.keys,key_respgoodbye.rt,key_respgoodbye.duration
0.0231,628.0403,space,628.0079,,0,0,0,0,1,"Deneye hoş geldiniz,

Devam etmek için BOŞLUK tuşuna basınız.",,001,2023-11-07_16h21.40.494,vowel_harmony,2023.2.3,Win32,60.03121623,,,,,,,,,,,,,,,,,,,,,,,,,,,,,,,,,,,,,,,,,,,,,,,,,,,,,,,,,,,
628.0407,666.2259,space,38.1655,,0,1,1,1,1,"Bu çalışma Valencia Üniversitesi kapsamında yürütülmektedir. Deneydeki göreviniz, ekrana çıkacak Türkçe sözcüklerin kelime olup olmadığını belirlemenizdir. Eğer sözcük gerçek bir kelime ise ""m"" tuşuna, değil ise ""z"" tuşuna basınız.   

Devam etmek için BOŞLUK tuşuna basınız.",,001,2023-11-07_16h21.40.494,vowel_harmony,2023.2.3,Win32,60.03121623,,,,,,,,,,,,,,,,,,,,,,,,,,,,,,,,,,,,,,,,,,,,,,,,,,,,,,,,,,,
666.2346,674.0161,space,7.7574,,0,2,2,2,1,"Her sözcük için en fazla iki saniyede cevap vermeniz beklenmektedir. Aksi takdirde deney bir sonraki sözcük ile devam eder. 
Bu çalışmada oldukça hızlı ve doğru cevaplama yapmanız beklenmektedir.

Devam etmek için BOŞLUK tuşuna basınız.",,001,2023-11-07_16h21.40.494,vowel_harmony,2023.2.3,Win32,60.03121623,,,,,,,,,,,,,,,,,,,,,,,,,,,,,,,,,,,,,,,,,,,,,,,,,,,,,,,,,,,
674.0263,686.3106,space,12.2668,,0,3,3,3,1,"Çalışmaya başlamadan önce ufak bir pratik yer almaktadır.
Kelimedir: ""m""
Kelime değildir: ""z""

Pratik teste başlamak için BOŞLUK tuşuna basınız. ",,001,2023-11-07_16h21.40.494,vowel_harmony,2023.2.3,Win32,60.03121623,,,,,,,,,,,,,,,,,,,,,,,,,,,,,,,,,,,,,,,,,,,,,,,,,,,,,,,,,,,
,,,,,,,,,,,,001,2023-11-07_16h21.40.494,vowel_harmony,2023.2.3,Win32,60.03121623,686.3317,687.3269,687.327,690.8085,m,1,3.4662,,3.4662,1,690.8086,692.3077,0,0,0,0,1,1,ihale,notharmonic,word,m,,,,,,,,,,,,,,,,,,,,,,,,,,,,,,,,,,,,,
,,,,,,,,,,,,001,2023-11-07_16h21.40.494,vowel_harmony,2023.2.3,Win32,60.03121623,692.3081,693.3074,693.3074,695.5897,z,0,2.2632,,2.2632,0,695.5898,697.0891,0,1,1,5,1,6,bahçe,notharmonic,word,m,,,,,,,,,,,,,,,,,,,,,,,,,,,,,,,,,,,,,
,,,,,,,,,,,,001,2023-11-07_16h21.40.494,vowel_harmony,2023.2.3,Win32,60.03121623,697.0893,698.0886,698.0886,699.4213,m,1,1.3184,,1.3184,1,699.4213,700.9206,0,2,2,7,1,8,oran,harmonic,word,m,,,,,,,,,,,,,,,,,,,,,,,,,,,,,,,,,,,,,
,,,,,,,,,,,,001,2023-11-07_16h21.40.494,vowel_harmony,2023.2.3,Win32,60.03121623,700.9209,701.9202,701.9202,703.5194,z,0,1.5805,,1.5805,0,703.5194,705.0188,0,3,3,6,1,7,pilot,notharmonic,word,m,,,,,,,,,,,,,,,,,,,,,,,,,,,,,,,,,,,,,
,,,,,,,,,,,,001,2023-11-07_16h21.40.494,vowel_harmony,2023.2.3,Win32,60.03121623,705.0191,706.0183,706.0183,707.6842,z,1,1.6534,,1.6534,1,707.6842,709.1832,0,4,4,9,1,10,orat,harmonic,nw,z,,,,,,,,,,,,,,,,,,,,,,,,,,,,,,,,,,,,,
,,,,,,,,,,,,001,2023-11-07_16h21.40.494,vowel_harmony,2023.2.3,Win32,60.03121623,709.1834,710.1831,710.1831,711.499,z,1,1.3007,,1.3007,1,711.4991,712.9982,0,5,5,8,1,9,tahip,notharmonic,nw,z,,,,,,,,,,,,,,,,,,,,,,,,,,,,,,,,,,,,,
,,,,,,,,,,,,001,2023-11-07_16h21.40.494,vowel_harmony,2023.2.3,Win32,60.03121623,712.9986,713.9979,713.9979,714.8976,z,1,0.8813,,0.8813,1,714.8976,716.3968,0,6,6,11,1,12,geki,harmonic,nw,z,,,,,,,,,,,,,,,,,,,,,,,,,,,,,,,,,,,,,
,,,,,,,,,,,,001,2023-11-07_16h21.40.494,vowel_harmony,2023.2.3,Win32,60.03121623,716.3971,717.3963,717.3963,718.7624,m,1,1.3473,,1.3473,1,718.7625,720.2618,0,7,7,3,1,4,ihlal,notharmonic,word,m,,,,,,,,,,,,,,,,,,,,,,,,,,,,,,,,,,,,,
,,,,,,,,,,,,001,2023-11-07_16h21.40.494,vowel_harmony,2023.2.3,Win32,60.03121623,720.2622,721.2615,721.2615,722.2939,m,1,1.0232,,1.0232,1,722.2939,723.7936,0,8,8,2,1,3,memur,notharmonic,word,m,,,,,,,,,,,,,,,,,,,,,,,,,,,,,,,,,,,,,
,,,,,,,,,,,,001,2023-11-07_16h21.40.494,vowel_harmony,2023.2.3,Win32,60.03121623,723.7939,724.7931,724.7931,725.5927,z,1,0.7812,,0.7812,1,725.5927,727.0921,0,9,9,15,1,16,mımal,harmonic,nw,z,,,,,,,,,,,,,,,,,,,,,,,,,,,,,,,,,,,,,
,,,,,,,,,,,,001,2023-11-07_16h21.40.494,vowel_harmony,2023.2.3,Win32,60.03121623,727.0924,728.0915,728.0917,729.0245,z,1,0.9146,,0.9146,1,729.0246,730.5235,0,10,10,14,1,15,pimer,harmonic,nw,z,,,,,,,,,,,,,,,,,,,,,,,,,,,,,,,,,,,,,
,,,,,,,,,,,,001,2023-11-07_16h21.40.494,vowel_harmony,2023.2.3,Win32,60.03121623,730.5238,731.5234,731.5234,732.273,z,1,0.7359,,0.7359,1,732.2731,733.7721,0,11,11,13,1,14,pilar,notharmonic,nw,z,,,,,,,,,,,,,,,,,,,,,,,,,,,,,,,,,,,,,
,,,,,,,,,,,,001,2023-11-07_16h21.40.494,vowel_harmony,2023.2.3,Win32,60.03121623,733.7724,734.7717,734.7717,735.738,z,1,0.9552,,0.9552,1,735.738,737.2373,0,12,12,10,1,11,mahne,notharmonic,nw,z,,,,,,,,,,,,,,,,,,,,,,,,,,,,,,,,,,,,,
,,,,,,,,,,,,001,2023-11-07_16h21.40.494,vowel_harmony,2023.2.3,Win32,60.03121623,737.2377,738.237,738.237,739.1198,z,1,0.8726,,0.8726,1,739.1198,740.6193,0,13,13,12,1,13,ihlot,notharmonic,nw,z,,,,,,,,,,,,,,,,,,,,,,,,,,,,,,,,,,,,,
,,,,,,,,,,,,001,2023-11-07_16h21.40.494,vowel_harmony,2023.2.3,Win32,60.03121623,740.6196,741.6187,741.6187,742.7182,m,1,1.0805,,1.0805,1,742.7183,744.2177,0,14,14,4,1,5,mimar,notharmonic,word,m,,,,,,,,,,,,,,,,,,,,,,,,,,,,,,,,,,,,,
,,,,,,,,,,,,001,2023-11-07_16h21.40.494,vowel_harmony,2023.2.3,Win32,60.03121623,744.218,745.2171,745.2171,746.3996,m,1,1.1642,,1.1642,1,746.3996,747.8989,0,15,15,1,1,2,veri,harmonic,word,m,,,,,,,,,,,,,,,,,,,,,,,,,,,,,,,,,,,,,
,,,,,,,,,,,,001,2023-11-07_16h21.40.494,vowel_harmony,2023.2.3,Win32,60.03121623,,,,,,,,,,,,,,,,,,,,,,,747.8995,753.1139,space,5.1961,,,,,,,,,,,,,,,,,,,,,,,,,,,,,,,,,
,,,,,,,,,,,,001,2023-11-07_16h21.40.494,vowel_harmony,2023.2.3,Win32,60.03121623,753.1573,754.1182,,,,,,,,,,,,,,,,,,,,,,,,,,754.1182,756.0013,m,1,1.8661,,756.0014,756.0021,,0,0,0,17,1,18,yakın,7990,363.0339,7595,0.8303,5,harmonic,1.8,word,m,,,,,,,
,,,,,,,,,,,,001,2023-11-07_16h21.40.494,vowel_harmony,2023.2.3,Win32,60.03121623,756.0023,756.9958,,,,,,,,,,,,,,,,,,,,,,,,,,756.996,758.0171,z,1,0.9999,,758.0171,758.0171,,0,1,1,192,1,193,vecö,,,,,4,harmonic,1.95,nw,z,,,,,,,
,,,,,,,,,,,,001,2023-11-07_16h21.40.494,vowel_harmony,2023.2.3,Win32,60.03121623,758.0174,759.0119,,,,,,,,,,,,,,,,,,,,,,,,,,759.0122,760.1445,m,1,1.108,,760.1447,760.1453,,0,2,2,117,1,118,nasip,1069,48.5711,1042,0.1139,5,notharmonic,1.8,word,m,,,,,,,
,,,,,,,,,,,,001,2023-11-07_16h21.40.494,vowel_harmony,2023.2.3,Win32,60.03121623,760.1461,761.1449,,,,,,,,,,,,,,,,,,,,,,,,,,761.1451,762.1269,z,1,0.9513,,762.127,762.1275,,0,3,3,182,1,183,orsın,,,,,5,harmonic,1.95,nw,z,,,,,,,
,,,,,,,,,,,,001,2023-11-07_16h21.40.494,vowel_harmony,2023.2.3,Win32,60.03121623,762.1285,763.1263,,,,,,,,,,,,,,,,,,,,,,,,,,763.1265,764.1099,m,1,0.951,,764.1102,764.1108,,0,4,4,101,1,102,imza,1358,61.7021,1253,0.137,4,notharmonic,1.65,word,m,,,,,,,
,,,,,,,,,,,,001,2023-11-07_16h21.40.494,vowel_harmony,2023.2.3,Win32,60.03121623,764.1112,765.109,,,,,,,,,,,,,,,,,,,,,,,,,,765.1091,766.4752,z,1,1.3344,,766.4756,766.4761,,0,5,5,359,1,360,kardez,,,,,6,notharmonic,1.95,nw,z,,,,,,,
,,,,,,,,,,,,001,2023-11-07_16h21.40.494,vowel_harmony,2023.2.3,Win32,60.03121623,766.4848,767.4749,,,,,,,,,,,,,,,,,,,,,,,,,,767.4752,768.5788,z,1,1.083,,768.5788,768.5789,,0,6,6,299,1,300,fihal,,,,,5,notharmonic,1.95,nw,z,,,,,,,
,,,,,,,,,,,,001,2023-11-07_16h21.40.494,vowel_harmony,2023.2.3,Win32,60.03121623,768.5793,769.5738,,,,,,,,,,,,,,,,,,,,,,,,,,769.574,770.5737,m,1,0.9675,,770.5739,770.5744,,0,7,7,33,1,34,moda,1381,62.7472,1231,0.1346,4,harmonic,1.55,word,m,,,,,,,
,,,,,,,,,,,,001,2023-11-07_16h21.40.494,vowel_harmony,2023.2.3,Win32,60.03121623,770.5749,771.5727,,,,,,,,,,,,,,,,,,,,,,,,,,771.5729,772.4059,z,1,0.801,,772.4062,772.4068,,0,8,8,220,1,221,denbi,,,,,5,harmonic,1.75,nw,z,,,,,,,
,,,,,,,,,,,,001,2023-11-07_16h21.40.494,vowel_harmony,2023.2.3,Win32,60.03121623,772.4074,773.4052,,,,,,,,,,,,,,,,,,,,,,,,,,773.4053,774.3761,z,1,0.9501,,774.3761,774.3762,,0,9,9,315,1,316,takep,,,,,5,notharmonic,1.85,nw,z,,,,,,,
,,,,,,,,,,,,001,2023-11-07_16h21.40.494,vowel_harmony,2023.2.3,Win32,60.03121623,774.3764,775.3714,,,,,,,,,,,,,,,,,,,,,,,,,,775.3717,776.5085,m,1,1.1165,,776.5086,776.5086,,0,10,10,70,1,71,yarın,3440,156.3,3222,0.3522,5,harmonic,1.85,word,m,,,,,,,
,,,,,,,,,,,,001,2023-11-07_16h21.40.494,vowel_harmony,2023.2.3,Win32,60.03121623,776.5168,777.5201,,,,,,,,,,,,,,,,,,,,,,,,,,777.5203,778.5041,m,1,0.9622,,778.5042,778.5044,,0,11,11,165,1,166,gazete,1402,63.7013,1270,0.1388,6,notharmonic,1.8,word,m,,,,,,,
,,,,,,,,,,,,001,2023-11-07_16h21.40.494,vowel_harmony,2023.2.3,Win32,60.03121623,778.5046,779.5028,,,,,,,,,,,,,,,,,,,,,,,,,,779.5031,780.3531,z,1,0.8239,,780.3532,780.3533,,0,12,12,204,1,205,gerkez,,,,,6,harmonic,1.9,nw,z,,,,,,,
,,,,,,,,,,,,001,2023-11-07_16h21.40.494,vowel_harmony,2023.2.3,Win32,60.03121623,780.3537,781.3518,,,,,,,,,,,,,,,,,,,,,,,,,,781.352,782.1561,z,1,0.7833,,782.1561,782.1562,,0,13,13,286,1,287,cedan,,,,,5,notharmonic,1.8,nw,z,,,,,,,
,,,,,,,,,,,,001,2023-11-07_16h21.40.494,vowel_harmony,2023.2.3,Win32,60.03121623,782.1563,783.1553,,,,,,,,,,,,,,,,,,,,,,,,,,783.1553,784.2667,m,1,1.0934,,784.2669,784.2676,,0,14,14,106,1,107,esnaf,315,14.3124,284,0.031,5,notharmonic,1.55,word,m,,,,,,,
,,,,,,,,,,,,001,2023-11-07_16h21.40.494,vowel_harmony,2023.2.3,Win32,60.03121623,784.2684,785.2663,,,,,,,,,,,,,,,,,,,,,,,,,,785.2664,785.9828,m,1,0.6935,,785.983,785.9834,,0,15,15,13,1,14,nokta,2085,94.7341,1939,0.212,5,harmonic,1.5,word,m,,,,,,,
,,,,,,,,,,,,001,2023-11-07_16h21.40.494,vowel_harmony,2023.2.3,Win32,60.03121623,785.9844,786.9826,,,,,,,,,,,,,,,,,,,,,,,,,,786.9829,787.7704,z,1,0.7671,,787.7704,787.7704,,0,16,16,229,1,230,tonam,,,,,5,harmonic,1.8,nw,z,,,,,,,
,,,,,,,,,,,,001,2023-11-07_16h21.40.494,vowel_harmony,2023.2.3,Win32,60.03121623,787.7708,788.7645,,,,,,,,,,,,,,,,,,,,,,,,,,788.7647,789.8144,m,1,1.0218,,789.8146,789.8151,,0,17,17,154,1,155,sakin,1855,84.2838,1635,0.1787,5,notharmonic,1.05,word,m,,,,,,,
,,,,,,,,,,,,001,2023-11-07_16h21.40.494,vowel_harmony,2023.2.3,Win32,60.03121623,789.8161,790.8141,,,,,,,,,,,,,,,,,,,,,,,,,,790.8143,791.7139,m,1,0.8741,,791.7144,791.715,,0,18,18,122,1,123,devam,17666,802.673,16284,1.7802,5,notharmonic,1.55,word,m,,,,,,,
,,,,,,,,,,,,001,2023-11-07_16h21.40.494,vowel_harmony,2023.2.3,Win32,60.03121623,791.7154,792.713,,,,,,,,,,,,,,,,,,,,,,,,,,792.7132,793.5177,z,1,0.7834,,793.5177,793.5177,,0,19,19,209,1,210,sapor,,,,,5,harmonic,1.8,nw,z,,,,,,,
,,,,,,,,,,,,001,2023-11-07_16h21.40.494,vowel_harmony,2023.2.3,Win32,60.03121623,793.5179,794.5123,,,,,,,,,,,,,,,,,,,,,,,,,,794.5124,795.4121,z,1,0.8708,,795.4126,795.4133,,0,20,20,267,1,268,nokuma,,,,,6,harmonic,1.75,nw,z,,,,,,,
,,,,,,,,,,,,001,2023-11-07_16h21.40.494,vowel_harmony,2023.2.3,Win32,60.03121623,795.4137,796.412,,,,,,,,,,,,,,,,,,,,,,,,,,796.4121,797.249,z,1,0.8166,,797.249,797.2491,,0,21,21,271,1,272,mimal,,,,,5,notharmonic,1.8,nw,z,,,,,,,
,,,,,,,,,,,,001,2023-11-07_16h21.40.494,vowel_harmony,2023.2.3,Win32,60.03121623,797.2493,798.2441,,,,,,,,,,,,,,,,,,,,,,,,,,798.2443,798.9763,z,1,0.7042,,798.9765,798.9769,,0,22,22,333,1,334,heyran,,,,,6,notharmonic,1.85,nw,z,,,,,,,
,,,,,,,,,,,,001,2023-11-07_16h21.40.494,vowel_harmony,2023.2.3,Win32,60.03121623,798.9783,799.9766,,,,,,,,,,,,,,,,,,,,,,,,,,799.9768,801.1427,m,1,1.1429,,801.1429,801.1439,,0,23,23,127,1,128,şahane,1153,52.3877,1108,0.1211,6,notharmonic,1.8,word,m,,,,,,,
,,,,,,,,,,,,001,2023-11-07_16h21.40.494,vowel_harmony,2023.2.3,Win32,60.03121623,801.1443,802.1467,,,,,,,,,,,,,,,,,,,,,,,,,,802.1467,802.8634,z,1,0.7006,,802.8635,802.8635,,0,24,24,322,1,323,normin,,,,,6,notharmonic,1.95,nw,z,,,,,,,
,,,,,,,,,,,,001,2023-11-07_16h21.40.494,vowel_harmony,2023.2.3,Win32,60.03121623,802.8637,803.858,,,,,,,,,,,,,,,,,,,,,,,,,,803.8583,804.6074,m,1,0.7184,,804.6077,804.6082,,0,25,25,108,1,109,tarih,2806,127.4935,2483,0.2714,5,notharmonic,1.55,word,m,,,,,,,
,,,,,,,,,,,,001,2023-11-07_16h21.40.494,vowel_harmony,2023.2.3,Win32,60.03121623,804.6092,805.6073,,,,,,,,,,,,,,,,,,,,,,,,,,805.6076,806.3236,m,1,0.6837,,806.3238,806.3242,,0,26,26,28,1,29,parlak,1142,51.888,1088,0.1189,6,harmonic,1.7,word,m,,,,,,,
,,,,,,,,,,,,001,2023-11-07_16h21.40.494,vowel_harmony,2023.2.3,Win32,60.03121623,806.3251,807.3277,,,,,,,,,,,,,,,,,,,,,,,,,,807.3278,807.9279,m,1,0.5838,,807.928,807.928,,0,27,27,31,1,32,fazla,18293,831.1614,16694,1.825,5,harmonic,1,word,m,,,,,,,
,,,,,,,,,,,,001,2023-11-07_16h21.40.494,vowel_harmony,2023.2.3,Win32,60.03121623,807.9283,808.9223,,,,,,,,,,,,,,,,,,,,,,,,,,808.9225,809.8266,z,1,0.883,,809.8266,809.8267,,0,28,28,228,1,229,haytam,,,,,6,harmonic,1.75,nw,z,,,,,,,
,,,,,,,,,,,,001,2023-11-07_16h21.40.494,vowel_harmony,2023.2.3,Win32,60.03121623,809.8269,810.8221,,,,,,,,,,,,,,,,,,,,,,,,,,810.8223,811.6548,z,1,0.8052,,811.655,811.6556,,0,29,29,349,1,350,harten,,,,,6,notharmonic,1.85,nw,z,,,,,,,
,,,,,,,,,,,,001,2023-11-07_16h21.40.494,vowel_harmony,2023.2.3,Win32,60.03121623,811.6562,812.6544,,,,,,,,,,,,,,,,,,,,,,,,,,812.6546,813.2872,z,1,0.6069,,813.2875,813.2879,,0,30,30,215,1,216,aydo,,,,,4,harmonic,1.9,nw,z,,,,,,,
,,,,,,,,,,,,001,2023-11-07_16h21.40.494,vowel_harmony,2023.2.3,Win32,60.03121623,813.2886,814.2868,,,,,,,,,,,,,,,,,,,,,,,,,,814.287,815.0243,z,1,0.7164,,815.0244,815.0244,,0,31,31,273,1,274,nimal,,,,,5,notharmonic,1.9,nw,z,,,,,,,
,,,,,,,,,,,,001,2023-11-07_16h21.40.494,vowel_harmony,2023.2.3,Win32,60.03121623,815.0247,816.0193,,,,,,,,,,,,,,,,,,,,,,,,,,816.0195,816.7522,z,1,0.7085,,816.7524,816.7533,,0,32,32,280,1,281,adalek,,,,,6,notharmonic,1.85,nw,z,,,,,,,
,,,,,,,,,,,,001,2023-11-07_16h21.40.494,vowel_harmony,2023.2.3,Win32,60.03121623,816.754,817.7514,,,,,,,,,,,,,,,,,,,,,,,,,,817.7516,818.556,z,1,0.7832,,818.5561,818.5561,,0,33,33,221,1,222,yaypın,,,,,6,harmonic,1.75,nw,z,,,,,,,
,,,,,,,,,,,,001,2023-11-07_16h21.40.494,vowel_harmony,2023.2.3,Win32,60.03121623,818.5564,819.5513,,,,,,,,,,,,,,,,,,,,,,,,,,819.5516,820.7219,m,1,1.1502,,820.722,820.722,,0,34,34,98,1,99,paket,1532,69.608,1392,0.1522,5,notharmonic,1.55,word,m,,,,,,,
,,,,,,,,,,,,001,2023-11-07_16h21.40.494,vowel_harmony,2023.2.3,Win32,60.03121623,820.7222,821.7163,,,,,,,,,,,,,,,,,,,,,,,,,,821.7165,822.7159,m,1,0.976,,822.716,822.7165,,0,35,35,79,1,80,durum,6783,308.1926,6431,0.703,5,harmonic,1.7,word,m,,,,,,,
,,,,,,,,,,,,001,2023-11-07_16h21.40.494,vowel_harmony,2023.2.3,Win32,60.03121623,822.7177,823.7161,,,,,,,,,,,,,,,,,,,,,,,,,,823.7164,824.4989,z,1,0.7552,,824.4991,824.4996,,0,36,36,312,1,313,şahmin,,,,,6,notharmonic,1.8,nw,z,,,,,,,
,,,,,,,,,,,,001,2023-11-07_16h21.40.494,vowel_harmony,2023.2.3,Win32,60.03121623,824.5004,825.4983,,,,,,,,,,,,,,,,,,,,,,,,,,825.4984,826.3647,m,1,0.8344,,826.3649,826.3656,,0,37,37,94,1,95,final,876,39.802,778,0.0851,5,notharmonic,1,word,m,,,,,,,
,,,,,,,,,,,,001,2023-11-07_16h21.40.494,vowel_harmony,2023.2.3,Win32,60.03121623,826.3662,827.364,,,,,,,,,,,,,,,,,,,,,,,,,,827.3642,828.3184,z,1,0.9333,,828.3184,828.3185,,0,38,38,287,1,288,haköm,,,,,5,notharmonic,1.9,nw,z,,,,,,,
,,,,,,,,,,,,001,2023-11-07_16h21.40.494,vowel_harmony,2023.2.3,Win32,60.03121623,828.3186,829.3136,,,,,,,,,,,,,,,,,,,,,,,,,,829.3141,830.0182,z,1,0.6839,,830.0183,830.0183,,0,39,39,248,1,249,şegim,,,,,5,harmonic,1.9,nw,z,,,,,,,
,,,,,,,,,,,,001,2023-11-07_16h21.40.494,vowel_harmony,2023.2.3,Win32,60.03121623,830.0185,831.013,,,,,,,,,,,,,,,,,,,,,,,,,,831.0132,832.2499,z,1,1.2164,,832.2499,832.2499,,0,40,40,277,1,278,balsin,,,,,6,notharmonic,1.85,nw,z,,,,,,,
,,,,,,,,,,,,001,2023-11-07_16h21.40.494,vowel_harmony,2023.2.3,Win32,60.03121623,832.2502,833.2445,,,,,,,,,,,,,,,,,,,,,,,,,,833.2447,833.9604,z,1,0.6918,,833.9606,833.961,,0,41,41,213,1,214,kaun,,,,,4,harmonic,1.7,nw,z,,,,,,,
,,,,,,,,,,,,001,2023-11-07_16h21.40.494,vowel_harmony,2023.2.3,Win32,60.03121623,833.9624,834.9606,,,,,,,,,,,,,,,,,,,,,,,,,,834.9608,836.0483,m,1,1.0665,,836.0484,836.0484,,0,42,42,152,1,153,tedavi,1865,84.7382,1597,0.1746,6,notharmonic,1.8,word,m,,,,,,,
,,,,,,,,,,,,001,2023-11-07_16h21.40.494,vowel_harmony,2023.2.3,Win32,60.03121623,836.0486,837.0436,,,,,,,,,,,,,,,,,,,,,,,,,,837.0438,837.8974,z,1,0.8335,,837.8974,837.8975,,0,43,43,210,1,211,şevci,,,,,5,harmonic,1.75,nw,z,,,,,,,
,,,,,,,,,,,,001,2023-11-07_16h21.40.494,vowel_harmony,2023.2.3,Win32,60.03121623,837.8977,838.8923,,,,,,,,,,,,,,,,,,,,,,,,,,838.8925,840.0082,z,1,1.0936,,840.0084,840.0093,,0,44,44,226,1,227,tefem,,,,,5,harmonic,1.75,nw,z,,,,,,,
,,,,,,,,,,,,001,2023-11-07_16h21.40.494,vowel_harmony,2023.2.3,Win32,60.03121623,840.0098,841.0078,,,,,,,,,,,,,,,,,,,,,,,,,,841.008,841.7793,z,1,0.7502,,841.7793,841.7794,,0,45,45,259,1,260,hayuk,,,,,5,harmonic,1.95,nw,z,,,,,,,
,,,,,,,,,,,,001,2023-11-07_16h21.40.494,vowel_harmony,2023.2.3,Win32,60.03121623,841.7796,842.7755,,,,,,,,,,,,,,,,,,,,,,,,,,842.7755,843.4947,z,1,0.6999,,843.4948,843.4948,,0,46,46,181,1,182,rapkı,,,,,5,harmonic,1.85,nw,z,,,,,,,
,,,,,,,,,,,,001,2023-11-07_16h21.40.494,vowel_harmony,2023.2.3,Win32,60.03121623,843.495,844.4896,,,,,,,,,,,,,,,,,,,,,,,,,,844.4897,845.9396,m,1,1.4193,,845.9399,845.9404,,0,47,47,50,1,51,kanun,1198,54.4324,1010,0.1104,5,harmonic,1.6,word,m,,,,,,,
,,,,,,,,,,,,001,2023-11-07_16h21.40.494,vowel_harmony,2023.2.3,Win32,60.03121623,845.9407,846.9386,,,,,,,,,,,,,,,,,,,,,,,,,,846.9388,847.5927,m,1,0.633,,847.5928,847.5929,,0,48,48,138,1,139,kardeş,1270,57.7038,1174,0.1283,6,notharmonic,1.9,word,m,,,,,,,
,,,,,,,,,,,,001,2023-11-07_16h21.40.494,vowel_harmony,2023.2.3,Win32,60.03121623,847.5931,848.5923,,,,,,,,,,,,,,,,,,,,,,,,,,848.5923,849.3424,z,1,0.7336,,849.3424,849.3425,,0,49,49,321,1,322,makih,,,,,5,notharmonic,1.8,nw,z,,,,,,,
,,,,,,,,,,,,001,2023-11-07_16h21.40.494,vowel_harmony,2023.2.3,Win32,60.03121623,849.3427,850.3374,,,,,,,,,,,,,,,,,,,,,,,,,,850.3377,851.1056,z,1,0.7475,,851.1056,851.1057,,0,50,50,355,1,356,adül,,,,,4,notharmonic,1.85,nw,z,,,,,,,
,,,,,,,,,,,,001,2023-11-07_16h21.40.494,vowel_harmony,2023.2.3,Win32,60.03121623,851.1059,852.1031,,,,,,,,,,,,,,,,,,,,,,,,,,852.1033,852.824,m,1,0.7,,852.824,852.8241,,0,51,51,112,1,113,sezon,2315,105.1844,1917,0.2096,5,notharmonic,1.8,word,m,,,,,,,
,,,,,,,,,,,,001,2023-11-07_16h21.40.494,vowel_harmony,2023.2.3,Win32,60.03121623,852.8242,853.8188,,,,,,,,,,,,,,,,,,,,,,,,,,853.8191,854.4401,m,1,0.6001,,854.4402,854.4402,,0,52,52,59,1,60,köpek,1044,47.4352,901,0.0985,5,harmonic,1.75,word,m,,,,,,,
,,,,,,,,,,,,001,2023-11-07_16h21.40.494,vowel_harmony,2023.2.3,Win32,60.03121623,854.4405,855.4346,,,,,,,,,,,,,,,,,,,,,,,,,,855.4348,856.1673,z,1,0.7079,,856.1676,856.1682,,0,53,53,345,1,346,bardeş,,,,,6,notharmonic,1.95,nw,z,,,,,,,
,,,,,,,,,,,,001,2023-11-07_16h21.40.494,vowel_harmony,2023.2.3,Win32,60.03121623,856.1691,857.1668,,,,,,,,,,,,,,,,,,,,,,,,,,857.1671,857.8347,m,1,0.6449,,857.8347,857.8348,,0,54,54,58,1,59,ayak,2143,97.3694,1931,0.2111,4,harmonic,1,word,m,,,,,,,
,,,,,,,,,,,,001,2023-11-07_16h21.40.494,vowel_harmony,2023.2.3,Win32,60.03121623,857.8352,858.8329,,,,,,,,,,,,,,,,,,,,,,,,,,858.8331,859.4994,z,1,0.6433,,859.4996,859.5,,0,55,55,219,1,220,barlum,,,,,6,harmonic,1.9,nw,z,,,,,,,
,,,,,,,,,,,,001,2023-11-07_16h21.40.494,vowel_harmony,2023.2.3,Win32,60.03121623,859.501,860.5033,,,,,,,,,,,,,,,,,,,,,,,,,,860.5033,861.1346,m,1,0.6148,,861.1347,861.1347,,0,56,56,164,1,165,sinema,1575,71.5618,1304,0.1426,6,notharmonic,1.8,word,m,,,,,,,
,,,,,,,,,,,,001,2023-11-07_16h21.40.494,vowel_harmony,2023.2.3,Win32,60.03121623,861.135,862.1316,,,,,,,,,,,,,,,,,,,,,,,,,,862.1318,862.8146,m,1,0.6511,,862.8149,862.8154,,0,57,57,128,1,129,tatil,2152,97.7783,1865,0.2039,5,notharmonic,1.7,word,m,,,,,,,
,,,,,,,,,,,,001,2023-11-07_16h21.40.494,vowel_harmony,2023.2.3,Win32,60.03121623,862.8162,863.8145,,,,,,,,,,,,,,,,,,,,,,,,,,863.8147,864.5521,z,1,0.7169,,864.5522,864.5522,,0,58,58,214,1,215,vecü,,,,,4,harmonic,1.95,nw,z,,,,,,,
,,,,,,,,,,,,001,2023-11-07_16h21.40.494,vowel_harmony,2023.2.3,Win32,60.03121623,864.5524,865.5466,,,,,,,,,,,,,,,,,,,,,,,,,,865.5469,866.4177,z,1,0.8498,,866.4177,866.4179,,0,59,59,330,1,331,vahçe,,,,,5,notharmonic,1.9,nw,z,,,,,,,
,,,,,,,,,,,,001,2023-11-07_16h21.40.494,vowel_harmony,2023.2.3,Win32,60.03121623,866.4181,867.4127,,,,,,,,,,,,,,,,,,,,,,,,,,867.4129,868.0623,m,1,0.6178,,868.0625,868.063,,0,60,60,77,1,78,ufak,3252,147.758,2980,0.3258,4,harmonic,1.5,word,m,,,,,,,
,,,,,,,,,,,,001,2023-11-07_16h21.40.494,vowel_harmony,2023.2.3,Win32,60.03121623,868.0637,869.0617,,,,,,,,,,,,,,,,,,,,,,,,,,869.0619,869.6615,z,1,0.5708,,869.6617,869.6622,,0,61,61,224,1,225,ertre,,,,,5,harmonic,1.95,nw,z,,,,,,,
,,,,,,,,,,,,001,2023-11-07_16h21.40.494,vowel_harmony,2023.2.3,Win32,60.03121623,869.6632,870.6611,,,,,,,,,,,,,,,,,,,,,,,,,,870.6613,871.3464,z,1,0.6643,,871.3464,871.3464,,0,62,62,281,1,282,afel,,,,,4,notharmonic,1.8,nw,z,,,,,,,
,,,,,,,,,,,,001,2023-11-07_16h21.40.494,vowel_harmony,2023.2.3,Win32,60.03121623,871.3467,872.3439,,,,,,,,,,,,,,,,,,,,,,,,,,872.3442,873.048,m,1,0.6836,,873.048,873.048,,0,63,63,92,1,93,sahne,1380,62.7017,1238,0.1353,5,notharmonic,1.65,word,m,,,,,,,
,,,,,,,,,,,,001,2023-11-07_16h21.40.494,vowel_harmony,2023.2.3,Win32,60.03121623,873.0482,874.0429,,,,,,,,,,,,,,,,,,,,,,,,,,874.0431,875.1639,z,1,1.0999,,875.164,875.164,,0,64,64,190,1,191,reklen,,,,,6,harmonic,1.8,nw,z,,,,,,,
,,,,,,,,,,,,001,2023-11-07_16h21.40.494,vowel_harmony,2023.2.3,Win32,60.03121623,875.1643,876.1585,,,,,,,,,,,,,,,,,,,,,,,,,,876.1587,876.8918,z,1,0.7028,,876.8921,876.8927,,0,65,65,304,1,305,annö,,,,,4,notharmonic,1.95,nw,z,,,,,,,
,,,,,,,,,,,,001,2023-11-07_16h21.40.494,vowel_harmony,2023.2.3,Win32,60.03121623,876.893,877.8955,,,,,,,,,,,,,,,,,,,,,,,,,,877.8956,878.6289,m,1,0.7167,,878.629,878.629,,0,66,66,123,1,124,haber,4559,207.1429,4151,0.4538,5,notharmonic,1.85,word,m,,,,,,,
,,,,,,,,,,,,001,2023-11-07_16h21.40.494,vowel_harmony,2023.2.3,Win32,60.03121623,878.6293,879.6236,,,,,,,,,,,,,,,,,,,,,,,,,,879.6239,880.4733,m,1,0.8249,,880.4735,880.474,,0,67,67,96,1,97,dahil,3189,144.8955,3060,0.3345,5,notharmonic,1.7,word,m,,,,,,,
,,,,,,,,,,,,001,2023-11-07_16h21.40.494,vowel_harmony,2023.2.3,Win32,60.03121623,880.4748,881.4735,,,,,,,,,,,,,,,,,,,,,,,,,,881.4737,882.2222,z,1,0.7192,,882.2224,882.2228,,0,68,68,278,1,279,sekon,,,,,5,notharmonic,1.85,nw,z,,,,,,,
,,,,,,,,,,,,001,2023-11-07_16h21.40.494,vowel_harmony,2023.2.3,Win32,60.03121623,882.2238,883.2221,,,,,,,,,,,,,,,,,,,,,,,,,,883.2223,884.0552,m,1,0.8073,,884.0556,884.0561,,0,69,69,81,1,82,üretim,1593,72.3796,1283,0.1403,6,harmonic,1.6,word,m,,,,,,,
,,,,,,,,,,,,001,2023-11-07_16h21.40.494,vowel_harmony,2023.2.3,Win32,60.03121623,884.0566,885.0546,,,,,,,,,,,,,,,,,,,,,,,,,,885.0547,885.8423,m,1,0.7667,,885.8424,885.8424,,0,70,70,18,1,19,normal,4154,188.7413,3788,0.4141,6,harmonic,1.75,word,m,,,,,,,
,,,,,,,,,,,,001,2023-11-07_16h21.40.494,vowel_harmony,2023.2.3,Win32,60.03121623,885.8427,886.8371,,,,,,,,,,,,,,,,,,,,,,,,,,886.8373,887.803,m,1,0.94,,887.8032,887.8037,,0,71,71,132,1,133,modern,2326,105.6842,2031,0.222,6,notharmonic,1.85,word,m,,,,,,,
,,,,,,,,,,,,001,2023-11-07_16h21.40.494,vowel_harmony,2023.2.3,Win32,60.03121623,887.8046,888.8027,,,,,,,,,,,,,,,,,,,,,,,,,,888.8028,889.9191,z,1,1.0848,,889.9193,889.9197,,0,72,72,285,1,286,iklon,,,,,5,notharmonic,1.85,nw,z,,,,,,,
,,,,,,,,,,,,001,2023-11-07_16h21.40.494,vowel_harmony,2023.2.3,Win32,60.03121623,889.9206,890.9189,,,,,,,,,,,,,,,,,,,,,,,,,,890.9191,891.6899,m,1,0.7503,,891.69,891.6901,,0,73,73,91,1,92,ifade,6177,280.6584,5726,0.626,5,notharmonic,1.7,word,m,,,,,,,
,,,,,,,,,,,,001,2023-11-07_16h21.40.494,vowel_harmony,2023.2.3,Win32,60.03121623,891.6904,892.6846,,,,,,,,,,,,,,,,,,,,,,,,,,892.6847,893.5221,z,1,0.8166,,893.5221,893.5222,,0,74,74,186,1,187,habık,,,,,5,harmonic,1.9,nw,z,,,,,,,
,,,,,,,,,,,,001,2023-11-07_16h21.40.494,vowel_harmony,2023.2.3,Win32,60.03121623,893.5225,894.5167,,,,,,,,,,,,,,,,,,,,,,,,,,894.5168,895.1999,z,1,0.6598,,895.2002,895.2006,,0,75,75,300,1,301,nilgi,,,,,5,notharmonic,1.85,nw,z,,,,,,,
,,,,,,,,,,,,001,2023-11-07_16h21.40.494,vowel_harmony,2023.2.3,Win32,60.03121623,895.2013,896.1994,,,,,,,,,,,,,,,,,,,,,,,,,,896.1995,896.8819,z,1,0.6537,,896.8822,896.8828,,0,76,76,203,1,204,döves,,,,,5,harmonic,1.8,nw,z,,,,,,,
,,,,,,,,,,,,001,2023-11-07_16h21.40.494,vowel_harmony,2023.2.3,Win32,60.03121623,896.8838,897.8865,,,,,,,,,,,,,,,,,,,,,,,,,,897.8865,898.6651,m,1,0.7564,,898.6654,898.6661,,0,77,77,2,1,3,radyo,763,34.6677,636,0.0695,5,harmonic,1.85,word,m,,,,,,,
,,,,,,,,,,,,001,2023-11-07_16h21.40.494,vowel_harmony,2023.2.3,Win32,60.03121623,898.6668,899.6647,,,,,,,,,,,,,,,,,,,,,,,,,,899.6648,900.4641,m,1,0.7678,,900.4643,900.4648,,0,78,78,105,1,106,sahip,10887,494.6621,9847,1.0765,5,notharmonic,1.25,word,m,,,,,,,
,,,,,,,,,,,,001,2023-11-07_16h21.40.494,vowel_harmony,2023.2.3,Win32,60.03121623,900.4658,901.4683,,,,,,,,,,,,,,,,,,,,,,,,,,901.4683,902.1965,m,1,0.7007,,902.1966,902.197,,0,79,79,97,1,98,mevcut,3007,136.6262,2842,0.3107,6,notharmonic,1.95,word,m,,,,,,,
,,,,,,,,,,,,001,2023-11-07_16h21.40.494,vowel_harmony,2023.2.3,Win32,60.03121623,902.1981,903.196,,,,,,,,,,,,,,,,,,,,,,,,,,903.1963,903.884,m,1,0.6665,,903.8841,903.8842,,0,80,80,10,1,11,bardak,1728,78.5135,1569,0.1715,6,harmonic,1.6,word,m,,,,,,,
,,,,,,,,,,,,001,2023-11-07_16h21.40.494,vowel_harmony,2023.2.3,Win32,60.03121623,903.8844,904.8836,,,,,,,,,,,,,,,,,,,,,,,,,,904.8836,905.5835,m,1,0.6839,,905.5835,905.5837,,0,81,81,83,1,84,küçük,14048,638.2854,12467,1.3629,5,harmonic,1.75,word,m,,,,,,,
,,,,,,,,,,,,001,2023-11-07_16h21.40.494,vowel_harmony,2023.2.3,Win32,60.03121623,905.584,906.5776,,,,,,,,,,,,,,,,,,,,,,,,,,906.5779,907.4448,z,1,0.8342,,907.4452,907.4457,,0,82,82,254,1,255,millek,,,,,6,harmonic,1.8,nw,z,,,,,,,
,,,,,,,,,,,,001,2023-11-07_16h21.40.494,vowel_harmony,2023.2.3,Win32,60.03121623,907.446,908.4436,,,,,,,,,,,,,,,,,,,,,,,,,,908.4437,909.0651,m,1,0.6001,,909.0651,909.0651,,0,83,83,136,1,137,beyaz,5517,250.6706,4788,0.5234,5,notharmonic,1.85,word,m,,,,,,,
,,,,,,,,,,,,001,2023-11-07_16h21.40.494,vowel_harmony,2023.2.3,Win32,60.03121623,909.0655,910.0598,,,,,,,,,,,,,,,,,,,,,,,,,,910.06,910.8286,m,1,0.7477,,910.8287,910.8288,,0,84,84,5,1,6,bebek,3301,149.9843,2794,0.3054,5,harmonic,1.6,word,m,,,,,,,
,,,,,,,,,,,,001,2023-11-07_16h21.40.494,vowel_harmony,2023.2.3,Win32,60.03121623,910.8291,911.8259,,,,,,,,,,,,,,,,,,,,,,,,,,911.8261,912.4973,m,1,0.6504,,912.4973,912.4974,,0,85,85,49,1,50,şeker,4708,213.9128,4170,0.4559,5,harmonic,1.6,word,m,,,,,,,
,,,,,,,,,,,,001,2023-11-07_16h21.40.494,vowel_harmony,2023.2.3,Win32,60.03121623,912.4977,913.4915,,,,,,,,,,,,,,,,,,,,,,,,,,913.4916,914.1298,z,1,0.617,,914.1298,914.1299,,0,86,86,257,1,258,zerü,,,,,4,harmonic,1.8,nw,z,,,,,,,
,,,,,,,,,,,,001,2023-11-07_16h21.40.494,vowel_harmony,2023.2.3,Win32,60.03121623,914.1301,915.1239,,,,,,,,,,,,,,,,,,,,,,,,,,915.1241,915.862,m,1,0.717,,915.862,915.8621,,0,87,87,26,1,27,sebze,1094,49.707,961,0.1051,5,harmonic,1.9,word,m,,,,,,,
,,,,,,,,,,,,001,2023-11-07_16h21.40.494,vowel_harmony,2023.2.3,Win32,60.03121623,915.8623,916.8566,,,,,,,,,,,,,,,,,,,,,,,,,,916.8568,917.6777,z,1,0.8,,917.6778,917.6778,,0,88,88,327,1,328,parkeş,,,,,6,notharmonic,1.9,nw,z,,,,,,,
,,,,,,,,,,,,001,2023-11-07_16h21.40.494,vowel_harmony,2023.2.3,Win32,60.03121623,917.678,918.6722,,,,,,,,,,,,,,,,,,,,,,,,,,918.6723,919.4439,z,1,0.7502,,919.4439,919.444,,0,89,89,307,1,308,merbat,,,,,6,notharmonic,1.95,nw,z,,,,,,,
,,,,,,,,,,,,001,2023-11-07_16h21.40.494,vowel_harmony,2023.2.3,Win32,60.03121623,919.4441,920.4384,,,,,,,,,,,,,,,,,,,,,,,,,,920.4386,921.1381,z,1,0.6673,,921.1385,921.1391,,0,90,90,334,1,335,işgan,,,,,5,notharmonic,1.95,nw,z,,,,,,,
,,,,,,,,,,,,001,2023-11-07_16h21.40.494,vowel_harmony,2023.2.3,Win32,60.03121623,921.1398,922.142,,,,,,,,,,,,,,,,,,,,,,,,,,922.142,923.0087,z,1,0.8498,,923.0087,923.0088,,0,91,91,309,1,310,yorgen,,,,,6,notharmonic,1.9,nw,z,,,,,,,
,,,,,,,,,,,,001,2023-11-07_16h21.40.494,vowel_harmony,2023.2.3,Win32,60.03121623,923.0091,924.0035,,,,,,,,,,,,,,,,,,,,,,,,,,924.0036,924.8083,z,1,0.7836,,924.8084,924.8084,,0,92,92,185,1,186,örtin,,,,,5,harmonic,1.9,nw,z,,,,,,,
,,,,,,,,,,,,001,2023-11-07_16h21.40.494,vowel_harmony,2023.2.3,Win32,60.03121623,924.8086,925.8027,,,,,,,,,,,,,,,,,,,,,,,,,,925.8029,926.536,m,1,0.7013,,926.5363,926.5367,,0,93,93,103,1,104,tane,5623,255.4868,5075,0.5548,4,notharmonic,1.3,word,m,,,,,,,
,,,,,,,,,,,,001,2023-11-07_16h21.40.494,vowel_harmony,2023.2.3,Win32,60.03121623,926.5374,927.5352,,,,,,,,,,,,,,,,,,,,,,,,,,927.5353,928.4681,m,1,0.9041,,928.4683,928.4692,,0,94,94,22,1,23,anlam,1730,78.6043,1617,0.1768,5,harmonic,1.25,word,m,,,,,,,
,,,,,,,,,,,,001,2023-11-07_16h21.40.494,vowel_harmony,2023.2.3,Win32,60.03121623,928.4698,929.4723,,,,,,,,,,,,,,,,,,,,,,,,,,929.4723,930.1506,m,1,0.6596,,930.1508,930.1515,,0,95,95,6,1,7,hayal,4498,204.3713,4079,0.4459,5,harmonic,1.45,word,m,,,,,,,
,,,,,,,,,,,,001,2023-11-07_16h21.40.494,vowel_harmony,2023.2.3,Win32,60.03121623,930.1523,931.1499,,,,,,,,,,,,,,,,,,,,,,,,,,931.15,931.8168,z,1,0.6378,,931.817,931.8175,,0,96,96,244,1,245,kaof,,,,,4,harmonic,1.9,nw,z,,,,,,,
,,,,,,,,,,,,001,2023-11-07_16h21.40.494,vowel_harmony,2023.2.3,Win32,60.03121623,931.818,932.8204,,,,,,,,,,,,,,,,,,,,,,,,,,932.8204,933.649,m,1,0.8043,,933.6493,933.6498,,0,97,97,68,1,69,ücret,734,33.35,634,0.0693,5,harmonic,1.85,word,m,,,,,,,
,,,,,,,,,,,,001,2023-11-07_16h21.40.494,vowel_harmony,2023.2.3,Win32,60.03121623,933.6505,934.6487,,,,,,,,,,,,,,,,,,,,,,,,,,934.6488,935.5648,z,1,0.8905,,935.5649,935.5653,,0,98,98,310,1,311,yandeş,,,,,6,notharmonic,1.95,nw,z,,,,,,,
,,,,,,,,,,,,001,2023-11-07_16h21.40.494,vowel_harmony,2023.2.3,Win32,60.03121623,935.5663,936.5645,,,,,,,,,,,,,,,,,,,,,,,,,,936.5646,937.3493,z,1,0.7637,,937.3494,937.3494,,0,99,99,357,1,358,işarek,,,,,6,notharmonic,1.95,nw,z,,,,,,,
,,,,,,,,,,,,001,2023-11-07_16h21.40.494,vowel_harmony,2023.2.3,Win32,60.03121623,937.3498,938.347,,,,,,,,,,,,,,,,,,,,,,,,,,938.3472,939.0013,z,1,0.6334,,939.0013,939.0014,,0,100,100,326,1,327,ailo,,,,,4,notharmonic,1.75,nw,z,,,,,,,
,,,,,,,,,,,,001,2023-11-07_16h21.40.494,vowel_harmony,2023.2.3,Win32,60.03121623,939.0017,939.9957,,,,,,,,,,,,,,,,,,,,,,,,,,939.9961,940.7981,z,1,0.7808,,940.7981,940.7982,,0,101,101,256,1,257,yaruza,,,,,6,harmonic,1.9,nw,z,,,,,,,
,,,,,,,,,,,,001,2023-11-07_16h21.40.494,vowel_harmony,2023.2.3,Win32,60.03121623,940.7985,941.7954,,,,,,,,,,,,,,,,,,,,,,,,,,941.7956,942.5166,m,1,0.7001,,942.5167,942.5168,,0,102,102,57,1,58,bölüm,1910,86.7828,1605,0.1755,5,harmonic,1.45,word,m,,,,,,,
,,,,,,,,,,,,001,2023-11-07_16h21.40.494,vowel_harmony,2023.2.3,Win32,60.03121623,942.517,943.5106,,,,,,,,,,,,,,,,,,,,,,,,,,943.5109,944.1495,m,1,0.6172,,944.1495,944.1496,,0,103,103,134,1,135,iptal,793,36.0308,725,0.0793,5,notharmonic,1.35,word,m,,,,,,,
,,,,,,,,,,,,001,2023-11-07_16h21.40.494,vowel_harmony,2023.2.3,Win32,60.03121623,944.1498,945.1438,,,,,,,,,,,,,,,,,,,,,,,,,,945.144,945.8266,m,1,0.659,,945.8267,945.8272,,0,104,104,71,1,72,örnek,3463,157.345,3266,0.357,5,harmonic,1.85,word,m,,,,,,,
,,,,,,,,,,,,001,2023-11-07_16h21.40.494,vowel_harmony,2023.2.3,Win32,60.03121623,945.8282,946.8309,,,,,,,,,,,,,,,,,,,,,,,,,,946.831,947.4593,m,1,0.6007,,947.4594,947.46,,0,105,105,61,1,62,yıldız,1775,80.649,1532,0.1675,6,harmonic,1.6,word,m,,,,,,,
,,,,,,,,,,,,001,2023-11-07_16h21.40.494,vowel_harmony,2023.2.3,Win32,60.03121623,947.4609,948.4588,,,,,,,,,,,,,,,,,,,,,,,,,,948.459,949.2964,m,1,0.8162,,949.2964,949.2965,,0,106,106,39,1,40,yaygın,1061,48.2076,1019,0.1114,6,harmonic,1.35,word,m,,,,,,,
,,,,,,,,,,,,001,2023-11-07_16h21.40.494,vowel_harmony,2023.2.3,Win32,60.03121623,949.2966,950.2916,,,,,,,,,,,,,,,,,,,,,,,,,,950.2917,951.0126,z,1,0.7003,,951.0127,951.0127,,0,107,107,194,1,195,rayna,,,,,5,harmonic,1.7,nw,z,,,,,,,
,,,,,,,,,,,,001,2023-11-07_16h21.40.494,vowel_harmony,2023.2.3,Win32,60.03121623,951.0129,952.0075,,,,,,,,,,,,,,,,,,,,,,,,,,952.0076,952.7743,z,1,0.7339,,952.7745,952.7751,,0,108,108,302,1,303,işgar,,,,,5,notharmonic,1.9,nw,z,,,,,,,
,,,,,,,,,,,,001,2023-11-07_16h21.40.494,vowel_harmony,2023.2.3,Win32,60.03121623,952.7756,953.773,,,,,,,,,,,,,,,,,,,,,,,,,,953.7732,954.6893,z,1,0.8875,,954.6895,954.6901,,0,109,109,245,1,246,bıyan,,,,,5,harmonic,1.7,nw,z,,,,,,,
,,,,,,,,,,,,001,2023-11-07_16h21.40.494,vowel_harmony,2023.2.3,Win32,60.03121623,954.6911,955.6895,,,,,,,,,,,,,,,,,,,,,,,,,,955.6896,956.4601,m,1,0.7497,,956.4601,956.4601,,0,110,110,90,1,91,tarif,2834,128.7657,2611,0.2854,5,notharmonic,1.5,word,m,,,,,,,
,,,,,,,,,,,,001,2023-11-07_16h21.40.494,vowel_harmony,2023.2.3,Win32,60.03121623,956.4603,957.4594,,,,,,,,,,,,,,,,,,,,,,,,,,957.4595,958.1427,m,1,0.6667,,958.1427,958.1428,,0,111,111,27,1,28,bölge,1283,58.2944,1123,0.1228,5,harmonic,1.65,word,m,,,,,,,
,,,,,,,,,,,,001,2023-11-07_16h21.40.494,vowel_harmony,2023.2.3,Win32,60.03121623,958.143,959.1376,,,,,,,,,,,,,,,,,,,,,,,,,,959.1376,959.7254,z,1,0.5671,,959.7254,959.7255,,0,112,112,331,1,332,ehun,,,,,4,notharmonic,1.95,nw,z,,,,,,,
,,,,,,,,,,,,001,2023-11-07_16h21.40.494,vowel_harmony,2023.2.3,Win32,60.03121623,959.7257,960.7201,,,,,,,,,,,,,,,,,,,,,,,,,,960.7203,961.3533,z,1,0.6061,,961.3535,961.3541,,0,113,113,335,1,336,lilo,,,,,4,notharmonic,1.8,nw,z,,,,,,,
,,,,,,,,,,,,001,2023-11-07_16h21.40.494,vowel_harmony,2023.2.3,Win32,60.03121623,961.355,962.3527,,,,,,,,,,,,,,,,,,,,,,,,,,962.3528,963.1073,m,1,0.7333,,963.1074,963.1074,,0,114,114,48,1,49,teşvik,932,42.3464,867,0.0948,6,harmonic,1.8,word,m,,,,,,,
,,,,,,,,,,,,001,2023-11-07_16h21.40.494,vowel_harmony,2023.2.3,Win32,60.03121623,963.1076,964.102,,,,,,,,,,,,,,,,,,,,,,,,,,964.1022,964.8065,m,1,0.6836,,964.8066,964.8066,,0,115,115,11,1,12,umut,1988,90.3268,1818,0.1987,4,harmonic,1.55,word,m,,,,,,,
,,,,,,,,,,,,001,2023-11-07_16h21.40.494,vowel_harmony,2023.2.3,Win32,60.03121623,964.8069,965.8013,,,,,,,,,,,,,,,,,,,,,,,,,,965.8015,966.4842,z,1,0.6505,,966.4843,966.4847,,0,116,116,243,1,244,korguf,,,,,6,harmonic,2,nw,z,,,,,,,
,,,,,,,,,,,,001,2023-11-07_16h21.40.494,vowel_harmony,2023.2.3,Win32,60.03121623,966.4858,967.484,,,,,,,,,,,,,,,,,,,,,,,,,,967.4842,968.1848,m,1,0.6787,,968.1849,968.1849,,0,117,117,150,1,151,sabit,1046,47.5261,915,0.1,5,notharmonic,1.75,word,m,,,,,,,
,,,,,,,,,,,,001,2023-11-07_16h21.40.494,vowel_harmony,2023.2.3,Win32,60.03121623,968.1851,969.184,,,,,,,,,,,,,,,,,,,,,,,,,,969.1842,969.8327,m,1,0.6229,,969.8329,969.8336,,0,118,118,93,1,94,siyah,2944,133.7637,2527,0.2763,5,notharmonic,1.6,word,m,,,,,,,
,,,,,,,,,,,,001,2023-11-07_16h21.40.494,vowel_harmony,2023.2.3,Win32,60.03121623,969.8343,970.837,,,,,,,,,,,,,,,,,,,,,,,,,,970.837,971.482,m,1,0.6265,,971.4822,971.4828,,0,119,119,143,1,144,kitap,8359,379.7998,6786,0.7418,5,notharmonic,1.9,word,m,,,,,,,
,,,,,,,,,,,,001,2023-11-07_16h21.40.494,vowel_harmony,2023.2.3,Win32,60.03121623,971.4835,972.4816,,,,,,,,,,,,,,,,,,,,,,,,,,972.4817,973.1693,z,1,0.667,,973.1694,997.1557,space,0,120,120,298,1,299,yelsın,,,,,6,notharmonic,1.95,nw,z,23.97,,,,,,
,,,,,,,,,,,,001,2023-11-07_16h21.40.494,vowel_harmony,2023.2.3,Win32,60.03121623,997.1628,998.1535,,,,,,,,,,,,,,,,,,,,,,,,,,998.1539,1000.1569,,0,,,1000.1569,1000.1571,,0,121,121,88,1,89,yalnız,5891,267.6637,5440,0.5947,6,harmonic,1.6,word,m,,,,,,,
,,,,,,,,,,,,001,2023-11-07_16h21.40.494,vowel_harmony,2023.2.3,Win32,60.03121623,1000.1574,1001.1521,,,,,,,,,,,,,,,,,,,,,,,,,,1001.1524,1001.2233,m,0,0.0505,,1001.2233,1001.2234,,0,122,122,288,1,289,molit,,,,,5,notharmonic,1.95,nw,z,,,,,,,
,,,,,,,,,,,,001,2023-11-07_16h21.40.494,vowel_harmony,2023.2.3,Win32,60.03121623,1001.2236,1002.2199,,,,,,,,,,,,,,,,,,,,,,,,,,1002.2199,1003.9678,z,1,1.721,,1003.968,1003.9685,,0,123,123,358,1,359,yangin,,,,,6,notharmonic,1.9,nw,z,,,,,,,
,,,,,,,,,,,,001,2023-11-07_16h21.40.494,vowel_harmony,2023.2.3,Win32,60.03121623,1003.9688,1004.9711,,,,,,,,,,,,,,,,,,,,,,,,,,1004.9711,1005.7211,z,1,0.7335,,1005.7212,1005.7212,,0,124,124,289,1,290,karmen,,,,,6,notharmonic,1.75,nw,z,,,,,,,
,,,,,,,,,,,,001,2023-11-07_16h21.40.494,vowel_harmony,2023.2.3,Win32,60.03121623,1005.7216,1006.7161,,,,,,,,,,,,,,,,,,,,,,,,,,1006.7163,1007.6869,m,1,0.9499,,1007.687,1007.6871,,0,125,125,16,1,17,yavaş,5087,231.1331,2886,0.3155,5,harmonic,1.6,word,m,,,,,,,
,,,,,,,,,,,,001,2023-11-07_16h21.40.494,vowel_harmony,2023.2.3,Win32,60.03121623,1007.6873,1008.6817,,,,,,,,,,,,,,,,,,,,,,,,,,1008.6818,1009.4309,m,1,0.7199,,1009.4315,1009.4325,,0,126,126,67,1,68,bayram,1948,88.5094,1648,0.1802,6,harmonic,1.85,word,m,,,,,,,
,,,,,,,,,,,,001,2023-11-07_16h21.40.494,vowel_harmony,2023.2.3,Win32,60.03121623,1009.4329,1010.4355,,,,,,,,,,,,,,,,,,,,,,,,,,1010.4355,1012.3467,z,1,1.8929,,1012.3469,1012.3474,,0,127,127,250,1,251,kakuk,,,,,5,harmonic,1.9,nw,z,,,,,,,
,,,,,,,,,,,,001,2023-11-07_16h21.40.494,vowel_harmony,2023.2.3,Win32,60.03121623,1012.3482,1013.3463,,,,,,,,,,,,,,,,,,,,,,,,,,1013.3466,1015.0338,m,1,1.6664,,1015.0338,1015.034,,0,128,128,60,1,61,doğu,2105,95.6429,1823,0.1993,4,harmonic,1.05,word,m,,,,,,,
,,,,,,,,,,,,001,2023-11-07_16h21.40.494,vowel_harmony,2023.2.3,Win32,60.03121623,1015.0343,1016.0325,,,,,,,,,,,,,,,,,,,,,,,,,,1016.0326,1016.8279,m,1,0.7675,,1016.8281,1016.8284,,0,129,129,38,1,39,dönem,2820,128.1296,2437,0.2664,5,harmonic,1.4,word,m,,,,,,,
,,,,,,,,,,,,001,2023-11-07_16h21.40.494,vowel_harmony,2023.2.3,Win32,60.03121623,1016.8297,1017.8275,,,,,,,,,,,,,,,,,,,,,,,,,,1017.8276,1018.5105,z,1,0.6555,,1018.5107,1018.5111,,0,130,130,218,1,219,tezöl,,,,,5,harmonic,2,nw,z,,,,,,,
,,,,,,,,,,,,001,2023-11-07_16h21.40.494,vowel_harmony,2023.2.3,Win32,60.03121623,1018.5122,1019.5101,,,,,,,,,,,,,,,,,,,,,,,,,,1019.5103,1020.3097,z,1,0.7733,,1020.3099,1020.3104,,0,131,131,189,1,190,düvre,,,,,5,harmonic,1.85,nw,z,,,,,,,
,,,,,,,,,,,,001,2023-11-07_16h21.40.494,vowel_harmony,2023.2.3,Win32,60.03121623,1020.3112,1021.3095,,,,,,,,,,,,,,,,,,,,,,,,,,1021.3096,1022.5585,z,1,1.2174,,1022.5586,1022.5591,,0,132,132,338,1,339,pardön,,,,,6,notharmonic,1.95,nw,z,,,,,,,
,,,,,,,,,,,,001,2023-11-07_16h21.40.494,vowel_harmony,2023.2.3,Win32,60.03121623,1022.5601,1023.5579,,,,,,,,,,,,,,,,,,,,,,,,,,1023.5581,1024.4624,m,1,0.8831,,1024.4624,1024.4624,,0,133,133,174,1,175,bugün,13879,630.6067,12842,1.4039,5,notharmonic,1.85,word,m,,,,,,,
,,,,,,,,,,,,001,2023-11-07_16h21.40.494,vowel_harmony,2023.2.3,Win32,60.03121623,1024.4626,1025.4595,,,,,,,,,,,,,,,,,,,,,,,,,,1025.4595,1026.3238,m,1,0.8377,,1026.3239,1026.3245,,0,134,134,9,1,10,karar,8108,368.3954,7436,0.8129,5,harmonic,1.6,word,m,,,,,,,
,,,,,,,,,,,,001,2023-11-07_16h21.40.494,vowel_harmony,2023.2.3,Win32,60.03121623,1026.3253,1027.3241,,,,,,,,,,,,,,,,,,,,,,,,,,1027.3243,1029.2717,m,1,1.9236,,1029.2718,1029.2723,,0,135,135,162,1,163,hariç,1267,57.5675,1233,0.1348,5,notharmonic,1.75,word,m,,,,,,,
,,,,,,,,,,,,001,2023-11-07_16h21.40.494,vowel_harmony,2023.2.3,Win32,60.03121623,1029.2804,1030.276,,,,,,,,,,,,,,,,,,,,,,,,,,1030.276,1030.9601,m,1,0.6669,,1030.9601,1030.9601,,0,136,136,155,1,156,ilaç,1366,62.0656,1215,0.1328,4,notharmonic,1.75,word,m,,,,,,,
,,,,,,,,,,,,001,2023-11-07_16h21.40.494,vowel_harmony,2023.2.3,Win32,60.03121623,1030.9604,1031.9545,,,,,,,,,,,,,,,,,,,,,,,,,,1031.9547,1032.5703,m,1,0.5929,,1032.5704,1032.5708,,0,137,137,110,1,111,rüya,1062,48.2531,937,0.1024,4,notharmonic,1.75,word,m,,,,,,,
,,,,,,,,,,,,001,2023-11-07_16h21.40.494,vowel_harmony,2023.2.3,Win32,60.03121623,1032.5721,1033.5705,,,,,,,,,,,,,,,,,,,,,,,,,,1033.5706,1034.4366,z,1,0.8343,,1034.4367,1034.4374,,0,138,138,272,1,273,daken,,,,,5,notharmonic,1.8,nw,z,,,,,,,
,,,,,,,,,,,,001,2023-11-07_16h21.40.494,vowel_harmony,2023.2.3,Win32,60.03121623,1034.4381,1035.436,,,,,,,,,,,,,,,,,,,,,,,,,,1035.436,1036.7879,m,1,1.3307,,1036.788,1036.788,,0,139,139,116,1,117,daire,621,28.2158,503,0.055,5,notharmonic,1,word,m,,,,,,,
,,,,,,,,,,,,001,2023-11-07_16h21.40.494,vowel_harmony,2023.2.3,Win32,60.03121623,1036.7884,1037.7855,,,,,,,,,,,,,,,,,,,,,,,,,,1037.7858,1038.506,m,1,0.6999,,1038.506,1038.5061,,0,140,140,15,1,16,hayat,7922,359.9443,7314,0.7996,5,harmonic,1.9,word,m,,,,,,,
,,,,,,,,,,,,001,2023-11-07_16h21.40.494,vowel_harmony,2023.2.3,Win32,60.03121623,1038.5064,1039.5056,,,,,,,,,,,,,,,,,,,,,,,,,,1039.5057,1040.1722,m,1,0.6499,,1040.1722,1040.1723,,0,141,141,47,1,48,kaza,740,33.6227,679,0.0742,4,harmonic,1.85,word,m,,,,,,,
,,,,,,,,,,,,001,2023-11-07_16h21.40.494,vowel_harmony,2023.2.3,Win32,60.03121623,1040.1725,1041.1667,,,,,,,,,,,,,,,,,,,,,,,,,,1041.1669,1041.8212,m,1,0.6333,,1041.8213,1041.8214,,0,142,142,161,1,162,komik,1617,73.4701,1506,0.1646,5,notharmonic,1.75,word,m,,,,,,,
,,,,,,,,,,,,001,2023-11-07_16h21.40.494,vowel_harmony,2023.2.3,Win32,60.03121623,1041.8217,1042.8162,,,,,,,,,,,,,,,,,,,,,,,,,,1042.8163,1043.4373,m,1,0.6004,,1043.4374,1043.4374,,0,143,143,144,1,145,garip,2567,116.6343,2355,0.2574,5,notharmonic,1.65,word,m,,,,,,,
,,,,,,,,,,,,001,2023-11-07_16h21.40.494,vowel_harmony,2023.2.3,Win32,60.03121623,1043.4376,1044.4369,,,,,,,,,,,,,,,,,,,,,,,,,,1044.4369,1045.1535,z,1,0.7,,1045.1535,1045.1535,,0,144,144,225,1,226,düvem,,,,,5,harmonic,1.7,nw,z,,,,,,,
,,,,,,,,,,,,001,2023-11-07_16h21.40.494,vowel_harmony,2023.2.3,Win32,60.03121623,1045.1537,1046.1525,,,,,,,,,,,,,,,,,,,,,,,,,,1046.1526,1046.8806,m,1,0.7013,,1046.8809,1046.8813,,0,145,145,148,1,149,selam,1868,84.8745,1764,0.1928,5,notharmonic,1.35,word,m,,,,,,,
,,,,,,,,,,,,001,2023-11-07_16h21.40.494,vowel_harmony,2023.2.3,Win32,60.03121623,1046.8823,1047.8851,,,,,,,,,,,,,,,,,,,,,,,,,,1047.8851,1048.7467,m,1,0.8405,,1048.7469,1048.7475,,0,146,146,156,1,157,medya,1784,81.0579,1495,0.1634,5,notharmonic,1.35,word,m,,,,,,,
,,,,,,,,,,,,001,2023-11-07_16h21.40.494,vowel_harmony,2023.2.3,Win32,60.03121623,1048.7483,1049.7464,,,,,,,,,,,,,,,,,,,,,,,,,,1049.7466,1050.6176,z,1,0.85,,1050.6176,1050.6177,,0,147,147,187,1,188,remrin,,,,,6,harmonic,1.9,nw,z,,,,,,,
,,,,,,,,,,,,001,2023-11-07_16h21.40.494,vowel_harmony,2023.2.3,Win32,60.03121623,1050.6179,1051.6122,,,,,,,,,,,,,,,,,,,,,,,,,,1051.6123,1052.7284,z,1,1.0846,,1052.7286,1052.7291,,0,148,148,325,1,326,garit,,,,,5,notharmonic,1.85,nw,z,,,,,,,
,,,,,,,,,,,,001,2023-11-07_16h21.40.494,vowel_harmony,2023.2.3,Win32,60.03121623,1052.73,1053.7281,,,,,,,,,,,,,,,,,,,,,,,,,,1053.7284,1054.444,m,1,0.6842,,1054.4442,1054.4445,,0,149,149,119,1,120,kulüp,649,29.488,467,0.0511,5,notharmonic,1.4,word,m,,,,,,,
,,,,,,,,,,,,001,2023-11-07_16h21.40.494,vowel_harmony,2023.2.3,Win32,60.03121623,1054.4456,1055.4441,,,,,,,,,,,,,,,,,,,,,,,,,,1055.4442,1057.4434,,0,,,1057.4437,1057.4442,,0,150,150,195,1,196,netüm,,,,,5,harmonic,1.95,nw,z,,,,,,,
,,,,,,,,,,,,001,2023-11-07_16h21.40.494,vowel_harmony,2023.2.3,Win32,60.03121623,1057.4527,1058.4469,,,,,,,,,,,,,,,,,,,,,,,,,,1058.447,1059.1803,m,1,0.7166,,1059.1803,1059.1804,,0,151,151,173,1,174,sade,1193,54.2052,1114,0.1218,4,notharmonic,1.55,word,m,,,,,,,
,,,,,,,,,,,,001,2023-11-07_16h21.40.494,vowel_harmony,2023.2.3,Win32,60.03121623,1059.1806,1060.175,,,,,,,,,,,,,,,,,,,,,,,,,,1060.1752,1062.174,,0,,,1062.1742,1062.1747,,0,152,152,346,1,347,kidan,,,,,5,notharmonic,1.8,nw,z,,,,,,,
,,,,,,,,,,,,001,2023-11-07_16h21.40.494,vowel_harmony,2023.2.3,Win32,60.03121623,1062.1836,1063.1782,,,,,,,,,,,,,,,,,,,,,,,,,,1063.1782,1064.0112,m,1,0.8164,,1064.0112,1064.0113,,0,153,153,169,1,170,hikaye,1555,70.653,1405,0.1536,6,notharmonic,1.8,word,m,,,,,,,
,,,,,,,,,,,,001,2023-11-07_16h21.40.494,vowel_harmony,2023.2.3,Win32,60.03121623,1064.0115,1065.0059,,,,,,,,,,,,,,,,,,,,,,,,,,1065.006,1065.6558,m,1,0.6174,,1065.6559,1065.6567,,0,154,154,84,1,85,ülke,3121,141.8059,2801,0.3062,4,harmonic,1.65,word,m,,,,,,,
,,,,,,,,,,,,001,2023-11-07_16h21.40.494,vowel_harmony,2023.2.3,Win32,60.03121623,1065.6573,1066.6548,,,,,,,,,,,,,,,,,,,,,,,,,,1066.6551,1067.3563,z,1,0.6787,,1067.3563,1067.3564,,0,155,155,297,1,298,sapet,,,,,5,notharmonic,1.85,nw,z,,,,,,,
,,,,,,,,,,,,001,2023-11-07_16h21.40.494,vowel_harmony,2023.2.3,Win32,60.03121623,1067.3567,1068.3548,,,,,,,,,,,,,,,,,,,,,,,,,,1068.355,1069.0884,z,1,0.7043,,1069.0886,1069.0888,,0,156,156,276,1,277,iptap,,,,,5,notharmonic,1.95,nw,z,,,,,,,
,,,,,,,,,,,,001,2023-11-07_16h21.40.494,vowel_harmony,2023.2.3,Win32,60.03121623,1069.0892,1070.0872,,,,,,,,,,,,,,,,,,,,,,,,,,1070.0872,1070.858,m,1,0.7499,,1070.8581,1070.8582,,0,157,157,46,1,47,takım,4370,198.5555,3726,0.4073,5,harmonic,1.7,word,m,,,,,,,
,,,,,,,,,,,,001,2023-11-07_16h21.40.494,vowel_harmony,2023.2.3,Win32,60.03121623,1070.8585,1071.8574,,,,,,,,,,,,,,,,,,,,,,,,,,1071.8574,1072.6408,m,1,0.7668,,1072.6409,1072.6409,,0,158,158,64,1,65,lise,888,40.3472,816,0.0892,4,harmonic,1.5,word,m,,,,,,,
,,,,,,,,,,,,001,2023-11-07_16h21.40.494,vowel_harmony,2023.2.3,Win32,60.03121623,1072.6411,1073.635,,,,,,,,,,,,,,,,,,,,,,,,,,1073.6352,1074.3567,z,1,0.7003,,1074.3568,1074.3568,,0,159,159,239,1,240,şekik,,,,,5,harmonic,1.7,nw,z,,,,,,,
,,,,,,,,,,,,001,2023-11-07_16h21.40.494,vowel_harmony,2023.2.3,Win32,60.03121623,1074.357,1075.3555,,,,,,,,,,,,,,,,,,,,,,,,,,1075.3556,1076.0557,m,1,0.6832,,1076.0557,1076.0558,,0,160,160,140,1,141,sahil,481,21.8547,443,0.0484,5,notharmonic,1.45,word,m,,,,,,,
,,,,,,,,,,,,001,2023-11-07_16h21.40.494,vowel_harmony,2023.2.3,Win32,60.03121623,1076.056,1077.0508,,,,,,,,,,,,,,,,,,,,,,,,,,1077.0509,1079.0506,,0,,,1079.0507,1079.0512,,0,161,161,89,1,90,etki,1234,56.0681,1169,0.1278,4,harmonic,1.4,word,m,,,,,,,
,,,,,,,,,,,,001,2023-11-07_16h21.40.494,vowel_harmony,2023.2.3,Win32,60.03121623,1079.0515,1080.0494,,,,,,,,,,,,,,,,,,,,,,,,,,1080.0495,1080.7872,z,1,0.7167,,1080.7872,1080.7873,,0,162,162,201,1,202,ergiy,,,,,5,harmonic,1.85,nw,z,,,,,,,
,,,,,,,,,,,,001,2023-11-07_16h21.40.494,vowel_harmony,2023.2.3,Win32,60.03121623,1080.7876,1081.7815,,,,,,,,,,,,,,,,,,,,,,,,,,1081.7816,1082.8194,z,1,1.0166,,1082.8194,1082.8195,,0,163,163,292,1,293,kinam,,,,,5,notharmonic,1.85,nw,z,,,,,,,
,,,,,,,,,,,,001,2023-11-07_16h21.40.494,vowel_harmony,2023.2.3,Win32,60.03121623,1082.8197,1083.8187,,,,,,,,,,,,,,,,,,,,,,,,,,1083.8187,1084.5188,m,1,0.6834,,1084.5188,1084.5188,,0,164,164,86,1,87,gerçek,8983,408.1519,8058,0.8809,6,harmonic,1.7,word,m,,,,,,,
,,,,,,,,,,,,001,2023-11-07_16h21.40.494,vowel_harmony,2023.2.3,Win32,60.03121623,1084.5191,1085.5142,,,,,,,,,,,,,,,,,,,,,,,,,,1085.5144,1086.8179,z,1,1.2835,,1086.818,1086.8181,,0,165,165,283,1,284,fahe,,,,,4,notharmonic,1.95,nw,z,,,,,,,
,,,,,,,,,,,,001,2023-11-07_16h21.40.494,vowel_harmony,2023.2.3,Win32,60.03121623,1086.8183,1087.8168,,,,,,,,,,,,,,,,,,,,,,,,,,1087.8168,1088.5122,z,1,0.6735,,1088.5125,1088.5131,,0,166,166,301,1,302,mezak,,,,,5,notharmonic,1.8,nw,z,,,,,,,
,,,,,,,,,,,,001,2023-11-07_16h21.40.494,vowel_harmony,2023.2.3,Win32,60.03121623,1088.5137,1089.512,,,,,,,,,,,,,,,,,,,,,,,,,,1089.5122,1090.6106,m,1,1.0711,,1090.6109,1090.6113,,0,167,167,102,1,103,esas,1965,89.2818,1795,0.1962,4,notharmonic,1.75,word,m,,,,,,,
,,,,,,,,,,,,001,2023-11-07_16h21.40.494,vowel_harmony,2023.2.3,Win32,60.03121623,1090.6127,1091.6127,,,,,,,,,,,,,,,,,,,,,,,,,,1091.6127,1092.4153,z,1,0.7838,,1092.4153,1092.4154,,0,168,168,317,1,318,mevul,,,,,5,notharmonic,1.95,nw,z,,,,,,,
,,,,,,,,,,,,001,2023-11-07_16h21.40.494,vowel_harmony,2023.2.3,Win32,60.03121623,1092.4156,1093.4099,,,,,,,,,,,,,,,,,,,,,,,,,,1093.4101,1094.376,z,1,0.9435,,1094.3762,1094.3766,,0,169,169,205,1,206,kahay,,,,,5,harmonic,1.9,nw,z,,,,,,,
,,,,,,,,,,,,001,2023-11-07_16h21.40.494,vowel_harmony,2023.2.3,Win32,60.03121623,1094.3775,1095.3759,,,,,,,,,,,,,,,,,,,,,,,,,,1095.3761,1096.18,m,1,0.783,,1096.18,1096.1801,,0,170,170,131,1,132,hakim,1677,76.1962,1559,0.1704,5,notharmonic,1,word,m,,,,,,,
,,,,,,,,,,,,001,2023-11-07_16h21.40.494,vowel_harmony,2023.2.3,Win32,60.03121623,1096.1804,1097.1794,,,,,,,,,,,,,,,,,,,,,,,,,,1097.1794,1097.8079,z,1,0.6051,,1097.8081,1097.8086,,0,171,171,234,1,235,düzöt,,,,,5,harmonic,2.05,nw,z,,,,,,,
,,,,,,,,,,,,001,2023-11-07_16h21.40.494,vowel_harmony,2023.2.3,Win32,60.03121623,1097.8095,1098.8073,,,,,,,,,,,,,,,,,,,,,,,,,,1098.8075,1099.6074,m,1,0.7721,,1099.6076,1099.6081,,0,172,172,35,1,36,hava,4975,226.0443,4398,0.4808,4,harmonic,1,word,m,,,,,,,
,,,,,,,,,,,,001,2023-11-07_16h21.40.494,vowel_harmony,2023.2.3,Win32,60.03121623,1099.6087,1100.6064,,,,,,,,,,,,,,,,,,,,,,,,,,1100.6065,1101.8227,m,1,1.1856,,1101.8229,1101.8234,,0,173,173,113,1,114,model,1200,54.5232,1082,0.1183,5,notharmonic,1.75,word,m,,,,,,,
,,,,,,,,,,,,001,2023-11-07_16h21.40.494,vowel_harmony,2023.2.3,Win32,60.03121623,1101.8242,1102.8222,,,,,,,,,,,,,,,,,,,,,,,,,,1102.8224,1103.5411,m,1,0.6975,,1103.5411,1103.5413,,0,174,174,167,1,168,adalet,1611,73.1975,1388,0.1517,6,notharmonic,1.65,word,m,,,,,,,
,,,,,,,,,,,,001,2023-11-07_16h21.40.494,vowel_harmony,2023.2.3,Win32,60.03121623,1103.5416,1104.5379,,,,,,,,,,,,,,,,,,,,,,,,,,1104.5381,1105.2758,z,1,0.7164,,1105.2759,1105.2759,,0,175,175,196,1,197,bilön,,,,,5,harmonic,1.9,nw,z,,,,,,,
,,,,,,,,,,,,001,2023-11-07_16h21.40.494,vowel_harmony,2023.2.3,Win32,60.03121623,1105.2763,1106.2752,,,,,,,,,,,,,,,,,,,,,,,,,,1106.2752,1108.27,,0,,,1108.2702,1108.2709,,0,176,176,76,1,77,ilişki,1675,76.1054,1524,0.1666,6,harmonic,1.8,word,m,,,,,,,
,,,,,,,,,,,,001,2023-11-07_16h21.40.494,vowel_harmony,2023.2.3,Win32,60.03121623,1108.2798,1109.2694,,,,,,,,,,,,,,,,,,,,,,,,,,1109.2695,1111.2686,,0,,,1111.2687,1111.2692,,0,177,177,184,1,185,yapor,,,,,5,harmonic,1.9,nw,z,,,,,,,
,,,,,,,,,,,,001,2023-11-07_16h21.40.494,vowel_harmony,2023.2.3,Win32,60.03121623,1111.27,1112.2679,,,,,,,,,,,,,,,,,,,,,,,,,,1112.2681,1113.3224,m,1,1.0332,,1113.3224,1113.3224,,0,178,178,37,1,38,hayvan,2363,107.3653,1894,0.2071,6,harmonic,1.5,word,m,,,,,,,
,,,,,,,,,,,,001,2023-11-07_16h21.40.494,vowel_harmony,2023.2.3,Win32,60.03121623,1113.3226,1114.3174,,,,,,,,,,,,,,,,,,,,,,,,,,1114.3175,1114.9216,m,1,0.5834,,1114.9217,1114.9217,,0,179,179,85,1,86,geçmiş,4195,190.6042,4039,0.4415,6,harmonic,1.55,word,m,,,,,,,
,,,,,,,,,,,,001,2023-11-07_16h21.40.494,vowel_harmony,2023.2.3,Win32,60.03121623,1114.922,1115.9154,,,,,,,,,,,,,,,,,,,,,,,,,,1115.9157,1116.5993,m,1,0.655,,1116.5995,1116.6001,,0,180,180,65,1,66,fikir,2552,115.9528,2413,0.2638,5,harmonic,1.9,word,m,,,,,,,
,,,,,,,,,,,,001,2023-11-07_16h21.40.494,vowel_harmony,2023.2.3,Win32,60.03121623,1116.6009,1117.5991,,,,,,,,,,,,,,,,,,,,,,,,,,1117.5993,1118.282,m,1,0.6545,,1118.2821,1118.2827,,0,181,181,87,1,88,mümkün,6604,300.0596,6264,0.6848,6,harmonic,1.9,word,m,,,,,,,
,,,,,,,,,,,,001,2023-11-07_16h21.40.494,vowel_harmony,2023.2.3,Win32,60.03121623,1118.2837,1119.2861,,,,,,,,,,,,,,,,,,,,,,,,,,1119.2861,1119.9142,m,1,0.6074,,1119.9143,1119.9148,,0,182,182,72,1,73,çorba,1674,76.0599,1513,0.1654,5,harmonic,1.75,word,m,,,,,,,
,,,,,,,,,,,,001,2023-11-07_16h21.40.494,vowel_harmony,2023.2.3,Win32,60.03121623,1119.9158,1120.9148,,,,,,,,,,,,,,,,,,,,,,,,,,1120.9149,1121.4973,m,1,0.5512,,1121.4975,1121.4981,,0,183,183,176,1,177,harika,4682,212.7315,4422,0.4834,6,notharmonic,1.9,word,m,,,,,,,
,,,,,,,,,,,,001,2023-11-07_16h21.40.494,vowel_harmony,2023.2.3,Win32,60.03121623,1121.4987,1122.497,,,,,,,,,,,,,,,,,,,,,,,,,,1122.4972,1123.1634,z,1,0.6427,,1123.1637,1123.1643,,0,184,184,193,1,194,yokın,,,,,5,harmonic,1.85,nw,z,,,,,,,
,,,,,,,,,,,,001,2023-11-07_16h21.40.494,vowel_harmony,2023.2.3,Win32,60.03121623,1123.1646,1124.1625,,,,,,,,,,,,,,,,,,,,,,,,,,1124.1627,1125.0123,z,1,0.8183,,1125.0125,1125.0131,,0,185,185,320,1,321,finak,,,,,5,notharmonic,1.85,nw,z,,,,,,,
,,,,,,,,,,,,001,2023-11-07_16h21.40.494,vowel_harmony,2023.2.3,Win32,60.03121623,1125.0139,1126.0137,,,,,,,,,,,,,,,,,,,,,,,,,,1126.0138,1126.8163,m,1,0.7834,,1126.8163,1126.8163,,0,186,186,52,1,53,resim,2506,113.8627,2188,0.2392,5,harmonic,1.4,word,m,,,,,,,
,,,,,,,,,,,,001,2023-11-07_16h21.40.494,vowel_harmony,2023.2.3,Win32,60.03121623,1126.8166,1127.8109,,,,,,,,,,,,,,,,,,,,,,,,,,1127.8111,1128.4821,z,1,0.6501,,1128.4821,1128.4822,,0,187,187,350,1,351,resun,,,,,5,notharmonic,1.85,nw,z,,,,,,,
,,,,,,,,,,,,001,2023-11-07_16h21.40.494,vowel_harmony,2023.2.3,Win32,60.03121623,1128.4825,1129.4768,,,,,,,,,,,,,,,,,,,,,,,,,,1129.477,1130.1622,m,1,0.6644,,1130.1622,1130.1623,,0,188,188,82,1,83,aday,1028,46.7082,873,0.0954,4,harmonic,1.45,word,m,,,,,,,
,,,,,,,,,,,,001,2023-11-07_16h21.40.494,vowel_harmony,2023.2.3,Win32,60.03121623,1130.1626,1131.1595,,,,,,,,,,,,,,,,,,,,,,,,,,1131.1596,1132.0969,m,1,0.9164,,1132.0969,1132.0971,,0,189,189,142,1,143,siyasi,2909,132.1734,2445,0.2673,6,notharmonic,1.8,word,m,,,,,,,
,,,,,,,,,,,,001,2023-11-07_16h21.40.494,vowel_harmony,2023.2.3,Win32,60.03121623,1132.0974,1133.0919,,,,,,,,,,,,,,,,,,,,,,,,,,1133.0922,1133.8463,m,1,0.7333,,1133.8463,1133.8463,,0,190,190,115,1,116,saniye,1088,49.4344,984,0.1076,6,notharmonic,1.35,word,m,,,,,,,
,,,,,,,,,,,,001,2023-11-07_16h21.40.494,vowel_harmony,2023.2.3,Win32,60.03121623,1133.8465,1134.8456,,,,,,,,,,,,,,,,,,,,,,,,,,1134.8457,1135.4956,m,1,0.6335,,1135.4956,1135.4957,,0,191,191,34,1,35,hoca,1893,86.0104,1526,0.1668,4,harmonic,1.45,word,m,,,,,,,
,,,,,,,,,,,,001,2023-11-07_16h21.40.494,vowel_harmony,2023.2.3,Win32,60.03121623,1135.4958,1136.4902,,,,,,,,,,,,,,,,,,,,,,,,,,1136.4904,1137.1401,z,1,0.6229,,1137.1404,1137.1412,,0,192,192,200,1,201,duşın,,,,,5,harmonic,1.9,nw,z,,,,,,,
,,,,,,,,,,,,001,2023-11-07_16h21.40.494,vowel_harmony,2023.2.3,Win32,60.03121623,1137.1415,1138.1395,,,,,,,,,,,,,,,,,,,,,,,,,,1138.1397,1138.8227,z,1,0.6516,,1138.823,1138.8238,,0,193,193,282,1,283,taöz,,,,,4,notharmonic,1.9,nw,z,,,,,,,
,,,,,,,,,,,,001,2023-11-07_16h21.40.494,vowel_harmony,2023.2.3,Win32,60.03121623,1138.8241,1139.8224,,,,,,,,,,,,,,,,,,,,,,,,,,1139.8226,1140.572,z,1,0.7174,,1140.5721,1140.5726,,0,194,194,251,1,252,oştay,,,,,5,harmonic,1.95,nw,z,,,,,,,
,,,,,,,,,,,,001,2023-11-07_16h21.40.494,vowel_harmony,2023.2.3,Win32,60.03121623,1140.5735,1141.5717,,,,,,,,,,,,,,,,,,,,,,,,,,1141.572,1142.5589,z,1,0.9668,,1142.559,1142.5591,,0,195,195,241,1,242,porlam,,,,,6,harmonic,2,nw,z,,,,,,,
,,,,,,,,,,,,001,2023-11-07_16h21.40.494,vowel_harmony,2023.2.3,Win32,60.03121623,1142.5593,1143.554,,,,,,,,,,,,,,,,,,,,,,,,,,1143.5543,1144.3414,m,1,0.7665,,1144.3414,1144.3415,,0,196,196,51,1,52,ilginç,2803,127.3572,2690,0.2941,6,harmonic,1.8,word,m,,,,,,,
,,,,,,,,,,,,001,2023-11-07_16h21.40.494,vowel_harmony,2023.2.3,Win32,60.03121623,1144.3417,1145.3363,,,,,,,,,,,,,,,,,,,,,,,,,,1145.3364,1146.0191,m,1,0.6547,,1146.0193,1146.02,,0,197,197,172,1,173,milyar,1496,67.9723,1078,0.1178,6,notharmonic,1.85,word,m,,,,,,,
,,,,,,,,,,,,001,2023-11-07_16h21.40.494,vowel_harmony,2023.2.3,Win32,60.03121623,1146.0206,1147.0188,,,,,,,,,,,,,,,,,,,,,,,,,,1147.0189,1147.7209,m,1,0.6809,,1147.721,1147.7211,,0,198,198,133,1,134,taze,2268,103.0489,2062,0.2254,4,notharmonic,1.65,word,m,,,,,,,
,,,,,,,,,,,,001,2023-11-07_16h21.40.494,vowel_harmony,2023.2.3,Win32,60.03121623,1147.7213,1148.7181,,,,,,,,,,,,,,,,,,,,,,,,,,1148.7182,1149.3181,m,1,0.5682,,1149.3182,1149.319,,0,199,199,146,1,147,mavi,2206,100.2319,1934,0.2114,4,notharmonic,1.45,word,m,,,,,,,
,,,,,,,,,,,,001,2023-11-07_16h21.40.494,vowel_harmony,2023.2.3,Win32,60.03121623,1149.3195,1150.3174,,,,,,,,,,,,,,,,,,,,,,,,,,1150.3176,1150.9335,m,1,0.5936,,1150.9337,1150.9344,,0,200,200,36,1,37,meslek,1082,49.1618,976,0.1067,6,harmonic,1.9,word,m,,,,,,,
,,,,,,,,,,,,001,2023-11-07_16h21.40.494,vowel_harmony,2023.2.3,Win32,60.03121623,1150.9352,1151.938,,,,,,,,,,,,,,,,,,,,,,,,,,1151.9381,1152.5379,m,1,0.5835,,1152.538,1152.538,,0,201,201,95,1,96,takip,4996,226.9984,4651,0.5084,5,notharmonic,1.55,word,m,,,,,,,
,,,,,,,,,,,,001,2023-11-07_16h21.40.494,vowel_harmony,2023.2.3,Win32,60.03121623,1152.5382,1153.5323,,,,,,,,,,,,,,,,,,,,,,,,,,1153.5326,1154.77,z,1,1.2163,,1154.77,1154.77,,0,202,202,268,1,269,haldum,,,,,6,harmonic,2,nw,z,,,,,,,
,,,,,,,,,,,,001,2023-11-07_16h21.40.494,vowel_harmony,2023.2.3,Win32,60.03121623,1154.7702,1155.7648,,,,,,,,,,,,,,,,,,,,,,,,,,1155.7656,1156.5696,m,1,0.7836,,1156.5696,1156.5697,,0,203,203,42,1,43,ürün,2268,103.0489,1954,0.2136,4,harmonic,1.1,word,m,,,,,,,
,,,,,,,,,,,,001,2023-11-07_16h21.40.494,vowel_harmony,2023.2.3,Win32,60.03121623,1156.5698,1157.5684,,,,,,,,,,,,,,,,,,,,,,,,,,1157.5684,1158.2183,m,1,0.6331,,1158.2184,1158.2185,,0,204,204,168,1,169,kilo,3389,153.9827,2646,0.2893,4,notharmonic,1.65,word,m,,,,,,,
,,,,,,,,,,,,001,2023-11-07_16h21.40.494,vowel_harmony,2023.2.3,Win32,60.03121623,1158.2187,1159.2178,,,,,,,,,,,,,,,,,,,,,,,,,,1159.2179,1159.8344,m,1,0.6,,1159.8345,1159.8345,,0,205,205,104,1,105,cevap,5232,237.7213,4822,0.5271,5,notharmonic,1.85,word,m,,,,,,,
,,,,,,,,,,,,001,2023-11-07_16h21.40.494,vowel_harmony,2023.2.3,Win32,60.03121623,1159.8348,1160.8338,,,,,,,,,,,,,,,,,,,,,,,,,,1160.8338,1161.5171,m,1,0.6666,,1161.5171,1161.5172,,0,206,206,45,1,46,bilgi,5981,271.7529,5353,0.5852,5,harmonic,1.5,word,m,,,,,,,
,,,,,,,,,,,,001,2023-11-07_16h21.40.494,vowel_harmony,2023.2.3,Win32,60.03121623,1161.5174,1162.5163,,,,,,,,,,,,,,,,,,,,,,,,,,1162.5164,1163.3452,z,1,0.806,,1163.3454,1163.3462,,0,207,207,263,1,264,duzur,,,,,5,harmonic,1.8,nw,z,,,,,,,
,,,,,,,,,,,,001,2023-11-07_16h21.40.494,vowel_harmony,2023.2.3,Win32,60.03121623,1163.3465,1164.3487,,,,,,,,,,,,,,,,,,,,,,,,,,1164.3487,1165.0822,z,1,0.7168,,1165.0822,1165.0823,,0,208,208,319,1,320,biho,,,,,4,notharmonic,2,nw,z,,,,,,,
,,,,,,,,,,,,001,2023-11-07_16h21.40.494,vowel_harmony,2023.2.3,Win32,60.03121623,1165.0825,1166.0814,,,,,,,,,,,,,,,,,,,,,,,,,,1166.0814,1167.2261,z,1,1.1172,,1167.2263,1167.2269,,0,209,209,293,1,294,esnan,,,,,5,notharmonic,1.85,nw,z,,,,,,,
,,,,,,,,,,,,001,2023-11-07_16h21.40.494,vowel_harmony,2023.2.3,Win32,60.03121623,1167.2277,1168.2259,,,,,,,,,,,,,,,,,,,,,,,,,,1168.226,1168.9972,z,1,0.7504,,1168.9972,1168.9972,,0,210,210,233,1,234,devpi,,,,,5,harmonic,1.8,nw,z,,,,,,,
,,,,,,,,,,,,001,2023-11-07_16h21.40.494,vowel_harmony,2023.2.3,Win32,60.03121623,1168.9975,1169.9961,,,,,,,,,,,,,,,,,,,,,,,,,,1169.9961,1170.8582,z,1,0.8398,,1170.8584,1170.8589,,0,211,211,258,1,259,karıha,,,,,6,harmonic,1.75,nw,z,,,,,,,
,,,,,,,,,,,,001,2023-11-07_16h21.40.494,vowel_harmony,2023.2.3,Win32,60.03121623,1170.8597,1171.8579,,,,,,,,,,,,,,,,,,,,,,,,,,1171.8581,1172.6407,m,1,0.7509,,1172.6409,1172.6415,,0,212,212,19,1,20,ödül,1063,48.2985,926,0.1012,4,harmonic,1.7,word,m,,,,,,,
,,,,,,,,,,,,001,2023-11-07_16h21.40.494,vowel_harmony,2023.2.3,Win32,60.03121623,1172.6422,1173.6403,,,,,,,,,,,,,,,,,,,,,,,,,,1173.6405,1174.428,m,1,0.7666,,1174.428,1174.4281,,0,213,213,130,1,131,hamile,1075,48.8437,877,0.0959,6,notharmonic,1.5,word,m,,,,,,,
,,,,,,,,,,,,001,2023-11-07_16h21.40.494,vowel_harmony,2023.2.3,Win32,60.03121623,1174.4284,1175.4223,,,,,,,,,,,,,,,,,,,,,,,,,,1175.4225,1176.0728,z,1,0.6216,,1176.0732,1176.0737,,0,214,214,207,1,208,örtre,,,,,5,harmonic,1.85,nw,z,,,,,,,
,,,,,,,,,,,,001,2023-11-07_16h21.40.494,vowel_harmony,2023.2.3,Win32,60.03121623,1176.0741,1177.072,,,,,,,,,,,,,,,,,,,,,,,,,,1177.0721,1178.7718,z,1,1.6673,,1178.7719,1178.7726,,0,215,215,197,1,198,ranar,,,,,5,harmonic,1.75,nw,z,,,,,,,
,,,,,,,,,,,,001,2023-11-07_16h21.40.494,vowel_harmony,2023.2.3,Win32,60.03121623,1178.7729,1179.7707,,,,,,,,,,,,,,,,,,,,,,,,,,1179.7708,1180.4037,z,1,0.6047,,1180.4039,1180.4046,,0,216,216,347,1,348,tekram,,,,,6,notharmonic,1.95,nw,z,,,,,,,
,,,,,,,,,,,,001,2023-11-07_16h21.40.494,vowel_harmony,2023.2.3,Win32,60.03121623,1180.4052,1181.4031,,,,,,,,,,,,,,,,,,,,,,,,,,1181.4033,1182.0698,m,1,0.6383,,1182.0703,1182.0709,,0,217,217,63,1,64,sultan,1756,79.7857,1368,0.1496,6,harmonic,1.55,word,m,,,,,,,
,,,,,,,,,,,,001,2023-11-07_16h21.40.494,vowel_harmony,2023.2.3,Win32,60.03121623,1182.0713,1183.0695,,,,,,,,,,,,,,,,,,,,,,,,,,1183.0699,1183.8355,z,1,0.7383,,1183.8357,1183.8363,,0,218,218,311,1,312,dedya,,,,,5,notharmonic,1.9,nw,z,,,,,,,
,,,,,,,,,,,,001,2023-11-07_16h21.40.494,vowel_harmony,2023.2.3,Win32,60.03121623,1183.8371,1184.8394,,,,,,,,,,,,,,,,,,,,,,,,,,1184.8394,1185.6062,m,1,0.7498,,1185.6062,1185.6062,,0,219,219,125,1,126,ikna,1276,57.9764,1173,0.1282,4,notharmonic,1.85,word,m,,,,,,,
,,,,,,,,,,,,001,2023-11-07_16h21.40.494,vowel_harmony,2023.2.3,Win32,60.03121623,1185.6065,1186.6052,,,,,,,,,,,,,,,,,,,,,,,,,,1186.6052,1187.3222,z,1,0.7002,,1187.3222,1187.3223,,0,220,220,352,1,353,yılden,,,,,6,notharmonic,1.8,nw,z,,,,,,,
,,,,,,,,,,,,001,2023-11-07_16h21.40.494,vowel_harmony,2023.2.3,Win32,60.03121623,1187.3225,1188.3211,,,,,,,,,,,,,,,,,,,,,,,,,,1188.3212,1188.9501,m,1,0.6102,,1188.9504,1188.951,,0,221,221,74,1,75,başarı,1398,63.5196,1300,0.1421,6,harmonic,1.2,word,m,,,,,,,
,,,,,,,,,,,,001,2023-11-07_16h21.40.494,vowel_harmony,2023.2.3,Win32,60.03121623,1188.9514,1189.9492,,,,,,,,,,,,,,,,,,,,,,,,,,1189.9494,1190.687,m,1,0.7162,,1190.6871,1190.6871,,0,222,222,118,1,119,meşhur,1092,49.6161,1057,0.1156,6,notharmonic,1.9,word,m,,,,,,,
,,,,,,,,,,,,001,2023-11-07_16h21.40.494,vowel_harmony,2023.2.3,Win32,60.03121623,1190.6874,1191.6819,,,,,,,,,,,,,,,,,,,,,,,,,,1191.682,1192.6147,z,1,0.9037,,1192.6148,1192.6155,,0,223,223,216,1,217,çeyret,,,,,6,harmonic,1.9,nw,z,,,,,,,
,,,,,,,,,,,,001,2023-11-07_16h21.40.494,vowel_harmony,2023.2.3,Win32,60.03121623,1192.6161,1193.6144,,,,,,,,,,,,,,,,,,,,,,,,,,1193.6145,1194.2972,z,1,0.6612,,1194.2974,1194.2982,,0,224,224,188,1,189,tonık,,,,,5,harmonic,1.85,nw,z,,,,,,,
,,,,,,,,,,,,001,2023-11-07_16h21.40.494,vowel_harmony,2023.2.3,Win32,60.03121623,1194.2987,1195.2964,,,,,,,,,,,,,,,,,,,,,,,,,,1195.2966,1196.0135,m,1,0.6897,,1196.0139,1196.0145,,0,225,225,159,1,160,vakit,3476,157.9357,3298,0.3605,5,notharmonic,1.65,word,m,,,,,,,
,,,,,,,,,,,,001,2023-11-07_16h21.40.494,vowel_harmony,2023.2.3,Win32,60.03121623,1196.0151,1197.0171,,,,,,,,,,,,,,,,,,,,,,,,,,1197.0172,1197.7674,z,1,0.7336,,1197.7675,1197.7675,,0,226,226,284,1,285,deval,,,,,5,notharmonic,1.75,nw,z,,,,,,,
,,,,,,,,,,,,001,2023-11-07_16h21.40.494,vowel_harmony,2023.2.3,Win32,60.03121623,1197.7678,1198.762,,,,,,,,,,,,,,,,,,,,,,,,,,1198.7622,1199.5285,z,1,0.7382,,1199.5287,1199.5294,,0,227,227,294,1,295,mesap,,,,,5,notharmonic,1.8,nw,z,,,,,,,
,,,,,,,,,,,,001,2023-11-07_16h21.40.494,vowel_harmony,2023.2.3,Win32,60.03121623,1199.53,1200.5281,,,,,,,,,,,,,,,,,,,,,,,,,,1200.5283,1201.2465,m,1,0.6975,,1201.2466,1201.2466,,0,228,228,178,1,179,dikkat,6230,283.0665,5888,0.6437,6,notharmonic,2.05,word,m,,,,,,,
,,,,,,,,,,,,001,2023-11-07_16h21.40.494,vowel_harmony,2023.2.3,Win32,60.03121623,1201.2468,1202.2439,,,,,,,,,,,,,,,,,,,,,,,,,,1202.2441,1203.1108,m,1,0.8433,,1203.111,1203.1113,,0,229,229,151,1,152,ateş,2108,95.7792,1803,0.1971,4,notharmonic,1.65,word,m,,,,,,,
,,,,,,,,,,,,001,2023-11-07_16h21.40.494,vowel_harmony,2023.2.3,Win32,60.03121623,1203.1117,1204.1142,,,,,,,,,,,,,,,,,,,,,,,,,,1204.1142,1205.1929,z,1,1.059,,1205.1931,1205.1938,,0,230,230,295,1,296,haylin,,,,,6,notharmonic,1.8,nw,z,,,,,,,
,,,,,,,,,,,,001,2023-11-07_16h21.40.494,vowel_harmony,2023.2.3,Win32,60.03121623,1205.1942,1206.192,,,,,,,,,,,,,,,,,,,,,,,,,,1206.1921,1207.0464,m,1,0.8336,,1207.0464,1207.0465,,0,231,231,20,1,21,nefes,2871,130.4469,2553,0.2791,5,harmonic,1.8,word,m,,,,,,,
,,,,,,,,,,,,001,2023-11-07_16h21.40.494,vowel_harmony,2023.2.3,Win32,60.03121623,1207.0467,1208.0409,,,,,,,,,,,,,,,,,,,,,,,,,,1208.0411,1208.9413,z,1,0.8683,,1208.942,1208.9424,,0,232,232,332,1,333,tahane,,,,,6,notharmonic,1.85,nw,z,,,,,,,
,,,,,,,,,,,,001,2023-11-07_16h21.40.494,vowel_harmony,2023.2.3,Win32,60.03121623,1208.9427,1209.9445,,,,,,,,,,,,,,,,,,,,,,,,,,1209.9446,1210.7063,z,1,0.7379,,1210.7066,1210.7073,,0,233,233,206,1,207,bevek,,,,,5,harmonic,1.75,nw,z,,,,,,,
,,,,,,,,,,,,001,2023-11-07_16h21.40.494,vowel_harmony,2023.2.3,Win32,60.03121623,1210.7079,1211.706,,,,,,,,,,,,,,,,,,,,,,,,,,1211.7063,1212.7224,z,1,0.9924,,1212.7226,1212.7236,,0,234,234,324,1,325,pakeh,,,,,5,notharmonic,1.9,nw,z,,,,,,,
,,,,,,,,,,,,001,2023-11-07_16h21.40.494,vowel_harmony,2023.2.3,Win32,60.03121623,1212.724,1213.7219,,,,,,,,,,,,,,,,,,,,,,,,,,1213.722,1214.555,m,1,0.8016,,1214.5554,1214.5559,,0,235,235,99,1,100,ilave,3173,144.1685,2619,0.2863,5,notharmonic,1.85,word,m,,,,,,,
,,,,,,,,,,,,001,2023-11-07_16h21.40.494,vowel_harmony,2023.2.3,Win32,60.03121623,1214.5566,1215.5545,,,,,,,,,,,,,,,,,,,,,,,,,,1215.5547,1216.3253,z,1,0.75,,1216.3253,1216.3253,,0,236,236,232,1,233,kanur,,,,,5,harmonic,1.7,nw,z,,,,,,,
,,,,,,,,,,,,001,2023-11-07_16h21.40.494,vowel_harmony,2023.2.3,Win32,60.03121623,1216.3255,1217.3249,,,,,,,,,,,,,,,,,,,,,,,,,,1217.3249,1218.1582,z,1,0.8169,,1218.1583,1218.1583,,0,237,237,316,1,317,misaf,,,,,5,notharmonic,1.85,nw,z,,,,,,,
,,,,,,,,,,,,001,2023-11-07_16h21.40.494,vowel_harmony,2023.2.3,Win32,60.03121623,1218.1586,1219.1529,,,,,,,,,,,,,,,,,,,,,,,,,,1219.1531,1219.9025,z,1,0.7231,,1219.9027,1219.9034,,0,238,238,337,1,338,bakem,,,,,5,notharmonic,1.7,nw,z,,,,,,,
,,,,,,,,,,,,001,2023-11-07_16h21.40.494,vowel_harmony,2023.2.3,Win32,60.03121623,1219.9041,1220.9022,,,,,,,,,,,,,,,,,,,,,,,,,,1220.9023,1221.5846,m,1,0.6506,,1221.5848,1221.5853,,0,239,239,107,1,108,merak,5806,263.8016,5524,0.6039,5,notharmonic,1.65,word,m,,,,,,,
,,,,,,,,,,,,001,2023-11-07_16h21.40.494,vowel_harmony,2023.2.3,Win32,60.03121623,1221.5863,1222.5888,,,,,,,,,,,,,,,,,,,,,,,,,,1222.5888,1223.389,m,1,0.7838,,1223.389,1275.3821,space,0,240,240,0,1,1,sanat,3121,141.8059,2485,0.2717,5,harmonic,1.4,word,m,51.9766,,,,,,
,,,,,,,,,,,,001,2023-11-07_16h21.40.494,vowel_harmony,2023.2.3,Win32,60.03121623,1275.391,1276.3978,,,,,,,,,,,,,,,,,,,,,,,,,,1276.3979,1277.4643,m,1,1.05,,1277.4643,1277.4644,,0,241,241,41,1,42,zengin,2193,99.6412,2015,0.2203,6,harmonic,1.65,word,m,,,,,,,
,,,,,,,,,,,,001,2023-11-07_16h21.40.494,vowel_harmony,2023.2.3,Win32,60.03121623,1277.4646,1278.4598,,,,,,,,,,,,,,,,,,,,,,,,,,1278.46,1279.1753,z,1,0.6919,,1279.1759,1279.1766,,0,242,242,348,1,349,aife,,,,,4,notharmonic,1.75,nw,z,,,,,,,
,,,,,,,,,,,,001,2023-11-07_16h21.40.494,vowel_harmony,2023.2.3,Win32,60.03121623,1279.177,1280.1753,,,,,,,,,,,,,,,,,,,,,,,,,,1280.1754,1280.8631,m,1,0.6668,,1280.8631,1280.8632,,0,243,243,179,1,180,dakika,5891,267.6637,5207,0.5692,6,notharmonic,1.75,word,m,,,,,,,
,,,,,,,,,,,,001,2023-11-07_16h21.40.494,vowel_harmony,2023.2.3,Win32,60.03121623,1280.8635,1281.8576,,,,,,,,,,,,,,,,,,,,,,,,,,1281.8578,1282.6413,m,1,0.76,,1282.6416,1282.6419,,0,244,244,145,1,146,iddia,2430,110.4096,2295,0.2509,5,notharmonic,1.85,word,m,,,,,,,
,,,,,,,,,,,,001,2023-11-07_16h21.40.494,vowel_harmony,2023.2.3,Win32,60.03121623,1282.6422,1283.6405,,,,,,,,,,,,,,,,,,,,,,,,,,1283.6407,1284.278,m,1,0.6169,,1284.278,1284.278,,0,245,245,80,1,81,merkez,1445,65.6551,1255,0.1372,6,harmonic,1.8,word,m,,,,,,,
,,,,,,,,,,,,001,2023-11-07_16h21.40.494,vowel_harmony,2023.2.3,Win32,60.03121623,1284.2783,1285.2772,,,,,,,,,,,,,,,,,,,,,,,,,,1285.2772,1285.9772,z,1,0.6836,,1285.9772,1285.9774,,0,246,246,202,1,203,güvin,,,,,5,harmonic,1.95,nw,z,,,,,,,
,,,,,,,,,,,,001,2023-11-07_16h21.40.494,vowel_harmony,2023.2.3,Win32,60.03121623,1285.9776,1286.9765,,,,,,,,,,,,,,,,,,,,,,,,,,1286.9765,1287.5934,m,1,0.6006,,1287.5934,1287.5934,,0,247,247,25,1,26,rapor,703,31.9415,617,0.0675,5,harmonic,1.8,word,m,,,,,,,
,,,,,,,,,,,,001,2023-11-07_16h21.40.494,vowel_harmony,2023.2.3,Win32,60.03121623,1287.5937,1288.5924,,,,,,,,,,,,,,,,,,,,,,,,,,1288.5924,1289.1925,m,1,0.5836,,1289.1925,1289.1925,,0,248,248,54,1,55,yedek,825,37.4847,732,0.08,5,harmonic,1.65,word,m,,,,,,,
,,,,,,,,,,,,001,2023-11-07_16h21.40.494,vowel_harmony,2023.2.3,Win32,60.03121623,1289.1927,1290.1871,,,,,,,,,,,,,,,,,,,,,,,,,,1290.1873,1291.0082,m,1,0.7998,,1291.0082,1291.0083,,0,249,249,129,1,130,tahmin,2353,106.911,2273,0.2485,6,notharmonic,1.6,word,m,,,,,,,
,,,,,,,,,,,,001,2023-11-07_16h21.40.494,vowel_harmony,2023.2.3,Win32,60.03121623,1291.0085,1292.0034,,,,,,,,,,,,,,,,,,,,,,,,,,1292.0036,1292.7382,m,1,0.7143,,1292.7383,1292.7383,,0,250,250,21,1,22,duygu,1877,85.2834,1760,0.1924,5,harmonic,1.8,word,m,,,,,,,
,,,,,,,,,,,,001,2023-11-07_16h21.40.494,vowel_harmony,2023.2.3,Win32,60.03121623,1292.7387,1293.7359,,,,,,,,,,,,,,,,,,,,,,,,,,1293.7362,1294.4708,m,1,0.7144,,1294.4709,1294.471,,0,251,251,30,1,31,çevre,1662,75.5147,1409,0.154,5,harmonic,1.55,word,m,,,,,,,
,,,,,,,,,,,,001,2023-11-07_16h21.40.494,vowel_harmony,2023.2.3,Win32,60.03121623,1294.4713,1295.468,,,,,,,,,,,,,,,,,,,,,,,,,,1295.468,1296.0894,m,1,0.6003,,1296.0894,1296.0895,,0,252,252,147,1,148,işaret,1888,85.7832,1787,0.1954,6,notharmonic,1,word,m,,,,,,,
,,,,,,,,,,,,001,2023-11-07_16h21.40.494,vowel_harmony,2023.2.3,Win32,60.03121623,1296.0897,1297.0839,,,,,,,,,,,,,,,,,,,,,,,,,,1297.084,1297.7002,z,1,0.5844,,1297.7004,1297.7011,,0,253,253,227,1,228,zekö,,,,,4,harmonic,1.9,nw,z,,,,,,,
,,,,,,,,,,,,001,2023-11-07_16h21.40.494,vowel_harmony,2023.2.3,Win32,60.03121623,1297.702,1298.7002,,,,,,,,,,,,,,,,,,,,,,,,,,1298.7004,1299.4328,m,1,0.704,,1299.4331,1299.4341,,0,254,254,23,1,24,kurum,986,44.7999,882,0.0964,5,harmonic,1.75,word,m,,,,,,,
,,,,,,,,,,,,001,2023-11-07_16h21.40.494,vowel_harmony,2023.2.3,Win32,60.03121623,1299.4345,1300.4329,,,,,,,,,,,,,,,,,,,,,,,,,,1300.433,1301.0872,z,1,0.6336,,1301.0872,1301.0873,,0,255,255,262,1,263,sauk,,,,,4,harmonic,1.85,nw,z,,,,,,,
,,,,,,,,,,,,001,2023-11-07_16h21.40.494,vowel_harmony,2023.2.3,Win32,60.03121623,1301.0876,1302.0862,,,,,,,,,,,,,,,,,,,,,,,,,,1302.0862,1302.7362,m,1,0.6333,,1302.7362,1302.7363,,0,256,256,56,1,57,sağlam,1818,82.6027,1720,0.188,6,harmonic,1.6,word,m,,,,,,,
,,,,,,,,,,,,001,2023-11-07_16h21.40.494,vowel_harmony,2023.2.3,Win32,60.03121623,1302.7366,1303.7311,,,,,,,,,,,,,,,,,,,,,,,,,,1303.7312,1304.4189,m,1,0.6668,,1304.4189,1304.419,,0,257,257,114,1,115,nisan,2321,105.457,2044,0.2235,5,notharmonic,1.6,word,m,,,,,,,
,,,,,,,,,,,,001,2023-11-07_16h21.40.494,vowel_harmony,2023.2.3,Win32,60.03121623,1304.4193,1305.418,,,,,,,,,,,,,,,,,,,,,,,,,,1305.418,1306.0683,m,1,0.6336,,1306.0683,1306.0684,,0,258,258,111,1,112,kahve,2634,119.6785,2283,0.2496,5,notharmonic,1.85,word,m,,,,,,,
,,,,,,,,,,,,001,2023-11-07_16h21.40.494,vowel_harmony,2023.2.3,Win32,60.03121623,1306.0686,1307.0673,,,,,,,,,,,,,,,,,,,,,,,,,,1307.0673,1307.7982,m,1,0.7142,,1307.7982,1307.7983,,0,259,259,163,1,164,limon,1658,75.3329,1481,0.1619,5,notharmonic,1.75,word,m,,,,,,,
,,,,,,,,,,,,001,2023-11-07_16h21.40.494,vowel_harmony,2023.2.3,Win32,60.03121623,1307.7986,1308.8002,,,,,,,,,,,,,,,,,,,,,,,,,,1308.8002,1309.4495,m,1,0.6331,,1309.4496,1309.4497,,0,260,260,135,1,136,hafif,3355,152.4379,3101,0.339,5,notharmonic,1.75,word,m,,,,,,,
,,,,,,,,,,,,001,2023-11-07_16h21.40.494,vowel_harmony,2023.2.3,Win32,60.03121623,1309.4499,1310.4459,,,,,,,,,,,,,,,,,,,,,,,,,,1310.446,1311.0825,m,1,0.6166,,1311.0825,1311.0826,,0,261,261,78,1,79,ulusal,1551,70.4713,1355,0.1481,6,harmonic,1.75,word,m,,,,,,,
,,,,,,,,,,,,001,2023-11-07_16h21.40.494,vowel_harmony,2023.2.3,Win32,60.03121623,1311.0828,1312.0777,,,,,,,,,,,,,,,,,,,,,,,,,,1312.0779,1312.7986,z,1,0.7003,,1312.7986,1312.7987,,0,262,262,265,1,266,parula,,,,,6,harmonic,1.75,nw,z,,,,,,,
,,,,,,,,,,,,001,2023-11-07_16h21.40.494,vowel_harmony,2023.2.3,Win32,60.03121623,1312.7989,1313.7929,,,,,,,,,,,,,,,,,,,,,,,,,,1313.7931,1314.5451,m,1,0.7312,,1314.5451,1314.5452,,0,263,263,158,1,159,klasik,1871,85.0108,1734,0.1896,6,notharmonic,2,word,m,,,,,,,
,,,,,,,,,,,,001,2023-11-07_16h21.40.494,vowel_harmony,2023.2.3,Win32,60.03121623,1314.5456,1315.544,,,,,,,,,,,,,,,,,,,,,,,,,,1315.544,1316.1914,z,1,0.6232,,1316.1917,1316.1923,,0,264,264,329,1,330,taif,,,,,4,notharmonic,1.8,nw,z,,,,,,,
,,,,,,,,,,,,001,2023-11-07_16h21.40.494,vowel_harmony,2023.2.3,Win32,60.03121623,1316.1933,1317.1915,,,,,,,,,,,,,,,,,,,,,,,,,,1317.1917,1317.9412,z,1,0.7231,,1317.9415,1317.9421,,0,265,265,247,1,248,hafgın,,,,,6,harmonic,2,nw,z,,,,,,,
,,,,,,,,,,,,001,2023-11-07_16h21.40.494,vowel_harmony,2023.2.3,Win32,60.03121623,1317.9427,1318.9413,,,,,,,,,,,,,,,,,,,,,,,,,,1318.9414,1319.8452,z,1,0.8833,,1319.8452,1319.8452,,0,266,266,231,1,232,norgun,,,,,6,harmonic,1.75,nw,z,,,,,,,
,,,,,,,,,,,,001,2023-11-07_16h21.40.494,vowel_harmony,2023.2.3,Win32,60.03121623,1319.8455,1320.8443,,,,,,,,,,,,,,,,,,,,,,,,,,1320.8443,1321.4418,m,1,0.5808,,1321.4418,1321.4419,,0,267,267,139,1,140,lira,1253,56.9314,947,0.1035,4,notharmonic,1.4,word,m,,,,,,,
,,,,,,,,,,,,001,2023-11-07_16h21.40.494,vowel_harmony,2023.2.3,Win32,60.03121623,1321.4422,1322.4395,,,,,,,,,,,,,,,,,,,,,,,,,,1322.4396,1323.0726,z,1,0.6092,,1323.0728,1323.0735,,0,268,268,290,1,291,aipa,,,,,4,notharmonic,1.95,nw,z,,,,,,,
,,,,,,,,,,,,001,2023-11-07_16h21.40.494,vowel_harmony,2023.2.3,Win32,60.03121623,1323.0738,1324.0713,,,,,,,,,,,,,,,,,,,,,,,,,,1324.0714,1324.6764,z,1,0.5834,,1324.6764,1324.6765,,0,269,269,264,1,265,vepü,,,,,4,harmonic,2,nw,z,,,,,,,
,,,,,,,,,,,,001,2023-11-07_16h21.40.494,vowel_harmony,2023.2.3,Win32,60.03121623,1324.6768,1325.672,,,,,,,,,,,,,,,,,,,,,,,,,,1325.6723,1326.2874,z,1,0.5919,,1326.2875,1326.2882,,0,270,270,191,1,192,doab,,,,,4,harmonic,2,nw,z,,,,,,,
,,,,,,,,,,,,001,2023-11-07_16h21.40.494,vowel_harmony,2023.2.3,Win32,60.03121623,1326.2889,1327.2875,,,,,,,,,,,,,,,,,,,,,,,,,,1327.2877,1327.9414,m,0,0.6332,,1327.9415,1327.9415,,0,271,271,343,1,344,tarne,,,,,5,notharmonic,1.85,nw,z,,,,,,,
,,,,,,,,,,,,001,2023-11-07_16h21.40.494,vowel_harmony,2023.2.3,Win32,60.03121623,1327.9418,1328.9405,,,,,,,,,,,,,,,,,,,,,,,,,,1328.9405,1329.6693,m,1,0.7023,,1329.6695,1329.6701,,0,272,272,32,1,33,temel,4231,192.2399,3851,0.421,5,harmonic,1.55,word,m,,,,,,,
,,,,,,,,,,,,001,2023-11-07_16h21.40.494,vowel_harmony,2023.2.3,Win32,60.03121623,1329.671,1330.673,,,,,,,,,,,,,,,,,,,,,,,,,,1330.6731,1331.3846,z,1,0.6882,,1331.3849,1331.3854,,0,273,273,313,1,314,ikas,,,,,4,notharmonic,1.85,nw,z,,,,,,,
,,,,,,,,,,,,001,2023-11-07_16h21.40.494,vowel_harmony,2023.2.3,Win32,60.03121623,1331.3864,1332.3891,,,,,,,,,,,,,,,,,,,,,,,,,,1332.3892,1333.1222,m,1,0.7163,,1333.1223,1333.1223,,0,274,274,55,1,56,akıl,2208,100.3228,2004,0.2191,4,harmonic,1,word,m,,,,,,,
,,,,,,,,,,,,001,2023-11-07_16h21.40.494,vowel_harmony,2023.2.3,Win32,60.03121623,1333.1226,1334.1172,,,,,,,,,,,,,,,,,,,,,,,,,,1334.1174,1334.7383,z,1,0.6001,,1334.7384,1334.7384,,0,275,275,180,1,181,ayaro,,,,,5,harmonic,1.8,nw,z,,,,,,,
,,,,,,,,,,,,001,2023-11-07_16h21.40.494,vowel_harmony,2023.2.3,Win32,60.03121623,1334.7386,1335.7377,,,,,,,,,,,,,,,,,,,,,,,,,,1335.7377,1336.4158,z,1,0.6543,,1336.416,1336.4167,,0,276,276,255,1,256,yokın,,,,,5,harmonic,1.85,nw,z,,,,,,,
,,,,,,,,,,,,001,2023-11-07_16h21.40.494,vowel_harmony,2023.2.3,Win32,60.03121623,1336.4175,1337.4164,,,,,,,,,,,,,,,,,,,,,,,,,,1337.4167,1338.1702,z,1,0.7333,,1338.1702,1338.1704,,0,277,277,353,1,354,ikno,,,,,4,notharmonic,1.95,nw,z,,,,,,,
,,,,,,,,,,,,001,2023-11-07_16h21.40.494,vowel_harmony,2023.2.3,Win32,60.03121623,1338.1706,1339.165,,,,,,,,,,,,,,,,,,,,,,,,,,1339.1652,1339.8834,m,1,0.6977,,1339.8835,1339.8835,,0,278,278,100,1,101,düşman,1065,48.3894,962,0.1052,6,notharmonic,1.85,word,m,,,,,,,
,,,,,,,,,,,,001,2023-11-07_16h21.40.494,vowel_harmony,2023.2.3,Win32,60.03121623,1339.8837,1340.8809,,,,,,,,,,,,,,,,,,,,,,,,,,1340.881,1341.5472,m,1,0.6379,,1341.5474,1341.5481,,0,279,279,29,1,30,huzur,1911,86.8283,1799,0.1967,5,harmonic,1.8,word,m,,,,,,,
,,,,,,,,,,,,001,2023-11-07_16h21.40.494,vowel_harmony,2023.2.3,Win32,60.03121623,1341.5488,1342.5466,,,,,,,,,,,,,,,,,,,,,,,,,,1342.5468,1343.4634,z,1,0.8841,,1343.4637,1343.4644,,0,280,280,306,1,307,otet,,,,,4,notharmonic,1.95,nw,z,,,,,,,
,,,,,,,,,,,,001,2023-11-07_16h21.40.494,vowel_harmony,2023.2.3,Win32,60.03121623,1343.4648,1344.4668,,,,,,,,,,,,,,,,,,,,,,,,,,1344.4668,1345.1672,z,1,0.6834,,1345.1672,1345.1673,,0,281,281,198,1,199,yarbız,,,,,6,harmonic,1.95,nw,z,,,,,,,
,,,,,,,,,,,,001,2023-11-07_16h21.40.494,vowel_harmony,2023.2.3,Win32,60.03121623,1345.1675,1346.1618,,,,,,,,,,,,,,,,,,,,,,,,,,1346.1619,1346.7828,z,1,0.6,,1346.7829,1346.7829,,0,282,282,199,1,200,movu,,,,,4,harmonic,1.9,nw,z,,,,,,,
,,,,,,,,,,,,001,2023-11-07_16h21.40.494,vowel_harmony,2023.2.3,Win32,60.03121623,1346.7831,1347.7822,,,,,,,,,,,,,,,,,,,,,,,,,,1347.7822,1348.6988,z,1,0.9,,1348.6989,1348.6989,,0,283,283,212,1,213,ortat,,,,,5,harmonic,1.7,nw,z,,,,,,,
,,,,,,,,,,,,001,2023-11-07_16h21.40.494,vowel_harmony,2023.2.3,Win32,60.03121623,1348.6992,1349.6936,,,,,,,,,,,,,,,,,,,,,,,,,,1349.6938,1350.3481,z,1,0.6337,,1350.3481,1350.3482,,0,284,284,266,1,267,düştön,,,,,6,harmonic,1.9,nw,z,,,,,,,
,,,,,,,,,,,,001,2023-11-07_16h21.40.494,vowel_harmony,2023.2.3,Win32,60.03121623,1350.3484,1351.3434,,,,,,,,,,,,,,,,,,,,,,,,,,1351.3437,1352.2304,m,1,0.8666,,1352.2304,1352.2305,,0,285,285,160,1,161,hakem,603,27.3979,473,0.0517,5,notharmonic,1.3,word,m,,,,,,,
,,,,,,,,,,,,001,2023-11-07_16h21.40.494,vowel_harmony,2023.2.3,Win32,60.03121623,1352.2308,1353.2298,,,,,,,,,,,,,,,,,,,,,,,,,,1353.2298,1353.913,z,1,0.6667,,1353.9131,1353.9131,,0,286,286,211,1,212,yarum,,,,,5,harmonic,1.75,nw,z,,,,,,,
,,,,,,,,,,,,001,2023-11-07_16h21.40.494,vowel_harmony,2023.2.3,Win32,60.03121623,1353.9133,1354.9079,,,,,,,,,,,,,,,,,,,,,,,,,,1354.9081,1355.5956,z,1,0.6669,,1355.5956,1355.5957,,0,287,287,249,1,250,hurıt,,,,,5,harmonic,1.95,nw,z,,,,,,,
,,,,,,,,,,,,001,2023-11-07_16h21.40.494,vowel_harmony,2023.2.3,Win32,60.03121623,1355.596,1356.5904,,,,,,,,,,,,,,,,,,,,,,,,,,1356.5907,1357.3446,m,1,0.7333,,1357.3447,1357.3447,,0,288,288,44,1,45,kayıt,1234,56.0681,1058,0.1157,5,harmonic,1.35,word,m,,,,,,,
,,,,,,,,,,,,001,2023-11-07_16h21.40.494,vowel_harmony,2023.2.3,Win32,60.03121623,1357.3449,1358.3395,,,,,,,,,,,,,,,,,,,,,,,,,,1358.3396,1358.9606,z,1,0.6003,,1358.9606,1358.9606,,0,289,289,242,1,243,kahon,,,,,5,harmonic,1.85,nw,z,,,,,,,
,,,,,,,,,,,,001,2023-11-07_16h21.40.494,vowel_harmony,2023.2.3,Win32,60.03121623,1358.9609,1359.9575,,,,,,,,,,,,,,,,,,,,,,,,,,1359.9575,1360.5269,z,1,0.5503,,1360.5269,1360.5269,,0,290,290,238,1,239,kocı,,,,,4,harmonic,1.95,nw,z,,,,,,,
,,,,,,,,,,,,001,2023-11-07_16h21.40.494,vowel_harmony,2023.2.3,Win32,60.03121623,1360.5271,1361.5212,,,,,,,,,,,,,,,,,,,,,,,,,,1361.5213,1362.2376,m,1,0.6845,,1362.2379,1362.2385,,0,291,291,14,1,15,yaşam,4348,197.5559,3918,0.4283,5,harmonic,1.4,word,m,,,,,,,
,,,,,,,,,,,,001,2023-11-07_16h21.40.494,vowel_harmony,2023.2.3,Win32,60.03121623,1362.2393,1363.2418,,,,,,,,,,,,,,,,,,,,,,,,,,1363.2418,1363.925,z,1,0.6667,,1363.925,1363.9251,,0,292,292,222,1,223,gelü,,,,,4,harmonic,1.75,nw,z,,,,,,,
,,,,,,,,,,,,001,2023-11-07_16h21.40.494,vowel_harmony,2023.2.3,Win32,60.03121623,1363.9254,1364.9244,,,,,,,,,,,,,,,,,,,,,,,,,,1364.9244,1365.6412,m,1,0.7006,,1365.6412,1365.6413,,0,293,293,141,1,142,madde,3793,172.3389,3389,0.3705,5,notharmonic,1.7,word,m,,,,,,,
,,,,,,,,,,,,001,2023-11-07_16h21.40.494,vowel_harmony,2023.2.3,Win32,60.03121623,1365.6416,1366.6405,,,,,,,,,,,,,,,,,,,,,,,,,,1366.6405,1367.2523,z,1,0.5918,,1367.2525,1367.2531,,0,294,294,235,1,236,oşup,,,,,4,harmonic,1.75,nw,z,,,,,,,
,,,,,,,,,,,,001,2023-11-07_16h21.40.494,vowel_harmony,2023.2.3,Win32,60.03121623,1367.2538,1368.2523,,,,,,,,,,,,,,,,,,,,,,,,,,1368.2524,1368.9514,m,1,0.6708,,1368.9516,1368.9523,,0,295,295,62,1,63,cümle,1911,86.8283,1765,0.193,5,harmonic,1.85,word,m,,,,,,,
,,,,,,,,,,,,001,2023-11-07_16h21.40.494,vowel_harmony,2023.2.3,Win32,60.03121623,1368.9529,1369.9509,,,,,,,,,,,,,,,,,,,,,,,,,,1369.9511,1370.6554,m,1,0.6838,,1370.6554,1370.6555,,0,296,296,153,1,154,inşaat,432,19.6284,376,0.0411,6,notharmonic,1.6,word,m,,,,,,,
,,,,,,,,,,,,001,2023-11-07_16h21.40.494,vowel_harmony,2023.2.3,Win32,60.03121623,1370.6558,1371.6549,,,,,,,,,,,,,,,,,,,,,,,,,,1371.655,1372.4212,m,1,0.7501,,1372.4212,1372.4213,,0,297,297,170,1,171,basit,3385,153.801,3177,0.3473,5,notharmonic,1.65,word,m,,,,,,,
,,,,,,,,,,,,001,2023-11-07_16h21.40.494,vowel_harmony,2023.2.3,Win32,60.03121623,1372.4215,1373.4202,,,,,,,,,,,,,,,,,,,,,,,,,,1373.4202,1374.1336,z,1,0.6953,,1374.1337,1374.1338,,0,298,298,260,1,261,yarlam,,,,,6,harmonic,1.75,nw,z,,,,,,,
,,,,,,,,,,,,001,2023-11-07_16h21.40.494,vowel_harmony,2023.2.3,Win32,60.03121623,1374.1341,1375.1363,,,,,,,,,,,,,,,,,,,,,,,,,,1375.1363,1376.0197,z,1,0.8667,,1376.0197,1376.0199,,0,299,299,318,1,319,yorgün,,,,,6,notharmonic,1.9,nw,z,,,,,,,
,,,,,,,,,,,,001,2023-11-07_16h21.40.494,vowel_harmony,2023.2.3,Win32,60.03121623,1376.0201,1377.0147,,,,,,,,,,,,,,,,,,,,,,,,,,1377.0149,1377.664,z,1,0.6223,,1377.6642,1377.6649,,0,300,300,261,1,262,kardok,,,,,6,harmonic,1.95,nw,z,,,,,,,
,,,,,,,,,,,,001,2023-11-07_16h21.40.494,vowel_harmony,2023.2.3,Win32,60.03121623,1377.6654,1378.6681,,,,,,,,,,,,,,,,,,,,,,,,,,1378.6682,1379.2802,z,1,0.5853,,1379.2805,1379.2812,,0,301,301,269,1,270,vekü,,,,,4,harmonic,2,nw,z,,,,,,,
,,,,,,,,,,,,001,2023-11-07_16h21.40.494,vowel_harmony,2023.2.3,Win32,60.03121623,1379.2817,1380.2798,,,,,,,,,,,,,,,,,,,,,,,,,,1380.2799,1380.9467,m,1,0.6379,,1380.9469,1380.9474,,0,302,302,1,1,2,erkek,6188,281.1582,5195,0.5679,5,harmonic,1.65,word,m,,,,,,,
,,,,,,,,,,,,001,2023-11-07_16h21.40.494,vowel_harmony,2023.2.3,Win32,60.03121623,1380.9477,1381.9499,,,,,,,,,,,,,,,,,,,,,,,,,,1381.9499,1382.6002,z,1,0.6335,,1382.6002,1382.6003,,0,303,303,296,1,297,işban,,,,,5,notharmonic,1.95,nw,z,,,,,,,
,,,,,,,,,,,,001,2023-11-07_16h21.40.494,vowel_harmony,2023.2.3,Win32,60.03121623,1382.6005,1383.5956,,,,,,,,,,,,,,,,,,,,,,,,,,1383.5957,1384.3324,m,1,0.7166,,1384.3324,1384.3325,,0,304,304,69,1,70,forma,719,32.6685,597,0.0653,5,harmonic,1.8,word,m,,,,,,,
,,,,,,,,,,,,001,2023-11-07_16h21.40.494,vowel_harmony,2023.2.3,Win32,60.03121623,1384.3328,1385.3317,,,,,,,,,,,,,,,,,,,,,,,,,,1385.3317,1386.1106,z,1,0.7595,,1386.111,1386.1115,,0,305,305,252,1,253,anlgı,,,,,5,harmonic,1.9,nw,z,,,,,,,
,,,,,,,,,,,,001,2023-11-07_16h21.40.494,vowel_harmony,2023.2.3,Win32,60.03121623,1386.112,1387.1102,,,,,,,,,,,,,,,,,,,,,,,,,,1387.1104,1387.7474,z,1,0.6166,,1387.7474,1387.7475,,0,306,306,270,1,271,miyaj,,,,,5,notharmonic,1.9,nw,z,,,,,,,
,,,,,,,,,,,,001,2023-11-07_16h21.40.494,vowel_harmony,2023.2.3,Win32,60.03121623,1387.7477,1388.7427,,,,,,,,,,,,,,,,,,,,,,,,,,1388.7429,1389.4934,z,1,0.7286,,1389.4934,1389.4935,,0,307,307,340,1,341,minya,,,,,5,notharmonic,1.95,nw,z,,,,,,,
,,,,,,,,,,,,001,2023-11-07_16h21.40.494,vowel_harmony,2023.2.3,Win32,60.03121623,1389.4939,1390.4917,,,,,,,,,,,,,,,,,,,,,,,,,,1390.4918,1391.2412,z,1,0.7211,,1391.2414,1391.242,,0,308,308,275,1,276,tahçe,,,,,5,notharmonic,1.95,nw,z,,,,,,,
,,,,,,,,,,,,001,2023-11-07_16h21.40.494,vowel_harmony,2023.2.3,Win32,60.03121623,1391.2426,1392.2453,,,,,,,,,,,,,,,,,,,,,,,,,,1392.2453,1393.0906,m,1,0.8174,,1393.0908,1393.0916,,0,309,309,137,1,138,parti,2613,118.7244,2059,0.2251,5,notharmonic,1.8,word,m,,,,,,,
,,,,,,,,,,,,001,2023-11-07_16h21.40.494,vowel_harmony,2023.2.3,Win32,60.03121623,1393.0921,1394.0899,,,,,,,,,,,,,,,,,,,,,,,,,,1394.09,1395.1063,z,1,0.9875,,1395.1065,1395.1072,,0,310,310,344,1,345,barika,,,,,6,notharmonic,1.75,nw,z,,,,,,,
,,,,,,,,,,,,001,2023-11-07_16h21.40.494,vowel_harmony,2023.2.3,Win32,60.03121623,1395.1077,1396.1102,,,,,,,,,,,,,,,,,,,,,,,,,,1396.1102,1396.7722,z,1,0.6373,,1396.7727,1396.7734,,0,311,311,223,1,224,kakon,,,,,5,harmonic,1.85,nw,z,,,,,,,
,,,,,,,,,,,,001,2023-11-07_16h21.40.494,vowel_harmony,2023.2.3,Win32,60.03121623,1396.7736,1397.7722,,,,,,,,,,,,,,,,,,,,,,,,,,1397.7724,1398.4714,z,1,0.6713,,1398.4715,1398.4722,,0,312,312,208,1,209,yayram,,,,,6,harmonic,1.85,nw,z,,,,,,,
,,,,,,,,,,,,001,2023-11-07_16h21.40.494,vowel_harmony,2023.2.3,Win32,60.03121623,1398.4729,1399.4752,,,,,,,,,,,,,,,,,,,,,,,,,,1399.4752,1400.1752,m,1,0.6834,,1400.1752,1400.1753,,0,313,313,4,1,5,metre,1156,52.5241,1015,0.111,5,harmonic,1.7,word,m,,,,,,,
,,,,,,,,,,,,001,2023-11-07_16h21.40.494,vowel_harmony,2023.2.3,Win32,60.03121623,1400.1755,1401.1709,,,,,,,,,,,,,,,,,,,,,,,,,,1401.171,1401.8537,m,1,0.6578,,1401.854,1401.8546,,0,314,314,53,1,54,gelir,7578,344.3143,7014,0.7668,5,harmonic,1.4,word,m,,,,,,,
,,,,,,,,,,,,001,2023-11-07_16h21.40.494,vowel_harmony,2023.2.3,Win32,60.03121623,1401.855,1402.8574,,,,,,,,,,,,,,,,,,,,,,,,,,1402.8574,1403.5907,m,1,0.717,,1403.5907,1403.5907,,0,315,315,124,1,125,ilan,1579,71.7435,1499,0.1639,4,notharmonic,1,word,m,,,,,,,
,,,,,,,,,,,,001,2023-11-07_16h21.40.494,vowel_harmony,2023.2.3,Win32,60.03121623,1403.5909,1404.5854,,,,,,,,,,,,,,,,,,,,,,,,,,1404.5857,1405.2396,m,1,0.6332,,1405.2397,1405.2398,,0,316,316,66,1,67,sanık,768,34.8949,699,0.0764,5,harmonic,1.85,word,m,,,,,,,
,,,,,,,,,,,,001,2023-11-07_16h21.40.494,vowel_harmony,2023.2.3,Win32,60.03121623,1405.2401,1406.2389,,,,,,,,,,,,,,,,,,,,,,,,,,1406.2389,1407.3168,m,1,1.0589,,1407.317,1407.3174,,0,317,317,166,1,167,maden,402,18.2653,339,0.0371,5,notharmonic,1.45,word,m,,,,,,,
,,,,,,,,,,,,001,2023-11-07_16h21.40.494,vowel_harmony,2023.2.3,Win32,60.03121623,1407.3186,1408.3165,,,,,,,,,,,,,,,,,,,,,,,,,,1408.3167,1409,z,1,0.6585,,1409.0002,1409.001,,0,318,318,356,1,357,mergun,,,,,6,notharmonic,1.95,nw,z,,,,,,,
,,,,,,,,,,,,001,2023-11-07_16h21.40.494,vowel_harmony,2023.2.3,Win32,60.03121623,1409.0014,1409.9993,,,,,,,,,,,,,,,,,,,,,,,,,,1409.9995,1410.7151,m,1,0.6842,,1410.7153,1410.7158,,0,319,319,40,1,41,tepki,1695,77.0141,1578,0.1725,5,harmonic,1.55,word,m,,,,,,,
,,,,,,,,,,,,001,2023-11-07_16h21.40.494,vowel_harmony,2023.2.3,Win32,60.03121623,1410.717,1411.7149,,,,,,,,,,,,,,,,,,,,,,,,,,1411.715,1412.6485,z,1,0.901,,1412.6487,1412.6493,,0,320,320,279,1,280,tadde,,,,,5,notharmonic,1.8,nw,z,,,,,,,
,,,,,,,,,,,,001,2023-11-07_16h21.40.494,vowel_harmony,2023.2.3,Win32,60.03121623,1412.6499,1413.6498,,,,,,,,,,,,,,,,,,,,,,,,,,1413.6498,1414.3143,m,1,0.6367,,1414.3144,1414.315,,0,321,321,149,1,150,ceza,2611,118.6335,2169,0.2371,4,notharmonic,1.5,word,m,,,,,,,
,,,,,,,,,,,,001,2023-11-07_16h21.40.494,vowel_harmony,2023.2.3,Win32,60.03121623,1414.3156,1415.3181,,,,,,,,,,,,,,,,,,,,,,,,,,1415.3181,1415.9353,m,1,0.6003,,1415.9353,1415.9354,,0,322,322,175,1,176,aile,3655,166.0687,3126,0.3417,4,notharmonic,1,word,m,,,,,,,
,,,,,,,,,,,,001,2023-11-07_16h21.40.494,vowel_harmony,2023.2.3,Win32,60.03121623,1415.9357,1416.9339,,,,,,,,,,,,,,,,,,,,,,,,,,1416.934,1417.8008,z,1,0.8502,,1417.8009,1417.8009,,0,323,323,240,1,241,hoga,,,,,4,harmonic,1.75,nw,z,,,,,,,
,,,,,,,,,,,,001,2023-11-07_16h21.40.494,vowel_harmony,2023.2.3,Win32,60.03121623,1417.8013,1418.795,,,,,,,,,,,,,,,,,,,,,,,,,,1418.7952,1419.5451,z,1,0.7209,,1419.5452,1419.546,,0,324,324,274,1,275,pisan,,,,,5,notharmonic,1.75,nw,z,,,,,,,
,,,,,,,,,,,,001,2023-11-07_16h21.40.494,vowel_harmony,2023.2.3,Win32,60.03121623,1419.5469,1420.5448,,,,,,,,,,,,,,,,,,,,,,,,,,1420.545,1421.2963,z,1,0.7308,,1421.2963,1421.2964,,0,325,325,354,1,355,taden,,,,,5,notharmonic,1.7,nw,z,,,,,,,
,,,,,,,,,,,,001,2023-11-07_16h21.40.494,vowel_harmony,2023.2.3,Win32,60.03121623,1421.2967,1422.2937,,,,,,,,,,,,,,,,,,,,,,,,,,1422.2941,1422.9818,z,1,0.6669,,1422.9819,1422.982,,0,326,326,305,1,306,tamü,,,,,4,notharmonic,1.75,nw,z,,,,,,,
,,,,,,,,,,,,001,2023-11-07_16h21.40.494,vowel_harmony,2023.2.3,Win32,60.03121623,1422.9822,1423.9811,,,,,,,,,,,,,,,,,,,,,,,,,,1423.9811,1424.6476,z,1,0.65,,1424.6476,1424.6476,,0,327,327,308,1,309,hafer,,,,,5,notharmonic,1.85,nw,z,,,,,,,
,,,,,,,,,,,,001,2023-11-07_16h21.40.494,vowel_harmony,2023.2.3,Win32,60.03121623,1424.6478,1425.6427,,,,,,,,,,,,,,,,,,,,,,,,,,1425.643,1426.28,z,1,0.6164,,1426.28,1426.2801,,0,328,328,339,1,340,asmel,,,,,5,notharmonic,1.95,nw,z,,,,,,,
,,,,,,,,,,,,001,2023-11-07_16h21.40.494,vowel_harmony,2023.2.3,Win32,60.03121623,1426.2804,1427.2751,,,,,,,,,,,,,,,,,,,,,,,,,,1427.2752,1428.0296,m,1,0.734,,1428.0296,1428.0297,,0,329,329,12,1,13,konu,5400,245.3546,5110,0.5586,4,harmonic,1,word,m,,,,,,,
,,,,,,,,,,,,001,2023-11-07_16h21.40.494,vowel_harmony,2023.2.3,Win32,60.03121623,1428.0299,1429.0258,,,,,,,,,,,,,,,,,,,,,,,,,,1429.0258,1429.7902,m,1,0.7387,,1429.7904,1429.7914,,0,330,330,157,1,158,aktif,1062,48.2531,986,0.1078,5,notharmonic,1.9,word,m,,,,,,,
,,,,,,,,,,,,001,2023-11-07_16h21.40.494,vowel_harmony,2023.2.3,Win32,60.03121623,1429.7919,1430.7901,,,,,,,,,,,,,,,,,,,,,,,,,,1430.7902,1431.4446,z,1,0.6337,,1431.4446,1431.4447,,0,331,331,314,1,315,seral,,,,,5,notharmonic,1.7,nw,z,,,,,,,
,,,,,,,,,,,,001,2023-11-07_16h21.40.494,vowel_harmony,2023.2.3,Win32,60.03121623,1431.445,1432.4412,,,,,,,,,,,,,,,,,,,,,,,,,,1432.4413,1433.2105,z,1,0.75,,1433.2105,1433.2105,,0,332,332,246,1,247,orkın,,,,,5,harmonic,1.9,nw,z,,,,,,,
,,,,,,,,,,,,001,2023-11-07_16h21.40.494,vowel_harmony,2023.2.3,Win32,60.03121623,1433.2108,1434.2097,,,,,,,,,,,,,,,,,,,,,,,,,,1434.2097,1434.8763,m,1,0.6501,,1434.8764,1434.8764,,0,333,333,75,1,76,roman,1499,68.1086,1281,0.14,5,harmonic,1.6,word,m,,,,,,,
,,,,,,,,,,,,001,2023-11-07_16h21.40.494,vowel_harmony,2023.2.3,Win32,60.03121623,1434.8766,1435.8706,,,,,,,,,,,,,,,,,,,,,,,,,,1435.8707,1436.542,z,1,0.6502,,1436.542,1436.5421,,0,334,334,341,1,342,işgan,,,,,5,notharmonic,1.95,nw,z,,,,,,,
,,,,,,,,,,,,001,2023-11-07_16h21.40.494,vowel_harmony,2023.2.3,Win32,60.03121623,1436.5423,1437.5414,,,,,,,,,,,,,,,,,,,,,,,,,,1437.5414,1438.1863,z,1,0.6181,,1438.1864,1438.1872,,0,335,335,336,1,337,diyam,,,,,5,notharmonic,1.85,nw,z,,,,,,,
,,,,,,,,,,,,001,2023-11-07_16h21.40.494,vowel_harmony,2023.2.3,Win32,60.03121623,1438.1879,1439.1903,,,,,,,,,,,,,,,,,,,,,,,,,,1439.1904,1439.7717,z,1,0.5645,,1439.7717,1439.7718,,0,336,336,328,1,329,kirul,,,,,5,notharmonic,1.95,nw,z,,,,,,,
,,,,,,,,,,,,001,2023-11-07_16h21.40.494,vowel_harmony,2023.2.3,Win32,60.03121623,1439.7722,1440.7691,,,,,,,,,,,,,,,,,,,,,,,,,,1440.7693,1441.3567,z,1,0.5669,,1441.3567,1441.3568,,0,337,337,303,1,304,fisor,,,,,5,notharmonic,1.9,nw,z,,,,,,,
,,,,,,,,,,,,001,2023-11-07_16h21.40.494,vowel_harmony,2023.2.3,Win32,60.03121623,1441.357,1442.3511,,,,,,,,,,,,,,,,,,,,,,,,,,1442.3513,1443.0229,m,1,0.6504,,1443.0229,1443.023,,0,338,338,43,1,44,geniş,3380,153.5738,3185,0.3482,5,harmonic,1.35,word,m,,,,,,,
,,,,,,,,,,,,001,2023-11-07_16h21.40.494,vowel_harmony,2023.2.3,Win32,60.03121623,1443.0232,1444.0177,,,,,,,,,,,,,,,,,,,,,,,,,,1444.0178,1444.7341,z,1,0.6875,,1444.7343,1444.735,,0,339,339,236,1,237,toklam,,,,,6,harmonic,1.85,nw,z,,,,,,,
,,,,,,,,,,,,001,2023-11-07_16h21.40.494,vowel_harmony,2023.2.3,Win32,60.03121623,1444.7354,1445.7377,,,,,,,,,,,,,,,,,,,,,,,,,,1445.7378,1446.4377,z,1,0.6834,,1446.4377,1446.4378,,0,340,340,237,1,238,taşal,,,,,5,harmonic,1.8,nw,z,,,,,,,
,,,,,,,,,,,,001,2023-11-07_16h21.40.494,vowel_harmony,2023.2.3,Win32,60.03121623,1446.4381,1447.4325,,,,,,,,,,,,,,,,,,,,,,,,,,1447.4326,1448.1492,m,1,0.688,,1448.1495,1448.1501,,0,341,341,3,1,4,minik,2916,132.4915,2594,0.2836,5,harmonic,1.6,word,m,,,,,,,
,,,,,,,,,,,,001,2023-11-07_16h21.40.494,vowel_harmony,2023.2.3,Win32,60.03121623,1448.1504,1449.1529,,,,,,,,,,,,,,,,,,,,,,,,,,1449.1529,1449.8359,m,1,0.6667,,1449.8359,1449.836,,0,342,342,109,1,110,milyon,3936,178.8362,2958,0.3234,6,notharmonic,1.75,word,m,,,,,,,
,,,,,,,,,,,,001,2023-11-07_16h21.40.494,vowel_harmony,2023.2.3,Win32,60.03121623,1449.8362,1450.831,,,,,,,,,,,,,,,,,,,,,,,,,,1450.8311,1451.5186,m,1,0.6666,,1451.5186,1451.5187,,0,343,343,121,1,122,mesaj,1604,72.8794,1386,0.1515,5,notharmonic,1.8,word,m,,,,,,,
,,,,,,,,,,,,001,2023-11-07_16h21.40.494,vowel_harmony,2023.2.3,Win32,60.03121623,1451.5189,1452.518,,,,,,,,,,,,,,,,,,,,,,,,,,1452.518,1453.1321,z,1,0.5978,,1453.1322,1453.1322,,0,344,344,183,1,184,orkın,,,,,5,harmonic,1.9,nw,z,,,,,,,
,,,,,,,,,,,,001,2023-11-07_16h21.40.494,vowel_harmony,2023.2.3,Win32,60.03121623,1453.1324,1454.129,,,,,,,,,,,,,,,,,,,,,,,,,,1454.1292,1454.879,z,1,0.7212,,1454.8791,1454.8797,,0,345,345,342,1,343,kulön,,,,,5,notharmonic,1.9,nw,z,,,,,,,
,,,,,,,,,,,,001,2023-11-07_16h21.40.494,vowel_harmony,2023.2.3,Win32,60.03121623,1454.8808,1455.8828,,,,,,,,,,,,,,,,,,,,,,,,,,1455.8828,1456.5829,z,1,0.6829,,1456.5829,1456.5831,,0,346,346,253,1,254,meslet,,,,,6,harmonic,1.85,nw,z,,,,,,,
,,,,,,,,,,,,001,2023-11-07_16h21.40.494,vowel_harmony,2023.2.3,Win32,60.03121623,1456.5833,1457.5797,,,,,,,,,,,,,,,,,,,,,,,,,,1457.5797,1458.261,m,1,0.6545,,1458.2614,1458.2621,,0,347,347,8,1,9,güven,1433,65.1098,1300,0.1421,5,harmonic,1.35,word,m,,,,,,,
,,,,,,,,,,,,001,2023-11-07_16h21.40.494,vowel_harmony,2023.2.3,Win32,60.03121623,1458.2624,1459.2608,,,,,,,,,,,,,,,,,,,,,,,,,,1459.261,1459.9149,m,1,0.6338,,1459.9149,1459.915,,0,348,348,126,1,127,adet,4367,198.4192,3768,0.4119,4,notharmonic,1.4,word,m,,,,,,,
,,,,,,,,,,,,001,2023-11-07_16h21.40.494,vowel_harmony,2023.2.3,Win32,60.03121623,1459.9152,1460.9141,,,,,,,,,,,,,,,,,,,,,,,,,,1460.9142,1461.6806,m,1,0.7499,,1461.6807,1461.6808,,0,349,349,24,1,25,yorgun,1153,52.3877,1108,0.1211,6,harmonic,1.55,word,m,,,,,,,
,,,,,,,,,,,,001,2023-11-07_16h21.40.494,vowel_harmony,2023.2.3,Win32,60.03121623,1461.6811,1462.6758,,,,,,,,,,,,,,,,,,,,,,,,,,1462.6759,1463.313,m,1,0.6166,,1463.3131,1463.3132,,0,350,350,177,1,178,tekrar,10788,490.1639,9352,1.0224,6,notharmonic,1.85,word,m,,,,,,,
,,,,,,,,,,,,001,2023-11-07_16h21.40.494,vowel_harmony,2023.2.3,Win32,60.03121623,1463.3135,1464.3125,,,,,,,,,,,,,,,,,,,,,,,,,,1464.3125,1465.0626,z,1,0.7332,,1465.0626,1465.0627,,0,351,351,323,1,324,devak,,,,,5,notharmonic,1.75,nw,z,,,,,,,
,,,,,,,,,,,,001,2023-11-07_16h21.40.494,vowel_harmony,2023.2.3,Win32,60.03121623,1465.0628,1466.0576,,,,,,,,,,,,,,,,,,,,,,,,,,1466.0578,1466.9616,z,1,0.8834,,1466.9616,1466.9617,,0,352,352,230,1,231,bikir,,,,,5,harmonic,1.75,nw,z,,,,,,,
,,,,,,,,,,,,001,2023-11-07_16h21.40.494,vowel_harmony,2023.2.3,Win32,60.03121623,1466.9618,1467.9566,,,,,,,,,,,,,,,,,,,,,,,,,,1467.9568,1468.64,m,1,0.6591,,1468.6401,1468.6408,,0,353,353,7,1,8,hizmet,3023,137.3531,2689,0.294,6,harmonic,1.75,word,m,,,,,,,
,,,,,,,,,,,,001,2023-11-07_16h21.40.494,vowel_harmony,2023.2.3,Win32,60.03121623,1468.6411,1469.6387,,,,,,,,,,,,,,,,,,,,,,,,,,1469.6389,1470.2558,z,1,0.5876,,1470.256,1470.2567,,0,354,354,291,1,292,mepan,,,,,5,notharmonic,1.75,nw,z,,,,,,,
,,,,,,,,,,,,001,2023-11-07_16h21.40.494,vowel_harmony,2023.2.3,Win32,60.03121623,1470.2571,1471.2552,,,,,,,,,,,,,,,,,,,,,,,,,,1471.2555,1472.0762,m,1,0.8002,,1472.0762,1472.0763,,0,355,355,120,1,121,ihmal,1002,45.5269,977,0.1068,5,notharmonic,1.65,word,m,,,,,,,
,,,,,,,,,,,,001,2023-11-07_16h21.40.494,vowel_harmony,2023.2.3,Win32,60.03121623,1472.0766,1473.0712,,,,,,,,,,,,,,,,,,,,,,,,,,1473.0714,1473.6893,m,1,0.5975,,1473.6894,1473.6895,,0,356,356,171,1,172,reklam,1565,71.1074,1244,0.136,6,notharmonic,1.9,word,m,,,,,,,
,,,,,,,,,,,,001,2023-11-07_16h21.40.494,vowel_harmony,2023.2.3,Win32,60.03121623,1473.6897,1474.6865,,,,,,,,,,,,,,,,,,,,,,,,,,1474.6867,1475.4911,z,1,0.7833,,1475.4912,1475.4913,,0,357,357,351,1,352,seğlık,,,,,6,notharmonic,1.9,nw,z,,,,,,,
,,,,,,,,,,,,001,2023-11-07_16h21.40.494,vowel_harmony,2023.2.3,Win32,60.03121623,1475.4915,1476.4905,,,,,,,,,,,,,,,,,,,,,,,,,,1476.4905,1477.157,m,1,0.6503,,1477.1571,1477.1572,,0,358,358,73,1,74,millet,1658,75.3329,1508,0.1649,6,harmonic,1.7,word,m,,,,,,,
,,,,,,,,,,,,001,2023-11-07_16h21.40.494,vowel_harmony,2023.2.3,Win32,60.03121623,1477.1574,1478.1562,,,,,,,,,,,,,,,,,,,,,,,,,,1478.1562,1478.835,z,1,0.6589,,1478.8352,1478.836,,0,359,359,217,1,218,sanfız,,,,,6,harmonic,1.85,nw,z,,,,,,,
,,,,,,,,,,,,001,2023-11-07_16h21.40.494,vowel_harmony,2023.2.3,Win32,60.03121623,,,,,,,,,,,,,,,,,,,,,,,,,,,,,,,,,,,,,,,,,,,,,,,,,,,,,,,1478.8367,1481.7349,space,2.8718,