Welcome_screen.started,Welcome_screen.stopped,key_respwelcome.keys,key_respwelcome.rt,key_respwelcome.duration,intro_x.thisRepN,intro_x.thisTrialN,intro_x.thisN,intro_x.thisIndex,intro_x.ran,Introduction,participant,session,date,expName,psychopyVersion,OS,frameRate,Fixation.started,Fixation.stopped,Studypractice.started,Studypractice.stopped,key_respstudy.keys,key_respstudy.corr,key_respstudy.rt,key_respstudy.duration,rt,corr,Feedback.started,Feedback.stopped,practice_loop.thisRepN,practice_loop.thisTrialN,practice_loop.thisN,practice_loop.thisIndex,practice_loop.ran,item_nr_p,target_p,isHarmonic_p,target_cond_p,CorrAns_p,Instraction.started,Instraction.stopped,key_respınstraction.keys,key_respınstraction.rt,key_respınstraction.duration,TestTrial.started,TestTrial.stopped,key_respTest.keys,key_respTest.corr,key_respTest.rt,key_respTest.duration,Pause.started,Pause.stopped,key_resp_xx.keys,test_loop.thisRepN,test_loop.thisTrialN,test_loop.thisN,test_loop.thisIndex,test_loop.ran,item_nr,target,BlogFreq_A1,BlogFreqpm_A1,BlogCD_A1,BlogCDPc_A1,WordLength_A1,isHarmonic_A1,old20,target_cond,CorrAns,key_resp_xx.rt,key_resp_xx.duration,Goodbye_screen.started,Goodbye_screen.stopped,key_respgoodbye.keys,key_respgoodbye.rt,key_respgoodbye.duration
0.012,2.041,space,2.018,,0,0,0,0,1,"Deneye hoş geldiniz,

Devam etmek için BOŞLUK tuşuna basınız.",,001,2023-11-08_00h08.19.836,vowel_harmony,2023.2.3,iPad,62.5,,,,,,,,,,,,,,,,,,,,,,,,,,,,,,,,,,,,,,,,,,,,,,,,,,,,,,,,,,,
2.042,11.521,space,9.457,,0,1,1,1,1,"Bu çalışma Valencia Üniversitesi kapsamında yürütülmektedir. Deneydeki göreviniz, ekrana çıkacak Türkçe sözcüklerin kelime olup olmadığını belirlemenizdir. Eğer sözcük gerçek bir kelime ise ""m"" tuşuna, değil ise ""z"" tuşuna basınız.   

Devam etmek için BOŞLUK tuşuna basınız.",,001,2023-11-08_00h08.19.836,vowel_harmony,2023.2.3,iPad,62.5,,,,,,,,,,,,,,,,,,,,,,,,,,,,,,,,,,,,,,,,,,,,,,,,,,,,,,,,,,,
11.522,16.206,space,4.655,,0,2,2,2,1,"Her sözcük için en fazla iki saniyede cevap vermeniz beklenmektedir. Aksi takdirde deney bir sonraki sözcük ile devam eder. 
Bu çalışmada oldukça hızlı ve doğru cevaplama yapmanız beklenmektedir.

Devam etmek için BOŞLUK tuşuna basınız.",,001,2023-11-08_00h08.19.836,vowel_harmony,2023.2.3,iPad,62.5,,,,,,,,,,,,,,,,,,,,,,,,,,,,,,,,,,,,,,,,,,,,,,,,,,,,,,,,,,,
16.206,20.178,space,3.943,,0,3,3,3,1,"Çalışmaya başlamadan önce ufak bir pratik yer almaktadır.
Kelimedir: ""m""
Kelime değildir: ""z""

Pratik teste başlamak için BOŞLUK tuşuna basınız. ",,001,2023-11-08_00h08.19.836,vowel_harmony,2023.2.3,iPad,62.5,,,,,,,,,,,,,,,,,,,,,,,,,,,,,,,,,,,,,,,,,,,,,,,,,,,,,,,,,,,
,,,,,,,,,,,,001,2023-11-08_00h08.19.836,vowel_harmony,2023.2.3,iPad,62.5,20.194,21.191,21.192,118.047,z,1,96.835,,96.835,1,118.048,119.548,0,0,0,9,1,10,orat,harmonic,nw,z,,,,,,,,,,,,,,,,,,,,,,,,,,,,,,,,,,,,,
,,,,,,,,,,,,001,2023-11-08_00h08.19.836,vowel_harmony,2023.2.3,iPad,62.5,119.549,120.547,120.547,123.083,z,1,2.517,,2.517,1,123.083,124.582,0,1,1,12,1,13,ihlot,notharmonic,nw,z,,,,,,,,,,,,,,,,,,,,,,,,,,,,,,,,,,,,,
,,,,,,,,,,,,001,2023-11-08_00h08.19.836,vowel_harmony,2023.2.3,iPad,62.5,124.584,125.583,125.583,126.674,m,1,1.076,,1.076,1,126.675,128.167,0,2,2,2,1,3,memur,notharmonic,word,m,,,,,,,,,,,,,,,,,,,,,,,,,,,,,,,,,,,,,
,,,,,,,,,,,,001,2023-11-08_00h08.19.836,vowel_harmony,2023.2.3,iPad,62.5,128.168,129.168,129.168,130.143,m,1,0.958,,0.958,1,130.143,131.635,0,3,3,7,1,8,oran,harmonic,word,m,,,,,,,,,,,,,,,,,,,,,,,,,,,,,,,,,,,,,
,,,,,,,,,,,,001,2023-11-08_00h08.19.836,vowel_harmony,2023.2.3,iPad,62.5,131.636,132.635,132.635,133.743,z,1,1.092,,1.092,1,133.743,135.236,0,4,4,11,1,12,geki,harmonic,nw,z,,,,,,,,,,,,,,,,,,,,,,,,,,,,,,,,,,,,,
,,,,,,,,,,,,001,2023-11-08_00h08.19.836,vowel_harmony,2023.2.3,iPad,62.5,135.237,136.237,136.237,136.844,m,1,0.593,,0.593,1,136.844,138.338,0,5,5,6,1,7,pilot,notharmonic,word,m,,,,,,,,,,,,,,,,,,,,,,,,,,,,,,,,,,,,,
,,,,,,,,,,,,001,2023-11-08_00h08.19.836,vowel_harmony,2023.2.3,iPad,62.5,138.339,139.338,139.338,139.912,m,1,0.559,,0.559,1,139.912,141.405,0,6,6,0,1,1,ihale,notharmonic,word,m,,,,,,,,,,,,,,,,,,,,,,,,,,,,,,,,,,,,,
,,,,,,,,,,,,001,2023-11-08_00h08.19.836,vowel_harmony,2023.2.3,iPad,62.5,141.406,142.406,142.406,143.174,z,1,0.752,,0.752,1,143.174,144.673,0,7,7,14,1,15,pimer,harmonic,nw,z,,,,,,,,,,,,,,,,,,,,,,,,,,,,,,,,,,,,,
,,,,,,,,,,,,001,2023-11-08_00h08.19.836,vowel_harmony,2023.2.3,iPad,62.5,144.674,145.674,145.674,146.708,z,1,1.018,,1.018,1,146.708,148.208,0,8,8,8,1,9,tahip,notharmonic,nw,z,,,,,,,,,,,,,,,,,,,,,,,,,,,,,,,,,,,,,
,,,,,,,,,,,,001,2023-11-08_00h08.19.836,vowel_harmony,2023.2.3,iPad,62.5,148.209,149.209,149.209,150,z,1,0.776,,0.776,1,150,151.493,0,9,9,10,1,11,mahne,notharmonic,nw,z,,,,,,,,,,,,,,,,,,,,,,,,,,,,,,,,,,,,,
,,,,,,,,,,,,001,2023-11-08_00h08.19.836,vowel_harmony,2023.2.3,iPad,62.5,151.494,152.493,152.493,152.985,m,1,0.475,,0.475,1,152.985,154.477,0,10,10,4,1,5,mimar,notharmonic,word,m,,,,,,,,,,,,,,,,,,,,,,,,,,,,,,,,,,,,,
,,,,,,,,,,,,001,2023-11-08_00h08.19.836,vowel_harmony,2023.2.3,iPad,62.5,154.478,155.478,155.478,156.161,m,1,0.668,,0.668,1,156.161,157.662,0,11,11,3,1,4,ihlal,notharmonic,word,m,,,,,,,,,,,,,,,,,,,,,,,,,,,,,,,,,,,,,
,,,,,,,,,,,,001,2023-11-08_00h08.19.836,vowel_harmony,2023.2.3,iPad,62.5,157.663,158.662,158.662,159.57,m,0,0.894,,0.894,0,159.57,161.063,0,12,12,13,1,14,pilar,notharmonic,nw,z,,,,,,,,,,,,,,,,,,,,,,,,,,,,,,,,,,,,,
,,,,,,,,,,,,001,2023-11-08_00h08.19.836,vowel_harmony,2023.2.3,iPad,62.5,161.064,162.064,162.064,162.905,z,1,0.826,,0.826,1,162.905,164.398,0,13,13,15,1,16,mımal,harmonic,nw,z,,,,,,,,,,,,,,,,,,,,,,,,,,,,,,,,,,,,,
,,,,,,,,,,,,001,2023-11-08_00h08.19.836,vowel_harmony,2023.2.3,iPad,62.5,164.399,165.398,165.398,165.905,m,1,0.494,,0.494,1,165.906,167.399,0,14,14,5,1,6,bahçe,notharmonic,word,m,,,,,,,,,,,,,,,,,,,,,,,,,,,,,,,,,,,,,
,,,,,,,,,,,,001,2023-11-08_00h08.19.836,vowel_harmony,2023.2.3,iPad,62.5,167.4,168.399,168.399,168.957,m,1,0.543,,0.543,1,168.957,170.45,0,15,15,1,1,2,veri,harmonic,word,m,,,,,,,,,,,,,,,,,,,,,,,,,,,,,,,,,,,,,
,,,,,,,,,,,,001,2023-11-08_00h08.19.836,vowel_harmony,2023.2.3,iPad,62.5,,,,,,,,,,,,,,,,,,,,,,,170.452,190.959,space,20.478,,,,,,,,,,,,,,,,,,,,,,,,,,,,,,,,,
,,,,,,,,,,,,001,2023-11-08_00h08.19.836,vowel_harmony,2023.2.3,iPad,62.5,190.99,191.959,,,,,,,,,,,,,,,,,,,,,,,,,,191.96,193.227,z,1,1.25,,193.227,193.231,,0,0,0,343,1,344,tarne,,,,,5,notharmonic,1.85,nw,z,,,,,,,
,,,,,,,,,,,,001,2023-11-08_00h08.19.836,vowel_harmony,2023.2.3,iPad,62.5,193.232,194.226,,,,,,,,,,,,,,,,,,,,,,,,,,194.226,194.977,z,1,0.735,,194.977,194.977,,0,1,1,188,1,189,tonık,,,,,5,harmonic,1.85,nw,z,,,,,,,
,,,,,,,,,,,,001,2023-11-08_00h08.19.836,vowel_harmony,2023.2.3,iPad,62.5,194.978,195.977,,,,,,,,,,,,,,,,,,,,,,,,,,195.977,196.501,m,1,0.51,,196.501,196.501,,0,2,2,30,1,31,çevre,1662,75.5147,1409,0.154,5,harmonic,1.55,word,m,,,,,,,
,,,,,,,,,,,,001,2023-11-08_00h08.19.836,vowel_harmony,2023.2.3,iPad,62.5,196.502,197.494,,,,,,,,,,,,,,,,,,,,,,,,,,197.494,198.295,m,0,0.785,,198.295,198.295,,0,3,3,295,1,296,haylin,,,,,6,notharmonic,1.8,nw,z,,,,,,,
,,,,,,,,,,,,001,2023-11-08_00h08.19.836,vowel_harmony,2023.2.3,iPad,62.5,198.296,199.295,,,,,,,,,,,,,,,,,,,,,,,,,,199.295,199.786,m,1,0.475,,199.786,199.786,,0,4,4,27,1,28,bölge,1283,58.2944,1123,0.1228,5,harmonic,1.65,word,m,,,,,,,
,,,,,,,,,,,,001,2023-11-08_00h08.19.836,vowel_harmony,2023.2.3,iPad,62.5,199.787,200.779,,,,,,,,,,,,,,,,,,,,,,,,,,200.779,201.287,m,1,0.494,,201.288,201.288,,0,5,5,115,1,116,saniye,1088,49.4344,984,0.1076,6,notharmonic,1.35,word,m,,,,,,,
,,,,,,,,,,,,001,2023-11-08_00h08.19.836,vowel_harmony,2023.2.3,iPad,62.5,201.288,202.279,,,,,,,,,,,,,,,,,,,,,,,,,,202.28,202.887,z,1,0.593,,202.887,202.888,,0,6,6,250,1,251,kakuk,,,,,5,harmonic,1.9,nw,z,,,,,,,
,,,,,,,,,,,,001,2023-11-08_00h08.19.836,vowel_harmony,2023.2.3,iPad,62.5,202.888,203.88,,,,,,,,,,,,,,,,,,,,,,,,,,203.881,204.421,m,1,0.525,,204.421,204.421,,0,7,7,129,1,130,tahmin,2353,106.911,2273,0.2485,6,notharmonic,1.6,word,m,,,,,,,
,,,,,,,,,,,,001,2023-11-08_00h08.19.836,vowel_harmony,2023.2.3,iPad,62.5,204.423,205.414,,,,,,,,,,,,,,,,,,,,,,,,,,205.414,206.022,m,1,0.594,,206.022,206.023,,0,8,8,131,1,132,hakim,1677,76.1962,1559,0.1704,5,notharmonic,1,word,m,,,,,,,
,,,,,,,,,,,,001,2023-11-08_00h08.19.836,vowel_harmony,2023.2.3,iPad,62.5,206.024,207.015,,,,,,,,,,,,,,,,,,,,,,,,,,207.015,207.515,m,1,0.486,,207.515,207.515,,0,9,9,36,1,37,meslek,1082,49.1618,976,0.1067,6,harmonic,1.9,word,m,,,,,,,
,,,,,,,,,,,,001,2023-11-08_00h08.19.836,vowel_harmony,2023.2.3,iPad,62.5,207.516,208.515,,,,,,,,,,,,,,,,,,,,,,,,,,208.516,209.216,z,1,0.685,,209.217,209.217,,0,10,10,345,1,346,bardeş,,,,,6,notharmonic,1.95,nw,z,,,,,,,
,,,,,,,,,,,,001,2023-11-08_00h08.19.836,vowel_harmony,2023.2.3,iPad,62.5,209.217,210.216,,,,,,,,,,,,,,,,,,,,,,,,,,210.216,211.117,z,1,0.887,,211.117,211.117,,0,11,11,332,1,333,tahane,,,,,6,notharmonic,1.85,nw,z,,,,,,,
,,,,,,,,,,,,001,2023-11-08_00h08.19.836,vowel_harmony,2023.2.3,iPad,62.5,211.118,212.117,,,,,,,,,,,,,,,,,,,,,,,,,,212.117,212.69,m,1,0.56,,212.69,212.69,,0,12,12,154,1,155,sakin,1855,84.2838,1635,0.1787,5,notharmonic,1.05,word,m,,,,,,,
,,,,,,,,,,,,001,2023-11-08_00h08.19.836,vowel_harmony,2023.2.3,iPad,62.5,212.691,213.684,,,,,,,,,,,,,,,,,,,,,,,,,,213.684,214.468,z,1,0.768,,214.468,214.468,,0,13,13,356,1,357,mergun,,,,,6,notharmonic,1.95,nw,z,,,,,,,
,,,,,,,,,,,,001,2023-11-08_00h08.19.836,vowel_harmony,2023.2.3,iPad,62.5,214.47,215.468,,,,,,,,,,,,,,,,,,,,,,,,,,215.468,216.059,m,1,0.577,,216.059,216.059,,0,14,14,19,1,20,ödül,1063,48.2985,926,0.1012,4,harmonic,1.7,word,m,,,,,,,
,,,,,,,,,,,,001,2023-11-08_00h08.19.836,vowel_harmony,2023.2.3,iPad,62.5,216.06,217.052,,,,,,,,,,,,,,,,,,,,,,,,,,217.052,217.597,m,1,0.53,,217.597,217.597,,0,15,15,51,1,52,ilginç,2803,127.3572,2690,0.2941,6,harmonic,1.8,word,m,,,,,,,
,,,,,,,,,,,,001,2023-11-08_00h08.19.836,vowel_harmony,2023.2.3,iPad,62.5,217.598,218.586,,,,,,,,,,,,,,,,,,,,,,,,,,218.586,219.737,m,1,1.134,,219.737,219.737,,0,16,16,80,1,81,merkez,1445,65.6551,1255,0.1372,6,harmonic,1.8,word,m,,,,,,,
,,,,,,,,,,,,001,2023-11-08_00h08.19.836,vowel_harmony,2023.2.3,iPad,62.5,219.739,220.737,,,,,,,,,,,,,,,,,,,,,,,,,,220.737,221.428,z,1,0.677,,221.428,221.429,,0,17,17,227,1,228,zekö,,,,,4,harmonic,1.9,nw,z,,,,,,,
,,,,,,,,,,,,001,2023-11-08_00h08.19.836,vowel_harmony,2023.2.3,iPad,62.5,221.429,222.421,,,,,,,,,,,,,,,,,,,,,,,,,,222.421,223.227,z,1,0.792,,223.227,223.228,,0,18,18,201,1,202,ergiy,,,,,5,harmonic,1.85,nw,z,,,,,,,
,,,,,,,,,,,,001,2023-11-08_00h08.19.836,vowel_harmony,2023.2.3,iPad,62.5,223.228,224.221,,,,,,,,,,,,,,,,,,,,,,,,,,224.222,224.746,m,1,0.511,,224.746,224.747,,0,19,19,17,1,18,yakın,7990,363.0339,7595,0.8303,5,harmonic,1.8,word,m,,,,,,,
,,,,,,,,,,,,001,2023-11-08_00h08.19.836,vowel_harmony,2023.2.3,iPad,62.5,224.747,225.739,,,,,,,,,,,,,,,,,,,,,,,,,,225.739,226.239,m,1,0.486,,226.239,226.24,,0,20,20,152,1,153,tedavi,1865,84.7382,1597,0.1746,6,notharmonic,1.8,word,m,,,,,,,
,,,,,,,,,,,,001,2023-11-08_00h08.19.836,vowel_harmony,2023.2.3,iPad,62.5,226.24,227.239,,,,,,,,,,,,,,,,,,,,,,,,,,227.239,228.33,z,1,1.075,,228.33,228.331,,0,21,21,335,1,336,lilo,,,,,4,notharmonic,1.8,nw,z,,,,,,,
,,,,,,,,,,,,001,2023-11-08_00h08.19.836,vowel_harmony,2023.2.3,iPad,62.5,228.332,229.324,,,,,,,,,,,,,,,,,,,,,,,,,,229.324,230.114,z,1,0.776,,230.114,230.114,,0,22,22,326,1,327,ailo,,,,,4,notharmonic,1.75,nw,z,,,,,,,
,,,,,,,,,,,,001,2023-11-08_00h08.19.836,vowel_harmony,2023.2.3,iPad,62.5,230.115,231.108,,,,,,,,,,,,,,,,,,,,,,,,,,231.108,232.548,z,1,1.426,,232.548,232.548,,0,23,23,282,1,283,taöz,,,,,4,notharmonic,1.9,nw,z,,,,,,,
,,,,,,,,,,,,001,2023-11-08_00h08.19.836,vowel_harmony,2023.2.3,iPad,62.5,232.549,233.542,,,,,,,,,,,,,,,,,,,,,,,,,,233.542,234.242,z,1,0.685,,234.242,234.243,,0,24,24,324,1,325,pakeh,,,,,5,notharmonic,1.9,nw,z,,,,,,,
,,,,,,,,,,,,001,2023-11-08_00h08.19.836,vowel_harmony,2023.2.3,iPad,62.5,234.243,235.243,,,,,,,,,,,,,,,,,,,,,,,,,,235.243,236.126,z,1,0.868,,236.126,236.127,,0,25,25,346,1,347,kidan,,,,,5,notharmonic,1.8,nw,z,,,,,,,
,,,,,,,,,,,,001,2023-11-08_00h08.19.836,vowel_harmony,2023.2.3,iPad,62.5,236.127,237.127,,,,,,,,,,,,,,,,,,,,,,,,,,237.127,237.96,z,1,0.818,,237.961,237.961,,0,26,26,302,1,303,işgar,,,,,5,notharmonic,1.9,nw,z,,,,,,,
,,,,,,,,,,,,001,2023-11-08_00h08.19.836,vowel_harmony,2023.2.3,iPad,62.5,237.961,238.961,,,,,,,,,,,,,,,,,,,,,,,,,,238.961,239.895,z,1,0.92,,239.895,239.895,,0,27,27,321,1,322,makih,,,,,5,notharmonic,1.8,nw,z,,,,,,,
,,,,,,,,,,,,001,2023-11-08_00h08.19.836,vowel_harmony,2023.2.3,iPad,62.5,239.896,240.895,,,,,,,,,,,,,,,,,,,,,,,,,,240.895,241.479,z,1,0.569,,241.479,241.48,,0,28,28,244,1,245,kaof,,,,,4,harmonic,1.9,nw,z,,,,,,,
,,,,,,,,,,,,001,2023-11-08_00h08.19.836,vowel_harmony,2023.2.3,iPad,62.5,241.48,242.479,,,,,,,,,,,,,,,,,,,,,,,,,,242.479,243.103,m,1,0.61,,243.104,243.104,,0,29,29,119,1,120,kulüp,649,29.488,467,0.0511,5,notharmonic,1.4,word,m,,,,,,,
,,,,,,,,,,,,001,2023-11-08_00h08.19.836,vowel_harmony,2023.2.3,iPad,62.5,243.105,244.096,,,,,,,,,,,,,,,,,,,,,,,,,,244.096,244.83,m,0,0.719,,244.83,244.83,,0,30,30,344,1,345,barika,,,,,6,notharmonic,1.75,nw,z,,,,,,,
,,,,,,,,,,,,001,2023-11-08_00h08.19.836,vowel_harmony,2023.2.3,iPad,62.5,244.831,245.83,,,,,,,,,,,,,,,,,,,,,,,,,,245.83,246.997,z,1,1.153,,246.997,246.998,,0,31,31,233,1,234,devpi,,,,,5,harmonic,1.8,nw,z,,,,,,,
,,,,,,,,,,,,001,2023-11-08_00h08.19.836,vowel_harmony,2023.2.3,iPad,62.5,246.998,247.998,,,,,,,,,,,,,,,,,,,,,,,,,,247.998,248.606,m,1,0.595,,248.606,248.606,,0,32,32,79,1,80,durum,6783,308.1926,6431,0.703,5,harmonic,1.7,word,m,,,,,,,
,,,,,,,,,,,,001,2023-11-08_00h08.19.836,vowel_harmony,2023.2.3,iPad,62.5,248.607,249.598,,,,,,,,,,,,,,,,,,,,,,,,,,249.599,250.49,z,1,0.879,,250.49,250.49,,0,33,33,216,1,217,çeyret,,,,,6,harmonic,1.9,nw,z,,,,,,,
,,,,,,,,,,,,001,2023-11-08_00h08.19.836,vowel_harmony,2023.2.3,iPad,62.5,250.491,251.483,,,,,,,,,,,,,,,,,,,,,,,,,,251.483,252.008,m,1,0.51,,252.008,252.008,,0,34,34,57,1,58,bölüm,1910,86.7828,1605,0.1755,5,harmonic,1.45,word,m,,,,,,,
,,,,,,,,,,,,001,2023-11-08_00h08.19.836,vowel_harmony,2023.2.3,iPad,62.5,252.009,253,,,,,,,,,,,,,,,,,,,,,,,,,,253,253.817,z,1,0.803,,253.817,253.817,,0,35,35,239,1,240,şekik,,,,,5,harmonic,1.7,nw,z,,,,,,,
,,,,,,,,,,,,001,2023-11-08_00h08.19.836,vowel_harmony,2023.2.3,iPad,62.5,253.818,254.817,,,,,,,,,,,,,,,,,,,,,,,,,,254.817,255.343,m,1,0.511,,255.343,255.343,,0,36,36,70,1,71,yarın,3440,156.3,3222,0.3522,5,harmonic,1.85,word,m,,,,,,,
,,,,,,,,,,,,001,2023-11-08_00h08.19.836,vowel_harmony,2023.2.3,iPad,62.5,255.344,256.336,,,,,,,,,,,,,,,,,,,,,,,,,,256.336,257.018,z,1,0.668,,257.018,257.019,,0,37,37,256,1,257,yaruza,,,,,6,harmonic,1.9,nw,z,,,,,,,
,,,,,,,,,,,,001,2023-11-08_00h08.19.836,vowel_harmony,2023.2.3,iPad,62.5,257.019,258.018,,,,,,,,,,,,,,,,,,,,,,,,,,258.018,258.826,z,1,0.794,,258.826,258.826,,0,38,38,223,1,224,kakon,,,,,5,harmonic,1.85,nw,z,,,,,,,
,,,,,,,,,,,,001,2023-11-08_00h08.19.836,vowel_harmony,2023.2.3,iPad,62.5,258.827,259.819,,,,,,,,,,,,,,,,,,,,,,,,,,259.819,260.42,z,1,0.587,,260.42,260.42,,0,39,39,192,1,193,vecö,,,,,4,harmonic,1.95,nw,z,,,,,,,
,,,,,,,,,,,,001,2023-11-08_00h08.19.836,vowel_harmony,2023.2.3,iPad,62.5,260.421,261.42,,,,,,,,,,,,,,,,,,,,,,,,,,261.42,261.962,m,1,0.529,,261.962,261.962,,0,40,40,43,1,44,geniş,3380,153.5738,3185,0.3482,5,harmonic,1.35,word,m,,,,,,,
,,,,,,,,,,,,001,2023-11-08_00h08.19.836,vowel_harmony,2023.2.3,iPad,62.5,261.963,262.954,,,,,,,,,,,,,,,,,,,,,,,,,,262.954,263.512,m,1,0.544,,263.512,263.512,,0,41,41,100,1,101,düşman,1065,48.3894,962,0.1052,6,notharmonic,1.85,word,m,,,,,,,
,,,,,,,,,,,,001,2023-11-08_00h08.19.836,vowel_harmony,2023.2.3,iPad,62.5,263.513,264.504,,,,,,,,,,,,,,,,,,,,,,,,,,264.505,265.171,m,1,0.652,,265.172,265.172,,0,42,42,159,1,160,vakit,3476,157.9357,3298,0.3605,5,notharmonic,1.65,word,m,,,,,,,
,,,,,,,,,,,,001,2023-11-08_00h08.19.836,vowel_harmony,2023.2.3,iPad,62.5,265.173,266.172,,,,,,,,,,,,,,,,,,,,,,,,,,266.172,266.739,m,1,0.554,,266.739,266.74,,0,43,43,122,1,123,devam,17666,802.673,16284,1.7802,5,notharmonic,1.55,word,m,,,,,,,
,,,,,,,,,,,,001,2023-11-08_00h08.19.836,vowel_harmony,2023.2.3,iPad,62.5,266.741,267.739,,,,,,,,,,,,,,,,,,,,,,,,,,267.739,268.574,m,0,0.822,,268.574,268.574,,0,44,44,226,1,227,tefem,,,,,5,harmonic,1.75,nw,z,,,,,,,
,,,,,,,,,,,,001,2023-11-08_00h08.19.836,vowel_harmony,2023.2.3,iPad,62.5,268.575,269.573,,,,,,,,,,,,,,,,,,,,,,,,,,269.573,270.157,m,1,0.566,,270.157,270.157,,0,45,45,37,1,38,hayvan,2363,107.3653,1894,0.2071,6,harmonic,1.5,word,m,,,,,,,
,,,,,,,,,,,,001,2023-11-08_00h08.19.836,vowel_harmony,2023.2.3,iPad,62.5,270.158,271.157,,,,,,,,,,,,,,,,,,,,,,,,,,271.157,271.982,m,0,0.811,,271.982,271.982,,0,46,46,314,1,315,seral,,,,,5,notharmonic,1.7,nw,z,,,,,,,
,,,,,,,,,,,,001,2023-11-08_00h08.19.836,vowel_harmony,2023.2.3,iPad,62.5,271.983,272.974,,,,,,,,,,,,,,,,,,,,,,,,,,272.974,273.491,m,1,0.505,,273.491,273.492,,0,47,47,81,1,82,üretim,1593,72.3796,1283,0.1403,6,harmonic,1.6,word,m,,,,,,,
,,,,,,,,,,,,001,2023-11-08_00h08.19.836,vowel_harmony,2023.2.3,iPad,62.5,273.492,274.492,,,,,,,,,,,,,,,,,,,,,,,,,,274.492,275.11,m,1,0.605,,275.11,275.11,,0,48,48,144,1,145,garip,2567,116.6343,2355,0.2574,5,notharmonic,1.65,word,m,,,,,,,
,,,,,,,,,,,,001,2023-11-08_00h08.19.836,vowel_harmony,2023.2.3,iPad,62.5,275.111,276.111,,,,,,,,,,,,,,,,,,,,,,,,,,276.111,277.042,m,0,0.92,,277.043,277.043,,0,49,49,279,1,280,tadde,,,,,5,notharmonic,1.8,nw,z,,,,,,,
,,,,,,,,,,,,001,2023-11-08_00h08.19.836,vowel_harmony,2023.2.3,iPad,62.5,277.043,278.043,,,,,,,,,,,,,,,,,,,,,,,,,,278.043,278.8,z,1,0.743,,278.8,278.801,,0,50,50,277,1,278,balsin,,,,,6,notharmonic,1.85,nw,z,,,,,,,
,,,,,,,,,,,,001,2023-11-08_00h08.19.836,vowel_harmony,2023.2.3,iPad,62.5,278.801,279.794,,,,,,,,,,,,,,,,,,,,,,,,,,279.794,280.894,z,1,1.085,,280.894,280.895,,0,51,51,317,1,318,mevul,,,,,5,notharmonic,1.95,nw,z,,,,,,,
,,,,,,,,,,,,001,2023-11-08_00h08.19.836,vowel_harmony,2023.2.3,iPad,62.5,280.896,281.894,,,,,,,,,,,,,,,,,,,,,,,,,,281.895,282.429,m,1,0.52,,282.429,282.429,,0,52,52,59,1,60,köpek,1044,47.4352,901,0.0985,5,harmonic,1.75,word,m,,,,,,,
,,,,,,,,,,,,001,2023-11-08_00h08.19.836,vowel_harmony,2023.2.3,iPad,62.5,282.43,283.428,,,,,,,,,,,,,,,,,,,,,,,,,,283.429,284.288,m,0,0.845,,284.288,284.288,,0,53,53,225,1,226,düvem,,,,,5,harmonic,1.7,nw,z,,,,,,,
,,,,,,,,,,,,001,2023-11-08_00h08.19.836,vowel_harmony,2023.2.3,iPad,62.5,284.289,285.279,,,,,,,,,,,,,,,,,,,,,,,,,,285.279,286.196,m,0,0.904,,286.197,286.197,,0,54,54,253,1,254,meslet,,,,,6,harmonic,1.85,nw,z,,,,,,,
,,,,,,,,,,,,001,2023-11-08_00h08.19.836,vowel_harmony,2023.2.3,iPad,62.5,286.197,287.197,,,,,,,,,,,,,,,,,,,,,,,,,,287.197,287.864,m,1,0.655,,287.864,287.865,,0,55,55,106,1,107,esnaf,315,14.3124,284,0.031,5,notharmonic,1.55,word,m,,,,,,,
,,,,,,,,,,,,001,2023-11-08_00h08.19.836,vowel_harmony,2023.2.3,iPad,62.5,287.865,288.864,,,,,,,,,,,,,,,,,,,,,,,,,,288.864,289.538,z,1,0.661,,289.538,289.539,,0,56,56,353,1,354,ikno,,,,,4,notharmonic,1.95,nw,z,,,,,,,
,,,,,,,,,,,,001,2023-11-08_00h08.19.836,vowel_harmony,2023.2.3,iPad,62.5,289.539,290.531,,,,,,,,,,,,,,,,,,,,,,,,,,290.531,291.472,z,1,0.929,,291.472,291.473,,0,57,57,217,1,218,sanfız,,,,,6,harmonic,1.85,nw,z,,,,,,,
,,,,,,,,,,,,001,2023-11-08_00h08.19.836,vowel_harmony,2023.2.3,iPad,62.5,291.473,292.465,,,,,,,,,,,,,,,,,,,,,,,,,,292.466,292.999,m,1,0.52,,292.999,292.999,,0,58,58,40,1,41,tepki,1695,77.0141,1578,0.1725,5,harmonic,1.55,word,m,,,,,,,
,,,,,,,,,,,,001,2023-11-08_00h08.19.836,vowel_harmony,2023.2.3,iPad,62.5,293,293.999,,,,,,,,,,,,,,,,,,,,,,,,,,293.999,294.491,m,1,0.479,,294.491,294.491,,0,59,59,11,1,12,umut,1988,90.3268,1818,0.1987,4,harmonic,1.55,word,m,,,,,,,
,,,,,,,,,,,,001,2023-11-08_00h08.19.836,vowel_harmony,2023.2.3,iPad,62.5,294.492,295.483,,,,,,,,,,,,,,,,,,,,,,,,,,295.483,296.391,z,1,0.894,,296.391,296.391,,0,60,60,299,1,300,fihal,,,,,5,notharmonic,1.95,nw,z,,,,,,,
,,,,,,,,,,,,001,2023-11-08_00h08.19.836,vowel_harmony,2023.2.3,iPad,62.5,296.392,297.384,,,,,,,,,,,,,,,,,,,,,,,,,,297.384,298.041,z,1,0.644,,298.042,298.042,,0,61,61,215,1,216,aydo,,,,,4,harmonic,1.9,nw,z,,,,,,,
,,,,,,,,,,,,001,2023-11-08_00h08.19.836,vowel_harmony,2023.2.3,iPad,62.5,298.043,299.035,,,,,,,,,,,,,,,,,,,,,,,,,,299.035,299.735,z,1,0.685,,299.735,299.735,,0,62,62,196,1,197,bilön,,,,,5,harmonic,1.9,nw,z,,,,,,,
,,,,,,,,,,,,001,2023-11-08_00h08.19.836,vowel_harmony,2023.2.3,iPad,62.5,299.736,300.735,,,,,,,,,,,,,,,,,,,,,,,,,,300.735,301.227,m,1,0.479,,301.227,301.227,,0,63,63,87,1,88,mümkün,6604,300.0596,6264,0.6848,6,harmonic,1.9,word,m,,,,,,,
,,,,,,,,,,,,001,2023-11-08_00h08.19.836,vowel_harmony,2023.2.3,iPad,62.5,301.228,302.219,,,,,,,,,,,,,,,,,,,,,,,,,,302.219,302.728,m,1,0.495,,302.728,302.728,,0,64,64,146,1,147,mavi,2206,100.2319,1934,0.2114,4,notharmonic,1.45,word,m,,,,,,,
,,,,,,,,,,,,001,2023-11-08_00h08.19.836,vowel_harmony,2023.2.3,iPad,62.5,302.729,303.72,,,,,,,,,,,,,,,,,,,,,,,,,,303.72,304.387,z,1,0.653,,304.387,304.387,,0,65,65,306,1,307,otet,,,,,4,notharmonic,1.95,nw,z,,,,,,,
,,,,,,,,,,,,001,2023-11-08_00h08.19.836,vowel_harmony,2023.2.3,iPad,62.5,304.388,305.387,,,,,,,,,,,,,,,,,,,,,,,,,,305.387,306.279,m,0,0.88,,306.279,306.279,,0,66,66,307,1,308,merbat,,,,,6,notharmonic,1.95,nw,z,,,,,,,
,,,,,,,,,,,,001,2023-11-08_00h08.19.836,vowel_harmony,2023.2.3,iPad,62.5,306.28,307.271,,,,,,,,,,,,,,,,,,,,,,,,,,307.271,307.996,z,1,0.711,,307.996,307.996,,0,67,67,323,1,324,devak,,,,,5,notharmonic,1.75,nw,z,,,,,,,
,,,,,,,,,,,,001,2023-11-08_00h08.19.836,vowel_harmony,2023.2.3,iPad,62.5,307.997,308.989,,,,,,,,,,,,,,,,,,,,,,,,,,308.989,309.563,m,1,0.562,,309.563,309.563,,0,68,68,33,1,34,moda,1381,62.7472,1231,0.1346,4,harmonic,1.55,word,m,,,,,,,
,,,,,,,,,,,,001,2023-11-08_00h08.19.836,vowel_harmony,2023.2.3,iPad,62.5,309.564,310.556,,,,,,,,,,,,,,,,,,,,,,,,,,310.556,311.107,m,1,0.538,,311.107,311.107,,0,69,69,46,1,47,takım,4370,198.5555,3726,0.4073,5,harmonic,1.7,word,m,,,,,,,
,,,,,,,,,,,,001,2023-11-08_00h08.19.836,vowel_harmony,2023.2.3,iPad,62.5,311.108,312.106,,,,,,,,,,,,,,,,,,,,,,,,,,312.107,312.615,m,1,0.496,,312.615,312.615,,0,70,70,118,1,119,meşhur,1092,49.6161,1057,0.1156,6,notharmonic,1.9,word,m,,,,,,,
,,,,,,,,,,,,001,2023-11-08_00h08.19.836,vowel_harmony,2023.2.3,iPad,62.5,312.616,313.607,,,,,,,,,,,,,,,,,,,,,,,,,,313.607,314.166,m,1,0.545,,314.166,314.166,,0,71,71,153,1,154,inşaat,432,19.6284,376,0.0411,6,notharmonic,1.6,word,m,,,,,,,
,,,,,,,,,,,,001,2023-11-08_00h08.19.836,vowel_harmony,2023.2.3,iPad,62.5,314.166,315.158,,,,,,,,,,,,,,,,,,,,,,,,,,315.158,316.083,m,0,0.913,,316.083,316.083,,0,72,72,308,1,309,hafer,,,,,5,notharmonic,1.85,nw,z,,,,,,,
,,,,,,,,,,,,001,2023-11-08_00h08.19.836,vowel_harmony,2023.2.3,iPad,62.5,316.084,317.075,,,,,,,,,,,,,,,,,,,,,,,,,,317.075,317.635,m,1,0.546,,317.635,317.635,,0,73,73,96,1,97,dahil,3189,144.8955,3060,0.3345,5,notharmonic,1.7,word,m,,,,,,,
,,,,,,,,,,,,001,2023-11-08_00h08.19.836,vowel_harmony,2023.2.3,iPad,62.5,317.635,318.626,,,,,,,,,,,,,,,,,,,,,,,,,,318.626,319.144,m,1,0.506,,319.144,319.144,,0,74,74,135,1,136,hafif,3355,152.4379,3101,0.339,5,notharmonic,1.75,word,m,,,,,,,
,,,,,,,,,,,,001,2023-11-08_00h08.19.836,vowel_harmony,2023.2.3,iPad,62.5,319.145,320.143,,,,,,,,,,,,,,,,,,,,,,,,,,320.143,320.81,z,1,0.654,,320.81,320.81,,0,75,75,204,1,205,gerkez,,,,,6,harmonic,1.9,nw,z,,,,,,,
,,,,,,,,,,,,001,2023-11-08_00h08.19.836,vowel_harmony,2023.2.3,iPad,62.5,320.811,321.81,,,,,,,,,,,,,,,,,,,,,,,,,,321.81,322.861,z,1,1.035,,322.861,322.861,,0,76,76,283,1,284,fahe,,,,,4,notharmonic,1.95,nw,z,,,,,,,
,,,,,,,,,,,,001,2023-11-08_00h08.19.836,vowel_harmony,2023.2.3,iPad,62.5,322.862,323.861,,,,,,,,,,,,,,,,,,,,,,,,,,323.861,324.645,z,1,0.771,,324.645,324.645,,0,77,77,203,1,204,döves,,,,,5,harmonic,1.8,nw,z,,,,,,,
,,,,,,,,,,,,001,2023-11-08_00h08.19.836,vowel_harmony,2023.2.3,iPad,62.5,324.646,325.645,,,,,,,,,,,,,,,,,,,,,,,,,,325.645,326.329,z,1,0.672,,326.329,326.329,,0,78,78,319,1,320,biho,,,,,4,notharmonic,2,nw,z,,,,,,,
,,,,,,,,,,,,001,2023-11-08_00h08.19.836,vowel_harmony,2023.2.3,iPad,62.5,326.33,327.329,,,,,,,,,,,,,,,,,,,,,,,,,,327.329,328.147,m,0,0.805,,328.147,328.147,,0,79,79,336,1,337,diyam,,,,,5,notharmonic,1.85,nw,z,,,,,,,
,,,,,,,,,,,,001,2023-11-08_00h08.19.836,vowel_harmony,2023.2.3,iPad,62.5,328.147,329.147,,,,,,,,,,,,,,,,,,,,,,,,,,329.147,329.831,m,1,0.672,,329.831,329.831,,0,80,80,107,1,108,merak,5806,263.8016,5524,0.6039,5,notharmonic,1.65,word,m,,,,,,,
,,,,,,,,,,,,001,2023-11-08_00h08.19.836,vowel_harmony,2023.2.3,iPad,62.5,329.832,330.831,,,,,,,,,,,,,,,,,,,,,,,,,,330.831,331.504,z,1,0.661,,331.504,331.504,,0,81,81,288,1,289,molit,,,,,5,notharmonic,1.95,nw,z,,,,,,,
,,,,,,,,,,,,001,2023-11-08_00h08.19.836,vowel_harmony,2023.2.3,iPad,62.5,331.505,332.498,,,,,,,,,,,,,,,,,,,,,,,,,,332.498,333.132,z,1,0.619,,333.132,333.132,,0,82,82,290,1,291,aipa,,,,,4,notharmonic,1.95,nw,z,,,,,,,
,,,,,,,,,,,,001,2023-11-08_00h08.19.836,vowel_harmony,2023.2.3,iPad,62.5,333.132,334.132,,,,,,,,,,,,,,,,,,,,,,,,,,334.132,334.7,m,0,0.556,,334.7,334.701,,0,83,83,334,1,335,işgan,,,,,5,notharmonic,1.95,nw,z,,,,,,,
,,,,,,,,,,,,001,2023-11-08_00h08.19.836,vowel_harmony,2023.2.3,iPad,62.5,334.701,335.699,,,,,,,,,,,,,,,,,,,,,,,,,,335.699,336.499,z,1,0.786,,336.5,336.5,,0,84,84,206,1,207,bevek,,,,,5,harmonic,1.75,nw,z,,,,,,,
,,,,,,,,,,,,001,2023-11-08_00h08.19.836,vowel_harmony,2023.2.3,iPad,62.5,336.5,337.5,,,,,,,,,,,,,,,,,,,,,,,,,,337.5,338.176,m,0,0.664,,338.176,338.176,,0,85,85,281,1,282,afel,,,,,4,notharmonic,1.8,nw,z,,,,,,,
,,,,,,,,,,,,001,2023-11-08_00h08.19.836,vowel_harmony,2023.2.3,iPad,62.5,338.176,339.167,,,,,,,,,,,,,,,,,,,,,,,,,,339.167,340.134,z,1,0.953,,340.135,340.135,,0,86,86,210,1,211,şevci,,,,,5,harmonic,1.75,nw,z,,,,,,,
,,,,,,,,,,,,001,2023-11-08_00h08.19.836,vowel_harmony,2023.2.3,iPad,62.5,340.135,341.135,,,,,,,,,,,,,,,,,,,,,,,,,,341.135,342.476,z,1,1.329,,342.477,342.477,,0,87,87,211,1,212,yarum,,,,,5,harmonic,1.75,nw,z,,,,,,,
,,,,,,,,,,,,001,2023-11-08_00h08.19.836,vowel_harmony,2023.2.3,iPad,62.5,342.477,343.469,,,,,,,,,,,,,,,,,,,,,,,,,,343.469,344.21,z,1,0.728,,344.21,344.21,,0,88,88,238,1,239,kocı,,,,,4,harmonic,1.95,nw,z,,,,,,,
,,,,,,,,,,,,001,2023-11-08_00h08.19.836,vowel_harmony,2023.2.3,iPad,62.5,344.211,345.203,,,,,,,,,,,,,,,,,,,,,,,,,,345.203,345.804,m,1,0.588,,345.804,345.804,,0,89,89,172,1,173,milyar,1496,67.9723,1078,0.1178,6,notharmonic,1.85,word,m,,,,,,,
,,,,,,,,,,,,001,2023-11-08_00h08.19.836,vowel_harmony,2023.2.3,iPad,62.5,345.805,346.804,,,,,,,,,,,,,,,,,,,,,,,,,,346.804,347.63,m,0,0.814,,347.63,347.63,,0,90,90,278,1,279,sekon,,,,,5,notharmonic,1.85,nw,z,,,,,,,
,,,,,,,,,,,,001,2023-11-08_00h08.19.836,vowel_harmony,2023.2.3,iPad,62.5,347.631,348.622,,,,,,,,,,,,,,,,,,,,,,,,,,348.622,349.155,m,1,0.519,,349.155,349.156,,0,91,91,145,1,146,iddia,2430,110.4096,2295,0.2509,5,notharmonic,1.85,word,m,,,,,,,
,,,,,,,,,,,,001,2023-11-08_00h08.19.836,vowel_harmony,2023.2.3,iPad,62.5,349.157,350.155,,,,,,,,,,,,,,,,,,,,,,,,,,350.155,350.878,z,1,0.71,,350.878,350.878,,0,92,92,202,1,203,güvin,,,,,5,harmonic,1.95,nw,z,,,,,,,
,,,,,,,,,,,,001,2023-11-08_00h08.19.836,vowel_harmony,2023.2.3,iPad,62.5,350.879,351.872,,,,,,,,,,,,,,,,,,,,,,,,,,351.872,352.774,m,0,0.888,,352.774,352.774,,0,93,93,312,1,313,şahmin,,,,,6,notharmonic,1.8,nw,z,,,,,,,
,,,,,,,,,,,,001,2023-11-08_00h08.19.836,vowel_harmony,2023.2.3,iPad,62.5,352.775,353.773,,,,,,,,,,,,,,,,,,,,,,,,,,353.773,354.757,z,1,0.969,,354.757,354.757,,0,94,94,209,1,210,sapor,,,,,5,harmonic,1.8,nw,z,,,,,,,
,,,,,,,,,,,,001,2023-11-08_00h08.19.836,vowel_harmony,2023.2.3,iPad,62.5,354.758,355.757,,,,,,,,,,,,,,,,,,,,,,,,,,355.757,356.474,z,1,0.703,,356.474,356.475,,0,95,95,199,1,200,movu,,,,,4,harmonic,1.9,nw,z,,,,,,,
,,,,,,,,,,,,001,2023-11-08_00h08.19.836,vowel_harmony,2023.2.3,iPad,62.5,356.476,357.475,,,,,,,,,,,,,,,,,,,,,,,,,,357.475,357.966,m,1,0.479,,357.966,357.966,,0,96,96,127,1,128,şahane,1153,52.3877,1108,0.1211,6,notharmonic,1.8,word,m,,,,,,,
,,,,,,,,,,,,001,2023-11-08_00h08.19.836,vowel_harmony,2023.2.3,iPad,62.5,357.967,358.958,,,,,,,,,,,,,,,,,,,,,,,,,,358.959,359.533,z,0,0.561,,359.533,359.533,,0,97,97,9,1,10,karar,8108,368.3954,7436,0.8129,5,harmonic,1.6,word,m,,,,,,,
,,,,,,,,,,,,001,2023-11-08_00h08.19.836,vowel_harmony,2023.2.3,iPad,62.5,359.534,360.526,,,,,,,,,,,,,,,,,,,,,,,,,,360.526,361.168,m,1,0.631,,361.168,361.168,,0,98,98,137,1,138,parti,2613,118.7244,2059,0.2251,5,notharmonic,1.8,word,m,,,,,,,
,,,,,,,,,,,,001,2023-11-08_00h08.19.836,vowel_harmony,2023.2.3,iPad,62.5,361.169,362.16,,,,,,,,,,,,,,,,,,,,,,,,,,362.16,362.703,m,1,0.529,,362.703,362.703,,0,99,99,156,1,157,medya,1784,81.0579,1495,0.1634,5,notharmonic,1.35,word,m,,,,,,,
,,,,,,,,,,,,001,2023-11-08_00h08.19.836,vowel_harmony,2023.2.3,iPad,62.5,362.704,363.694,,,,,,,,,,,,,,,,,,,,,,,,,,363.694,364.286,m,1,0.578,,364.286,364.287,,0,100,100,171,1,172,reklam,1565,71.1074,1244,0.136,6,notharmonic,1.9,word,m,,,,,,,
,,,,,,,,,,,,001,2023-11-08_00h08.19.836,vowel_harmony,2023.2.3,iPad,62.5,364.288,365.278,,,,,,,,,,,,,,,,,,,,,,,,,,365.278,365.72,m,1,0.428,,365.72,365.72,,0,101,101,128,1,129,tatil,2152,97.7783,1865,0.2039,5,notharmonic,1.7,word,m,,,,,,,
,,,,,,,,,,,,001,2023-11-08_00h08.19.836,vowel_harmony,2023.2.3,iPad,62.5,365.72,366.712,,,,,,,,,,,,,,,,,,,,,,,,,,366.712,367.662,z,1,0.935,,367.662,367.662,,0,102,102,298,1,299,yelsın,,,,,6,notharmonic,1.95,nw,z,,,,,,,
,,,,,,,,,,,,001,2023-11-08_00h08.19.836,vowel_harmony,2023.2.3,iPad,62.5,367.663,368.662,,,,,,,,,,,,,,,,,,,,,,,,,,368.663,369.586,z,1,0.91,,369.586,369.587,,0,103,103,320,1,321,finak,,,,,5,notharmonic,1.85,nw,z,,,,,,,
,,,,,,,,,,,,001,2023-11-08_00h08.19.836,vowel_harmony,2023.2.3,iPad,62.5,369.587,370.58,,,,,,,,,,,,,,,,,,,,,,,,,,370.58,371.287,z,1,0.694,,371.288,371.288,,0,104,104,266,1,267,düştön,,,,,6,harmonic,1.9,nw,z,,,,,,,
,,,,,,,,,,,,001,2023-11-08_00h08.19.836,vowel_harmony,2023.2.3,iPad,62.5,371.288,372.28,,,,,,,,,,,,,,,,,,,,,,,,,,372.28,373.304,z,1,1.011,,373.304,373.305,,0,105,105,315,1,316,takep,,,,,5,notharmonic,1.85,nw,z,,,,,,,
,,,,,,,,,,,,001,2023-11-08_00h08.19.836,vowel_harmony,2023.2.3,iPad,62.5,373.305,374.298,,,,,,,,,,,,,,,,,,,,,,,,,,374.298,374.999,z,1,0.688,,374.999,374.999,,0,106,106,328,1,329,kirul,,,,,5,notharmonic,1.95,nw,z,,,,,,,
,,,,,,,,,,,,001,2023-11-08_00h08.19.836,vowel_harmony,2023.2.3,iPad,62.5,375,375.999,,,,,,,,,,,,,,,,,,,,,,,,,,375.999,376.55,m,1,0.539,,376.55,376.551,,0,107,107,62,1,63,cümle,1911,86.8283,1765,0.193,5,harmonic,1.85,word,m,,,,,,,
,,,,,,,,,,,,001,2023-11-08_00h08.19.836,vowel_harmony,2023.2.3,iPad,62.5,376.551,377.549,,,,,,,,,,,,,,,,,,,,,,,,,,377.549,378.366,z,1,0.803,,378.366,378.366,,0,108,108,330,1,331,vahçe,,,,,5,notharmonic,1.9,nw,z,,,,,,,
,,,,,,,,,,,,001,2023-11-08_00h08.19.836,vowel_harmony,2023.2.3,iPad,62.5,378.367,379.367,,,,,,,,,,,,,,,,,,,,,,,,,,379.367,380.042,m,1,0.664,,380.042,380.042,,0,109,109,102,1,103,esas,1965,89.2818,1795,0.1962,4,notharmonic,1.75,word,m,,,,,,,
,,,,,,,,,,,,001,2023-11-08_00h08.19.836,vowel_harmony,2023.2.3,iPad,62.5,380.043,381.034,,,,,,,,,,,,,,,,,,,,,,,,,,381.034,381.768,z,1,0.72,,381.768,381.768,,0,110,110,349,1,350,harten,,,,,6,notharmonic,1.85,nw,z,,,,,,,
,,,,,,,,,,,,001,2023-11-08_00h08.19.836,vowel_harmony,2023.2.3,iPad,62.5,381.769,382.768,,,,,,,,,,,,,,,,,,,,,,,,,,382.768,383.31,m,1,0.529,,383.31,383.31,,0,111,111,173,1,174,sade,1193,54.2052,1114,0.1218,4,notharmonic,1.55,word,m,,,,,,,
,,,,,,,,,,,,001,2023-11-08_00h08.19.836,vowel_harmony,2023.2.3,iPad,62.5,383.31,384.302,,,,,,,,,,,,,,,,,,,,,,,,,,384.302,384.794,m,1,0.48,,384.794,384.795,,0,112,112,85,1,86,geçmiş,4195,190.6042,4039,0.4415,6,harmonic,1.55,word,m,,,,,,,
,,,,,,,,,,,,001,2023-11-08_00h08.19.836,vowel_harmony,2023.2.3,iPad,62.5,384.795,385.786,,,,,,,,,,,,,,,,,,,,,,,,,,385.786,386.586,z,1,0.788,,386.586,386.587,,0,113,113,241,1,242,porlam,,,,,6,harmonic,2,nw,z,,,,,,,
,,,,,,,,,,,,001,2023-11-08_00h08.19.836,vowel_harmony,2023.2.3,iPad,62.5,386.587,387.586,,,,,,,,,,,,,,,,,,,,,,,,,,387.586,388.128,m,1,0.531,,388.128,388.128,,0,114,114,93,1,94,siyah,2944,133.7637,2527,0.2763,5,notharmonic,1.6,word,m,,,,,,,
,,,,,,,,,,,,001,2023-11-08_00h08.19.836,vowel_harmony,2023.2.3,iPad,62.5,388.129,389.12,,,,,,,,,,,,,,,,,,,,,,,,,,389.121,389.647,m,1,0.514,,389.647,389.647,,0,115,115,52,1,53,resim,2506,113.8627,2188,0.2392,5,harmonic,1.4,word,m,,,,,,,
,,,,,,,,,,,,001,2023-11-08_00h08.19.836,vowel_harmony,2023.2.3,iPad,62.5,389.648,390.638,,,,,,,,,,,,,,,,,,,,,,,,,,390.638,391.264,m,1,0.613,,391.264,391.264,,0,116,116,160,1,161,hakem,603,27.3979,473,0.0517,5,notharmonic,1.3,word,m,,,,,,,
,,,,,,,,,,,,001,2023-11-08_00h08.19.836,vowel_harmony,2023.2.3,iPad,62.5,391.265,392.255,,,,,,,,,,,,,,,,,,,,,,,,,,392.255,393.089,z,1,0.82,,393.089,393.089,,0,117,117,297,1,298,sapet,,,,,5,notharmonic,1.85,nw,z,,,,,,,
,,,,,,,,,,,,001,2023-11-08_00h08.19.836,vowel_harmony,2023.2.3,iPad,62.5,393.09,394.089,,,,,,,,,,,,,,,,,,,,,,,,,,394.089,394.78,z,1,0.679,,394.78,394.78,,0,118,118,191,1,192,doab,,,,,4,harmonic,2,nw,z,,,,,,,
,,,,,,,,,,,,001,2023-11-08_00h08.19.836,vowel_harmony,2023.2.3,iPad,62.5,394.781,395.773,,,,,,,,,,,,,,,,,,,,,,,,,,395.773,396.282,m,1,0.495,,396.282,396.282,,0,119,119,140,1,141,sahil,481,21.8547,443,0.0484,5,notharmonic,1.45,word,m,,,,,,,
,,,,,,,,,,,,001,2023-11-08_00h08.19.836,vowel_harmony,2023.2.3,iPad,62.5,396.283,397.274,,,,,,,,,,,,,,,,,,,,,,,,,,397.274,397.792,m,1,0.506,,397.792,498.416,space,0,120,120,31,1,32,fazla,18293,831.1614,16694,1.825,5,harmonic,1,word,m,100.606,,,,,,
,,,,,,,,,,,,001,2023-11-08_00h08.19.836,vowel_harmony,2023.2.3,iPad,62.5,498.418,499.415,,,,,,,,,,,,,,,,,,,,,,,,,,499.415,500.223,m,1,0.793,,500.223,500.223,,0,121,121,92,1,93,sahne,1380,62.7017,1238,0.1353,5,notharmonic,1.65,word,m,,,,,,,
,,,,,,,,,,,,001,2023-11-08_00h08.19.836,vowel_harmony,2023.2.3,iPad,62.5,500.225,501.215,,,,,,,,,,,,,,,,,,,,,,,,,,501.215,501.922,z,1,0.692,,501.922,501.923,,0,122,122,267,1,268,nokuma,,,,,6,harmonic,1.75,nw,z,,,,,,,
,,,,,,,,,,,,001,2023-11-08_00h08.19.836,vowel_harmony,2023.2.3,iPad,62.5,501.924,502.916,,,,,,,,,,,,,,,,,,,,,,,,,,502.916,503.725,m,0,0.796,,503.725,503.725,,0,123,123,232,1,233,kanur,,,,,5,harmonic,1.7,nw,z,,,,,,,
,,,,,,,,,,,,001,2023-11-08_00h08.19.836,vowel_harmony,2023.2.3,iPad,62.5,503.726,504.717,,,,,,,,,,,,,,,,,,,,,,,,,,504.717,505.209,m,1,0.479,,505.209,505.209,,0,124,124,150,1,151,sabit,1046,47.5261,915,0.1,5,notharmonic,1.75,word,m,,,,,,,
,,,,,,,,,,,,001,2023-11-08_00h08.19.836,vowel_harmony,2023.2.3,iPad,62.5,505.21,506.2,,,,,,,,,,,,,,,,,,,,,,,,,,506.2,506.71,m,1,0.495,,506.71,506.71,,0,125,125,99,1,100,ilave,3173,144.1685,2619,0.2863,5,notharmonic,1.85,word,m,,,,,,,
,,,,,,,,,,,,001,2023-11-08_00h08.19.836,vowel_harmony,2023.2.3,iPad,62.5,506.711,507.701,,,,,,,,,,,,,,,,,,,,,,,,,,507.701,508.143,m,1,0.43,,508.144,508.144,,0,126,126,41,1,42,zengin,2193,99.6412,2015,0.2203,6,harmonic,1.65,word,m,,,,,,,
,,,,,,,,,,,,001,2023-11-08_00h08.19.836,vowel_harmony,2023.2.3,iPad,62.5,508.144,509.135,,,,,,,,,,,,,,,,,,,,,,,,,,509.135,509.561,m,1,0.413,,509.561,509.561,,0,127,127,18,1,19,normal,4154,188.7413,3788,0.4141,6,harmonic,1.75,word,m,,,,,,,
,,,,,,,,,,,,001,2023-11-08_00h08.19.836,vowel_harmony,2023.2.3,iPad,62.5,509.562,510.552,,,,,,,,,,,,,,,,,,,,,,,,,,510.552,510.978,m,1,0.412,,510.978,510.978,,0,128,128,78,1,79,ulusal,1551,70.4713,1355,0.1481,6,harmonic,1.75,word,m,,,,,,,
,,,,,,,,,,,,001,2023-11-08_00h08.19.836,vowel_harmony,2023.2.3,iPad,62.5,510.979,511.969,,,,,,,,,,,,,,,,,,,,,,,,,,511.969,512.855,m,0,0.872,,512.855,512.855,,0,129,129,316,1,317,misaf,,,,,5,notharmonic,1.85,nw,z,,,,,,,
,,,,,,,,,,,,001,2023-11-08_00h08.19.836,vowel_harmony,2023.2.3,iPad,62.5,512.856,513.853,,,,,,,,,,,,,,,,,,,,,,,,,,513.854,514.374,m,1,0.505,,514.374,514.374,,0,130,130,101,1,102,imza,1358,61.7021,1253,0.137,4,notharmonic,1.65,word,m,,,,,,,
,,,,,,,,,,,,001,2023-11-08_00h08.19.836,vowel_harmony,2023.2.3,iPad,62.5,514.375,515.371,,,,,,,,,,,,,,,,,,,,,,,,,,515.371,516.171,z,1,0.788,,516.171,516.171,,0,131,131,193,1,194,yokın,,,,,5,harmonic,1.85,nw,z,,,,,,,
,,,,,,,,,,,,001,2023-11-08_00h08.19.836,vowel_harmony,2023.2.3,iPad,62.5,516.172,517.171,,,,,,,,,,,,,,,,,,,,,,,,,,517.171,517.774,m,1,0.589,,517.774,517.774,,0,132,132,2,1,3,radyo,763,34.6677,636,0.0695,5,harmonic,1.85,word,m,,,,,,,
,,,,,,,,,,,,001,2023-11-08_00h08.19.836,vowel_harmony,2023.2.3,iPad,62.5,517.775,518.772,,,,,,,,,,,,,,,,,,,,,,,,,,518.772,519.445,z,1,0.661,,519.445,519.445,,0,133,133,311,1,312,dedya,,,,,5,notharmonic,1.9,nw,z,,,,,,,
,,,,,,,,,,,,001,2023-11-08_00h08.19.836,vowel_harmony,2023.2.3,iPad,62.5,519.446,520.439,,,,,,,,,,,,,,,,,,,,,,,,,,520.439,520.926,m,1,0.475,,520.926,520.926,,0,134,134,124,1,125,ilan,1579,71.7435,1499,0.1639,4,notharmonic,1,word,m,,,,,,,
,,,,,,,,,,,,001,2023-11-08_00h08.19.836,vowel_harmony,2023.2.3,iPad,62.5,520.926,521.923,,,,,,,,,,,,,,,,,,,,,,,,,,521.923,522.715,z,1,0.778,,522.715,522.716,,0,135,135,242,1,243,kahon,,,,,5,harmonic,1.85,nw,z,,,,,,,
,,,,,,,,,,,,001,2023-11-08_00h08.19.836,vowel_harmony,2023.2.3,iPad,62.5,522.717,523.708,,,,,,,,,,,,,,,,,,,,,,,,,,523.708,524.398,z,1,0.677,,524.399,524.399,,0,136,136,218,1,219,tezöl,,,,,5,harmonic,2,nw,z,,,,,,,
,,,,,,,,,,,,001,2023-11-08_00h08.19.836,vowel_harmony,2023.2.3,iPad,62.5,524.4,525.391,,,,,,,,,,,,,,,,,,,,,,,,,,525.391,526.493,m,0,1.088,,526.493,526.493,,0,137,137,219,1,220,barlum,,,,,6,harmonic,1.9,nw,z,,,,,,,
,,,,,,,,,,,,001,2023-11-08_00h08.19.836,vowel_harmony,2023.2.3,iPad,62.5,526.493,527.492,,,,,,,,,,,,,,,,,,,,,,,,,,527.492,527.952,m,1,0.446,,527.952,527.952,,0,138,138,29,1,30,huzur,1911,86.8283,1799,0.1967,5,harmonic,1.8,word,m,,,,,,,
,,,,,,,,,,,,001,2023-11-08_00h08.19.836,vowel_harmony,2023.2.3,iPad,62.5,527.953,528.943,,,,,,,,,,,,,,,,,,,,,,,,,,528.943,529.453,m,1,0.497,,529.453,529.453,,0,139,139,60,1,61,doğu,2105,95.6429,1823,0.1993,4,harmonic,1.05,word,m,,,,,,,
,,,,,,,,,,,,001,2023-11-08_00h08.19.836,vowel_harmony,2023.2.3,iPad,62.5,529.454,530.443,,,,,,,,,,,,,,,,,,,,,,,,,,530.444,531.194,z,1,0.736,,531.194,531.194,,0,140,140,208,1,209,yayram,,,,,6,harmonic,1.85,nw,z,,,,,,,
,,,,,,,,,,,,001,2023-11-08_00h08.19.836,vowel_harmony,2023.2.3,iPad,62.5,531.195,532.194,,,,,,,,,,,,,,,,,,,,,,,,,,532.194,533.611,z,1,1.403,,533.612,533.612,,0,141,141,269,1,270,vekü,,,,,4,harmonic,2,nw,z,,,,,,,
,,,,,,,,,,,,001,2023-11-08_00h08.19.836,vowel_harmony,2023.2.3,iPad,62.5,533.613,534.612,,,,,,,,,,,,,,,,,,,,,,,,,,534.612,535.104,m,1,0.478,,535.104,535.104,,0,142,142,34,1,35,hoca,1893,86.0104,1526,0.1668,4,harmonic,1.45,word,m,,,,,,,
,,,,,,,,,,,,001,2023-11-08_00h08.19.836,vowel_harmony,2023.2.3,iPad,62.5,535.105,536.096,,,,,,,,,,,,,,,,,,,,,,,,,,536.096,536.53,m,1,0.422,,536.53,536.53,,0,143,143,61,1,62,yıldız,1775,80.649,1532,0.1675,6,harmonic,1.6,word,m,,,,,,,
,,,,,,,,,,,,001,2023-11-08_00h08.19.836,vowel_harmony,2023.2.3,iPad,62.5,536.531,537.529,,,,,,,,,,,,,,,,,,,,,,,,,,537.53,537.964,m,1,0.422,,537.964,537.965,,0,144,144,77,1,78,ufak,3252,147.758,2980,0.3258,4,harmonic,1.5,word,m,,,,,,,
,,,,,,,,,,,,001,2023-11-08_00h08.19.836,vowel_harmony,2023.2.3,iPad,62.5,537.966,538.964,,,,,,,,,,,,,,,,,,,,,,,,,,538.964,539.347,m,0,0.37,,539.347,539.347,,0,145,145,351,1,352,seğlık,,,,,6,notharmonic,1.9,nw,z,,,,,,,
,,,,,,,,,,,,001,2023-11-08_00h08.19.836,vowel_harmony,2023.2.3,iPad,62.5,539.348,540.347,,,,,,,,,,,,,,,,,,,,,,,,,,540.347,541.171,z,1,0.811,,541.171,541.172,,0,146,146,273,1,274,nimal,,,,,5,notharmonic,1.9,nw,z,,,,,,,
,,,,,,,,,,,,001,2023-11-08_00h08.19.836,vowel_harmony,2023.2.3,iPad,62.5,541.173,542.165,,,,,,,,,,,,,,,,,,,,,,,,,,542.165,542.834,m,1,0.658,,542.834,542.835,,0,147,147,174,1,175,bugün,13879,630.6067,12842,1.4039,5,notharmonic,1.85,word,m,,,,,,,
,,,,,,,,,,,,001,2023-11-08_00h08.19.836,vowel_harmony,2023.2.3,iPad,62.5,542.835,543.832,,,,,,,,,,,,,,,,,,,,,,,,,,543.832,544.325,m,1,0.48,,544.325,544.325,,0,148,148,155,1,156,ilaç,1366,62.0656,1215,0.1328,4,notharmonic,1.75,word,m,,,,,,,
,,,,,,,,,,,,001,2023-11-08_00h08.19.836,vowel_harmony,2023.2.3,iPad,62.5,544.326,545.316,,,,,,,,,,,,,,,,,,,,,,,,,,545.316,545.8,m,1,0.472,,545.8,545.8,,0,149,149,22,1,23,anlam,1730,78.6043,1617,0.1768,5,harmonic,1.25,word,m,,,,,,,
,,,,,,,,,,,,001,2023-11-08_00h08.19.836,vowel_harmony,2023.2.3,iPad,62.5,545.801,546.8,,,,,,,,,,,,,,,,,,,,,,,,,,546.8,547.701,m,0,0.889,,547.701,547.701,,0,150,150,350,1,351,resun,,,,,5,notharmonic,1.85,nw,z,,,,,,,
,,,,,,,,,,,,001,2023-11-08_00h08.19.836,vowel_harmony,2023.2.3,iPad,62.5,547.702,548.701,,,,,,,,,,,,,,,,,,,,,,,,,,548.701,549.245,m,1,0.531,,549.245,549.245,,0,151,151,149,1,150,ceza,2611,118.6335,2169,0.2371,4,notharmonic,1.5,word,m,,,,,,,
,,,,,,,,,,,,001,2023-11-08_00h08.19.836,vowel_harmony,2023.2.3,iPad,62.5,549.246,550.235,,,,,,,,,,,,,,,,,,,,,,,,,,550.235,551.018,z,1,0.772,,551.018,551.019,,0,152,152,254,1,255,millek,,,,,6,harmonic,1.8,nw,z,,,,,,,
,,,,,,,,,,,,001,2023-11-08_00h08.19.836,vowel_harmony,2023.2.3,iPad,62.5,551.019,552.019,,,,,,,,,,,,,,,,,,,,,,,,,,552.019,552.604,m,1,0.573,,552.604,552.604,,0,153,153,28,1,29,parlak,1142,51.888,1088,0.1189,6,harmonic,1.7,word,m,,,,,,,
,,,,,,,,,,,,001,2023-11-08_00h08.19.836,vowel_harmony,2023.2.3,iPad,62.5,552.605,553.603,,,,,,,,,,,,,,,,,,,,,,,,,,553.603,554.629,m,0,1.015,,554.629,554.629,,0,154,154,207,1,208,örtre,,,,,5,harmonic,1.85,nw,z,,,,,,,
,,,,,,,,,,,,001,2023-11-08_00h08.19.836,vowel_harmony,2023.2.3,iPad,62.5,554.63,555.62,,,,,,,,,,,,,,,,,,,,,,,,,,555.62,556.37,z,1,0.736,,556.37,556.371,,0,155,155,186,1,187,habık,,,,,5,harmonic,1.9,nw,z,,,,,,,
,,,,,,,,,,,,001,2023-11-08_00h08.19.836,vowel_harmony,2023.2.3,iPad,62.5,556.371,557.371,,,,,,,,,,,,,,,,,,,,,,,,,,557.371,557.906,m,1,0.523,,557.906,557.906,,0,156,156,55,1,56,akıl,2208,100.3228,2004,0.2191,4,harmonic,1,word,m,,,,,,,
,,,,,,,,,,,,001,2023-11-08_00h08.19.836,vowel_harmony,2023.2.3,iPad,62.5,557.907,558.905,,,,,,,,,,,,,,,,,,,,,,,,,,558.905,560.129,z,1,1.211,,560.129,560.129,,0,157,157,224,1,225,ertre,,,,,5,harmonic,1.95,nw,z,,,,,,,
,,,,,,,,,,,,001,2023-11-08_00h08.19.836,vowel_harmony,2023.2.3,iPad,62.5,560.13,561.122,,,,,,,,,,,,,,,,,,,,,,,,,,561.122,561.565,m,1,0.431,,561.565,561.566,,0,158,158,123,1,124,haber,4559,207.1429,4151,0.4538,5,notharmonic,1.85,word,m,,,,,,,
,,,,,,,,,,,,001,2023-11-08_00h08.19.836,vowel_harmony,2023.2.3,iPad,62.5,561.566,562.556,,,,,,,,,,,,,,,,,,,,,,,,,,562.556,563.048,m,1,0.479,,563.048,563.048,,0,159,159,163,1,164,limon,1658,75.3329,1481,0.1619,5,notharmonic,1.75,word,m,,,,,,,
,,,,,,,,,,,,001,2023-11-08_00h08.19.836,vowel_harmony,2023.2.3,iPad,62.5,563.049,564.04,,,,,,,,,,,,,,,,,,,,,,,,,,564.04,564.551,m,1,0.498,,564.551,564.551,,0,160,160,68,1,69,ücret,734,33.35,634,0.0693,5,harmonic,1.85,word,m,,,,,,,
,,,,,,,,,,,,001,2023-11-08_00h08.19.836,vowel_harmony,2023.2.3,iPad,62.5,564.552,565.541,,,,,,,,,,,,,,,,,,,,,,,,,,565.541,566.231,z,1,0.677,,566.232,566.232,,0,161,161,318,1,319,yorgün,,,,,6,notharmonic,1.9,nw,z,,,,,,,
,,,,,,,,,,,,001,2023-11-08_00h08.19.836,vowel_harmony,2023.2.3,iPad,62.5,566.232,567.225,,,,,,,,,,,,,,,,,,,,,,,,,,567.225,567.744,m,1,0.507,,567.744,567.744,,0,162,162,49,1,50,şeker,4708,213.9128,4170,0.4559,5,harmonic,1.6,word,m,,,,,,,
,,,,,,,,,,,,001,2023-11-08_00h08.19.836,vowel_harmony,2023.2.3,iPad,62.5,567.745,568.742,,,,,,,,,,,,,,,,,,,,,,,,,,568.742,569.252,m,1,0.497,,569.252,569.252,,0,163,163,177,1,178,tekrar,10788,490.1639,9352,1.0224,6,notharmonic,1.85,word,m,,,,,,,
,,,,,,,,,,,,001,2023-11-08_00h08.19.836,vowel_harmony,2023.2.3,iPad,62.5,569.253,570.242,,,,,,,,,,,,,,,,,,,,,,,,,,570.243,570.818,m,1,0.563,,570.818,570.819,,0,164,164,132,1,133,modern,2326,105.6842,2031,0.222,6,notharmonic,1.85,word,m,,,,,,,
,,,,,,,,,,,,001,2023-11-08_00h08.19.836,vowel_harmony,2023.2.3,iPad,62.5,570.819,571.81,,,,,,,,,,,,,,,,,,,,,,,,,,571.81,572.401,z,1,0.578,,572.401,572.401,,0,165,165,304,1,305,annö,,,,,4,notharmonic,1.95,nw,z,,,,,,,
,,,,,,,,,,,,001,2023-11-08_00h08.19.836,vowel_harmony,2023.2.3,iPad,62.5,572.402,573.394,,,,,,,,,,,,,,,,,,,,,,,,,,573.394,573.821,m,1,0.414,,573.821,573.821,,0,166,166,103,1,104,tane,5623,255.4868,5075,0.5548,4,notharmonic,1.3,word,m,,,,,,,
,,,,,,,,,,,,001,2023-11-08_00h08.19.836,vowel_harmony,2023.2.3,iPad,62.5,573.822,574.811,,,,,,,,,,,,,,,,,,,,,,,,,,574.811,575.428,z,1,0.605,,575.428,575.428,,0,167,167,286,1,287,cedan,,,,,5,notharmonic,1.8,nw,z,,,,,,,
,,,,,,,,,,,,001,2023-11-08_00h08.19.836,vowel_harmony,2023.2.3,iPad,62.5,575.429,576.428,,,,,,,,,,,,,,,,,,,,,,,,,,576.428,577.119,z,1,0.678,,577.12,577.12,,0,168,168,331,1,332,ehun,,,,,4,notharmonic,1.95,nw,z,,,,,,,
,,,,,,,,,,,,001,2023-11-08_00h08.19.836,vowel_harmony,2023.2.3,iPad,62.5,577.121,578.112,,,,,,,,,,,,,,,,,,,,,,,,,,578.112,578.819,z,1,0.694,,578.82,578.82,,0,169,169,354,1,355,taden,,,,,5,notharmonic,1.7,nw,z,,,,,,,
,,,,,,,,,,,,001,2023-11-08_00h08.19.836,vowel_harmony,2023.2.3,iPad,62.5,578.82,579.813,,,,,,,,,,,,,,,,,,,,,,,,,,579.813,580.847,z,1,1.02,,580.847,580.847,,0,170,170,322,1,323,normin,,,,,6,notharmonic,1.95,nw,z,,,,,,,
,,,,,,,,,,,,001,2023-11-08_00h08.19.836,vowel_harmony,2023.2.3,iPad,62.5,580.848,581.847,,,,,,,,,,,,,,,,,,,,,,,,,,581.847,582.621,z,1,0.762,,582.621,582.621,,0,171,171,221,1,222,yaypın,,,,,6,harmonic,1.75,nw,z,,,,,,,
,,,,,,,,,,,,001,2023-11-08_00h08.19.836,vowel_harmony,2023.2.3,iPad,62.5,582.622,583.614,,,,,,,,,,,,,,,,,,,,,,,,,,583.614,584.251,m,1,0.624,,584.251,584.251,,0,172,172,88,1,89,yalnız,5891,267.6637,5440,0.5947,6,harmonic,1.6,word,m,,,,,,,
,,,,,,,,,,,,001,2023-11-08_00h08.19.836,vowel_harmony,2023.2.3,iPad,62.5,584.251,585.248,,,,,,,,,,,,,,,,,,,,,,,,,,585.249,586.026,m,0,0.765,,586.026,586.026,,0,173,173,271,1,272,mimal,,,,,5,notharmonic,1.8,nw,z,,,,,,,
,,,,,,,,,,,,001,2023-11-08_00h08.19.836,vowel_harmony,2023.2.3,iPad,62.5,586.027,587.016,,,,,,,,,,,,,,,,,,,,,,,,,,587.016,587.62,m,1,0.59,,587.62,587.62,,0,174,174,105,1,106,sahip,10887,494.6621,9847,1.0765,5,notharmonic,1.25,word,m,,,,,,,
,,,,,,,,,,,,001,2023-11-08_00h08.19.836,vowel_harmony,2023.2.3,iPad,62.5,587.62,588.616,,,,,,,,,,,,,,,,,,,,,,,,,,588.616,589.277,m,1,0.646,,589.277,589.278,,0,175,175,38,1,39,dönem,2820,128.1296,2437,0.2664,5,harmonic,1.4,word,m,,,,,,,
,,,,,,,,,,,,001,2023-11-08_00h08.19.836,vowel_harmony,2023.2.3,iPad,62.5,589.279,590.268,,,,,,,,,,,,,,,,,,,,,,,,,,590.268,590.769,m,1,0.488,,590.769,590.77,,0,176,176,164,1,165,sinema,1575,71.5618,1304,0.1426,6,notharmonic,1.8,word,m,,,,,,,
,,,,,,,,,,,,001,2023-11-08_00h08.19.836,vowel_harmony,2023.2.3,iPad,62.5,590.771,591.768,,,,,,,,,,,,,,,,,,,,,,,,,,591.768,592.27,m,0,0.488,,592.27,592.27,,0,177,177,275,1,276,tahçe,,,,,5,notharmonic,1.95,nw,z,,,,,,,
,,,,,,,,,,,,001,2023-11-08_00h08.19.836,vowel_harmony,2023.2.3,iPad,62.5,592.271,593.268,,,,,,,,,,,,,,,,,,,,,,,,,,593.268,593.905,m,1,0.624,,593.905,593.906,,0,178,178,142,1,143,siyasi,2909,132.1734,2445,0.2673,6,notharmonic,1.8,word,m,,,,,,,
,,,,,,,,,,,,001,2023-11-08_00h08.19.836,vowel_harmony,2023.2.3,iPad,62.5,593.906,594.902,,,,,,,,,,,,,,,,,,,,,,,,,,594.902,595.479,m,1,0.563,,595.479,595.479,,0,179,179,130,1,131,hamile,1075,48.8437,877,0.0959,6,notharmonic,1.5,word,m,,,,,,,
,,,,,,,,,,,,001,2023-11-08_00h08.19.836,vowel_harmony,2023.2.3,iPad,62.5,595.48,596.47,,,,,,,,,,,,,,,,,,,,,,,,,,596.47,597.376,z,1,0.893,,597.376,597.376,,0,180,180,358,1,359,yangin,,,,,6,notharmonic,1.9,nw,z,,,,,,,
,,,,,,,,,,,,001,2023-11-08_00h08.19.836,vowel_harmony,2023.2.3,iPad,62.5,597.377,598.37,,,,,,,,,,,,,,,,,,,,,,,,,,598.37,598.855,m,1,0.472,,598.855,598.855,,0,181,181,84,1,85,ülke,3121,141.8059,2801,0.3062,4,harmonic,1.65,word,m,,,,,,,
,,,,,,,,,,,,001,2023-11-08_00h08.19.836,vowel_harmony,2023.2.3,iPad,62.5,598.856,599.854,,,,,,,,,,,,,,,,,,,,,,,,,,599.854,600.579,z,1,0.711,,600.579,600.579,,0,182,182,352,1,353,yılden,,,,,6,notharmonic,1.8,nw,z,,,,,,,
,,,,,,,,,,,,001,2023-11-08_00h08.19.836,vowel_harmony,2023.2.3,iPad,62.5,600.58,601.572,,,,,,,,,,,,,,,,,,,,,,,,,,601.572,602.833,m,0,1.249,,602.833,602.833,,0,183,183,228,1,229,haytam,,,,,6,harmonic,1.75,nw,z,,,,,,,
,,,,,,,,,,,,001,2023-11-08_00h08.19.836,vowel_harmony,2023.2.3,iPad,62.5,602.834,603.822,,,,,,,,,,,,,,,,,,,,,,,,,,603.823,604.333,m,1,0.498,,604.333,604.334,,0,184,184,73,1,74,millet,1658,75.3329,1508,0.1649,6,harmonic,1.7,word,m,,,,,,,
,,,,,,,,,,,,001,2023-11-08_00h08.19.836,vowel_harmony,2023.2.3,iPad,62.5,604.335,605.323,,,,,,,,,,,,,,,,,,,,,,,,,,605.324,605.998,z,1,0.66,,605.998,605.998,,0,185,185,184,1,185,yapor,,,,,5,harmonic,1.9,nw,z,,,,,,,
,,,,,,,,,,,,001,2023-11-08_00h08.19.836,vowel_harmony,2023.2.3,iPad,62.5,605.999,606.99,,,,,,,,,,,,,,,,,,,,,,,,,,606.99,607.691,z,1,0.685,,607.691,607.691,,0,186,186,200,1,201,duşın,,,,,5,harmonic,1.9,nw,z,,,,,,,
,,,,,,,,,,,,001,2023-11-08_00h08.19.836,vowel_harmony,2023.2.3,iPad,62.5,607.691,608.691,,,,,,,,,,,,,,,,,,,,,,,,,,608.691,609.932,z,1,1.228,,609.932,609.932,,0,187,187,248,1,249,şegim,,,,,5,harmonic,1.9,nw,z,,,,,,,
,,,,,,,,,,,,001,2023-11-08_00h08.19.836,vowel_harmony,2023.2.3,iPad,62.5,609.933,610.925,,,,,,,,,,,,,,,,,,,,,,,,,,610.925,611.633,z,1,0.695,,611.633,611.634,,0,188,188,190,1,191,reklen,,,,,6,harmonic,1.8,nw,z,,,,,,,
,,,,,,,,,,,,001,2023-11-08_00h08.19.836,vowel_harmony,2023.2.3,iPad,62.5,611.634,612.626,,,,,,,,,,,,,,,,,,,,,,,,,,612.626,613.252,m,1,0.613,,613.252,613.253,,0,189,189,4,1,5,metre,1156,52.5241,1015,0.111,5,harmonic,1.7,word,m,,,,,,,
,,,,,,,,,,,,001,2023-11-08_00h08.19.836,vowel_harmony,2023.2.3,iPad,62.5,613.253,614.243,,,,,,,,,,,,,,,,,,,,,,,,,,614.243,614.883,z,1,0.627,,614.884,614.884,,0,190,190,310,1,311,yandeş,,,,,6,notharmonic,1.95,nw,z,,,,,,,
,,,,,,,,,,,,001,2023-11-08_00h08.19.836,vowel_harmony,2023.2.3,iPad,62.5,614.885,615.877,,,,,,,,,,,,,,,,,,,,,,,,,,615.877,616.594,z,1,0.702,,616.594,616.594,,0,191,191,325,1,326,garit,,,,,5,notharmonic,1.85,nw,z,,,,,,,
,,,,,,,,,,,,001,2023-11-08_00h08.19.836,vowel_harmony,2023.2.3,iPad,62.5,616.595,617.595,,,,,,,,,,,,,,,,,,,,,,,,,,617.595,618.228,z,1,0.62,,618.228,618.228,,0,192,192,205,1,206,kahay,,,,,5,harmonic,1.9,nw,z,,,,,,,
,,,,,,,,,,,,001,2023-11-08_00h08.19.836,vowel_harmony,2023.2.3,iPad,62.5,618.229,619.229,,,,,,,,,,,,,,,,,,,,,,,,,,619.229,619.83,m,1,0.589,,619.83,619.83,,0,193,193,147,1,148,işaret,1888,85.7832,1787,0.1954,6,notharmonic,1,word,m,,,,,,,
,,,,,,,,,,,,001,2023-11-08_00h08.19.836,vowel_harmony,2023.2.3,iPad,62.5,619.831,620.829,,,,,,,,,,,,,,,,,,,,,,,,,,620.829,621.374,m,1,0.531,,621.374,621.374,,0,194,194,141,1,142,madde,3793,172.3389,3389,0.3705,5,notharmonic,1.7,word,m,,,,,,,
,,,,,,,,,,,,001,2023-11-08_00h08.19.836,vowel_harmony,2023.2.3,iPad,62.5,621.375,622.363,,,,,,,,,,,,,,,,,,,,,,,,,,622.363,622.98,z,1,0.602,,622.98,622.98,,0,195,195,183,1,184,orkın,,,,,5,harmonic,1.9,nw,z,,,,,,,
,,,,,,,,,,,,001,2023-11-08_00h08.19.836,vowel_harmony,2023.2.3,iPad,62.5,622.981,623.98,,,,,,,,,,,,,,,,,,,,,,,,,,623.98,624.655,z,1,0.661,,624.655,624.655,,0,196,196,258,1,259,karıha,,,,,6,harmonic,1.75,nw,z,,,,,,,
,,,,,,,,,,,,001,2023-11-08_00h08.19.836,vowel_harmony,2023.2.3,iPad,62.5,624.655,625.648,,,,,,,,,,,,,,,,,,,,,,,,,,625.648,626.238,z,1,0.578,,626.239,626.239,,0,197,197,197,1,198,ranar,,,,,5,harmonic,1.75,nw,z,,,,,,,
,,,,,,,,,,,,001,2023-11-08_00h08.19.836,vowel_harmony,2023.2.3,iPad,62.5,626.239,627.232,,,,,,,,,,,,,,,,,,,,,,,,,,627.232,627.81,m,1,0.567,,627.81,627.81,,0,198,198,5,1,6,bebek,3301,149.9843,2794,0.3054,5,harmonic,1.6,word,m,,,,,,,
,,,,,,,,,,,,001,2023-11-08_00h08.19.836,vowel_harmony,2023.2.3,iPad,62.5,627.811,628.799,,,,,,,,,,,,,,,,,,,,,,,,,,628.799,629.483,z,1,0.67,,629.483,629.483,,0,199,199,231,1,232,norgun,,,,,6,harmonic,1.75,nw,z,,,,,,,
,,,,,,,,,,,,001,2023-11-08_00h08.19.836,vowel_harmony,2023.2.3,iPad,62.5,629.483,630.483,,,,,,,,,,,,,,,,,,,,,,,,,,630.483,631.524,z,1,1.028,,631.524,631.524,,0,200,200,230,1,231,bikir,,,,,5,harmonic,1.75,nw,z,,,,,,,
,,,,,,,,,,,,001,2023-11-08_00h08.19.836,vowel_harmony,2023.2.3,iPad,62.5,631.524,632.517,,,,,,,,,,,,,,,,,,,,,,,,,,632.517,633.102,m,1,0.573,,633.102,633.102,,0,201,201,176,1,177,harika,4682,212.7315,4422,0.4834,6,notharmonic,1.9,word,m,,,,,,,
,,,,,,,,,,,,001,2023-11-08_00h08.19.836,vowel_harmony,2023.2.3,iPad,62.5,633.103,634.101,,,,,,,,,,,,,,,,,,,,,,,,,,634.101,634.825,z,1,0.71,,634.825,634.825,,0,202,202,261,1,262,kardok,,,,,6,harmonic,1.95,nw,z,,,,,,,
,,,,,,,,,,,,001,2023-11-08_00h08.19.836,vowel_harmony,2023.2.3,iPad,62.5,634.826,635.818,,,,,,,,,,,,,,,,,,,,,,,,,,635.819,636.338,m,1,0.506,,636.338,636.338,,0,203,203,24,1,25,yorgun,1153,52.3877,1108,0.1211,6,harmonic,1.55,word,m,,,,,,,
,,,,,,,,,,,,001,2023-11-08_00h08.19.836,vowel_harmony,2023.2.3,iPad,62.5,636.339,637.336,,,,,,,,,,,,,,,,,,,,,,,,,,637.336,637.913,m,1,0.563,,637.913,637.913,,0,204,204,113,1,114,model,1200,54.5232,1082,0.1183,5,notharmonic,1.75,word,m,,,,,,,
,,,,,,,,,,,,001,2023-11-08_00h08.19.836,vowel_harmony,2023.2.3,iPad,62.5,637.913,638.903,,,,,,,,,,,,,,,,,,,,,,,,,,638.903,639.44,m,1,0.525,,639.44,639.44,,0,205,205,63,1,64,sultan,1756,79.7857,1368,0.1496,6,harmonic,1.55,word,m,,,,,,,
,,,,,,,,,,,,001,2023-11-08_00h08.19.836,vowel_harmony,2023.2.3,iPad,62.5,639.44,640.437,,,,,,,,,,,,,,,,,,,,,,,,,,640.437,641.057,m,1,0.608,,641.057,641.057,,0,206,206,82,1,83,aday,1028,46.7082,873,0.0954,4,harmonic,1.45,word,m,,,,,,,
,,,,,,,,,,,,001,2023-11-08_00h08.19.836,vowel_harmony,2023.2.3,iPad,62.5,641.058,642.054,,,,,,,,,,,,,,,,,,,,,,,,,,642.054,642.638,z,1,0.57,,642.638,642.638,,0,207,207,222,1,223,gelü,,,,,4,harmonic,1.75,nw,z,,,,,,,
,,,,,,,,,,,,001,2023-11-08_00h08.19.836,vowel_harmony,2023.2.3,iPad,62.5,642.639,643.638,,,,,,,,,,,,,,,,,,,,,,,,,,643.638,644.225,m,1,0.574,,644.226,644.226,,0,208,208,64,1,65,lise,888,40.3472,816,0.0892,4,harmonic,1.5,word,m,,,,,,,
,,,,,,,,,,,,001,2023-11-08_00h08.19.836,vowel_harmony,2023.2.3,iPad,62.5,644.226,645.222,,,,,,,,,,,,,,,,,,,,,,,,,,645.222,645.779,z,1,0.544,,645.779,645.779,,0,209,209,257,1,258,zerü,,,,,4,harmonic,1.8,nw,z,,,,,,,
,,,,,,,,,,,,001,2023-11-08_00h08.19.836,vowel_harmony,2023.2.3,iPad,62.5,645.78,646.773,,,,,,,,,,,,,,,,,,,,,,,,,,646.773,647.423,z,1,0.636,,647.423,647.423,,0,210,210,291,1,292,mepan,,,,,5,notharmonic,1.75,nw,z,,,,,,,
,,,,,,,,,,,,001,2023-11-08_00h08.19.836,vowel_harmony,2023.2.3,iPad,62.5,647.424,648.424,,,,,,,,,,,,,,,,,,,,,,,,,,648.424,649.097,z,1,0.663,,649.097,649.097,,0,211,211,355,1,356,adül,,,,,4,notharmonic,1.85,nw,z,,,,,,,
,,,,,,,,,,,,001,2023-11-08_00h08.19.836,vowel_harmony,2023.2.3,iPad,62.5,649.097,650.091,,,,,,,,,,,,,,,,,,,,,,,,,,650.091,650.765,z,1,0.661,,650.765,650.765,,0,212,212,236,1,237,toklam,,,,,6,harmonic,1.85,nw,z,,,,,,,
,,,,,,,,,,,,001,2023-11-08_00h08.19.836,vowel_harmony,2023.2.3,iPad,62.5,650.766,651.758,,,,,,,,,,,,,,,,,,,,,,,,,,651.758,652.398,z,1,0.628,,652.398,652.399,,0,213,213,301,1,302,mezak,,,,,5,notharmonic,1.8,nw,z,,,,,,,
,,,,,,,,,,,,001,2023-11-08_00h08.19.836,vowel_harmony,2023.2.3,iPad,62.5,652.4,653.393,,,,,,,,,,,,,,,,,,,,,,,,,,653.393,653.979,m,1,0.571,,653.979,653.979,,0,214,214,166,1,167,maden,402,18.2653,339,0.0371,5,notharmonic,1.45,word,m,,,,,,,
,,,,,,,,,,,,001,2023-11-08_00h08.19.836,vowel_harmony,2023.2.3,iPad,62.5,653.981,654.976,,,,,,,,,,,,,,,,,,,,,,,,,,654.976,655.517,z,1,0.527,,655.517,655.517,,0,215,215,342,1,343,kulön,,,,,5,notharmonic,1.9,nw,z,,,,,,,
,,,,,,,,,,,,001,2023-11-08_00h08.19.836,vowel_harmony,2023.2.3,iPad,62.5,655.519,656.51,,,,,,,,,,,,,,,,,,,,,,,,,,656.51,657.029,m,1,0.506,,657.029,657.029,,0,216,216,1,1,2,erkek,6188,281.1582,5195,0.5679,5,harmonic,1.65,word,m,,,,,,,
,,,,,,,,,,,,001,2023-11-08_00h08.19.836,vowel_harmony,2023.2.3,iPad,62.5,657.03,658.027,,,,,,,,,,,,,,,,,,,,,,,,,,658.028,658.851,z,1,0.81,,658.851,658.851,,0,217,217,300,1,301,nilgi,,,,,5,notharmonic,1.85,nw,z,,,,,,,
,,,,,,,,,,,,001,2023-11-08_00h08.19.836,vowel_harmony,2023.2.3,iPad,62.5,658.852,659.845,,,,,,,,,,,,,,,,,,,,,,,,,,659.845,660.415,m,1,0.558,,660.415,660.415,,0,218,218,120,1,121,ihmal,1002,45.5269,977,0.1068,5,notharmonic,1.65,word,m,,,,,,,
,,,,,,,,,,,,001,2023-11-08_00h08.19.836,vowel_harmony,2023.2.3,iPad,62.5,660.416,661.412,,,,,,,,,,,,,,,,,,,,,,,,,,661.412,662.38,z,1,0.955,,662.38,662.38,,0,219,219,252,1,253,anlgı,,,,,5,harmonic,1.9,nw,z,,,,,,,
,,,,,,,,,,,,001,2023-11-08_00h08.19.836,vowel_harmony,2023.2.3,iPad,62.5,662.381,663.379,,,,,,,,,,,,,,,,,,,,,,,,,,663.38,664.05,z,1,0.654,,664.05,664.05,,0,220,220,251,1,252,oştay,,,,,5,harmonic,1.95,nw,z,,,,,,,
,,,,,,,,,,,,001,2023-11-08_00h08.19.836,vowel_harmony,2023.2.3,iPad,62.5,664.051,665.047,,,,,,,,,,,,,,,,,,,,,,,,,,665.047,665.884,m,1,0.823,,665.884,665.884,,0,221,221,54,1,55,yedek,825,37.4847,732,0.08,5,harmonic,1.65,word,m,,,,,,,
,,,,,,,,,,,,001,2023-11-08_00h08.19.836,vowel_harmony,2023.2.3,iPad,62.5,665.885,666.881,,,,,,,,,,,,,,,,,,,,,,,,,,666.881,667.571,z,1,0.678,,667.571,667.572,,0,222,222,280,1,281,adalek,,,,,6,notharmonic,1.85,nw,z,,,,,,,
,,,,,,,,,,,,001,2023-11-08_00h08.19.836,vowel_harmony,2023.2.3,iPad,62.5,667.573,668.565,,,,,,,,,,,,,,,,,,,,,,,,,,668.565,669.077,m,1,0.497,,669.077,669.077,,0,223,223,13,1,14,nokta,2085,94.7341,1939,0.212,5,harmonic,1.5,word,m,,,,,,,
,,,,,,,,,,,,001,2023-11-08_00h08.19.836,vowel_harmony,2023.2.3,iPad,62.5,669.079,670.082,,,,,,,,,,,,,,,,,,,,,,,,,,670.082,670.777,m,1,0.681,,670.777,670.777,,0,224,224,148,1,149,selam,1868,84.8745,1764,0.1928,5,notharmonic,1.35,word,m,,,,,,,
,,,,,,,,,,,,001,2023-11-08_00h08.19.836,vowel_harmony,2023.2.3,iPad,62.5,670.778,671.766,,,,,,,,,,,,,,,,,,,,,,,,,,671.766,672.403,m,1,0.625,,672.403,672.403,,0,225,225,114,1,115,nisan,2321,105.457,2044,0.2235,5,notharmonic,1.6,word,m,,,,,,,
,,,,,,,,,,,,001,2023-11-08_00h08.19.836,vowel_harmony,2023.2.3,iPad,62.5,672.403,673.4,,,,,,,,,,,,,,,,,,,,,,,,,,673.4,673.878,m,1,0.465,,673.878,673.878,,0,226,226,25,1,26,rapor,703,31.9415,617,0.0675,5,harmonic,1.8,word,m,,,,,,,
,,,,,,,,,,,,001,2023-11-08_00h08.19.836,vowel_harmony,2023.2.3,iPad,62.5,673.879,674.867,,,,,,,,,,,,,,,,,,,,,,,,,,674.867,675.591,z,1,0.712,,675.591,675.591,,0,227,227,340,1,341,minya,,,,,5,notharmonic,1.95,nw,z,,,,,,,
,,,,,,,,,,,,001,2023-11-08_00h08.19.836,vowel_harmony,2023.2.3,iPad,62.5,675.592,676.585,,,,,,,,,,,,,,,,,,,,,,,,,,676.585,677.104,m,1,0.508,,677.104,677.105,,0,228,228,12,1,13,konu,5400,245.3546,5110,0.5586,4,harmonic,1,word,m,,,,,,,
,,,,,,,,,,,,001,2023-11-08_00h08.19.836,vowel_harmony,2023.2.3,iPad,62.5,677.105,678.102,,,,,,,,,,,,,,,,,,,,,,,,,,678.102,678.613,m,1,0.498,,678.613,678.614,,0,229,229,45,1,46,bilgi,5981,271.7529,5353,0.5852,5,harmonic,1.5,word,m,,,,,,,
,,,,,,,,,,,,001,2023-11-08_00h08.19.836,vowel_harmony,2023.2.3,iPad,62.5,678.614,679.603,,,,,,,,,,,,,,,,,,,,,,,,,,679.603,680.197,m,1,0.582,,680.197,680.198,,0,230,230,90,1,91,tarif,2834,128.7657,2611,0.2854,5,notharmonic,1.5,word,m,,,,,,,
,,,,,,,,,,,,001,2023-11-08_00h08.19.836,vowel_harmony,2023.2.3,iPad,62.5,680.198,681.187,,,,,,,,,,,,,,,,,,,,,,,,,,681.187,681.647,m,1,0.449,,681.647,681.648,,0,231,231,136,1,137,beyaz,5517,250.6706,4788,0.5234,5,notharmonic,1.85,word,m,,,,,,,
,,,,,,,,,,,,001,2023-11-08_00h08.19.836,vowel_harmony,2023.2.3,iPad,62.5,681.648,682.637,,,,,,,,,,,,,,,,,,,,,,,,,,682.637,683.098,m,1,0.449,,683.098,683.098,,0,232,232,98,1,99,paket,1532,69.608,1392,0.1522,5,notharmonic,1.55,word,m,,,,,,,
,,,,,,,,,,,,001,2023-11-08_00h08.19.836,vowel_harmony,2023.2.3,iPad,62.5,683.099,684.088,,,,,,,,,,,,,,,,,,,,,,,,,,684.088,684.523,m,1,0.423,,684.523,684.523,,0,233,233,0,1,1,sanat,3121,141.8059,2485,0.2717,5,harmonic,1.4,word,m,,,,,,,
,,,,,,,,,,,,001,2023-11-08_00h08.19.836,vowel_harmony,2023.2.3,iPad,62.5,684.524,685.522,,,,,,,,,,,,,,,,,,,,,,,,,,685.522,686.091,m,1,0.556,,686.091,686.091,,0,234,234,125,1,126,ikna,1276,57.9764,1173,0.1282,4,notharmonic,1.85,word,m,,,,,,,
,,,,,,,,,,,,001,2023-11-08_00h08.19.836,vowel_harmony,2023.2.3,iPad,62.5,686.091,687.089,,,,,,,,,,,,,,,,,,,,,,,,,,687.089,687.74,z,1,0.638,,687.74,687.74,,0,235,235,255,1,256,yokın,,,,,5,harmonic,1.85,nw,z,,,,,,,
,,,,,,,,,,,,001,2023-11-08_00h08.19.836,vowel_harmony,2023.2.3,iPad,62.5,687.741,688.74,,,,,,,,,,,,,,,,,,,,,,,,,,688.74,689.397,z,1,0.645,,689.397,689.397,,0,236,236,337,1,338,bakem,,,,,5,notharmonic,1.7,nw,z,,,,,,,
,,,,,,,,,,,,001,2023-11-08_00h08.19.836,vowel_harmony,2023.2.3,iPad,62.5,689.398,690.39,,,,,,,,,,,,,,,,,,,,,,,,,,690.39,690.934,m,1,0.532,,690.934,690.935,,0,237,237,151,1,152,ateş,2108,95.7792,1803,0.1971,4,notharmonic,1.65,word,m,,,,,,,
,,,,,,,,,,,,001,2023-11-08_00h08.19.836,vowel_harmony,2023.2.3,iPad,62.5,690.935,691.924,,,,,,,,,,,,,,,,,,,,,,,,,,691.924,692.486,m,1,0.55,,692.486,692.486,,0,238,238,116,1,117,daire,621,28.2158,503,0.055,5,notharmonic,1,word,m,,,,,,,
,,,,,,,,,,,,001,2023-11-08_00h08.19.836,vowel_harmony,2023.2.3,iPad,62.5,692.487,693.475,,,,,,,,,,,,,,,,,,,,,,,,,,693.475,693.943,m,1,0.457,,693.944,693.944,,0,239,239,104,1,105,cevap,5232,237.7213,4822,0.5271,5,notharmonic,1.85,word,m,,,,,,,
,,,,,,,,,,,,001,2023-11-08_00h08.19.836,vowel_harmony,2023.2.3,iPad,62.5,693.944,694.942,,,,,,,,,,,,,,,,,,,,,,,,,,694.942,695.529,m,1,0.572,,695.529,697.081,space,0,240,240,109,1,110,milyon,3936,178.8362,2958,0.3234,6,notharmonic,1.75,word,m,1.545,,,,,,
,,,,,,,,,,,,001,2023-11-08_00h08.19.836,vowel_harmony,2023.2.3,iPad,62.5,697.082,698.077,,,,,,,,,,,,,,,,,,,,,,,,,,698.077,698.86,z,1,0.769,,698.86,698.86,,0,241,241,268,1,269,haldum,,,,,6,harmonic,2,nw,z,,,,,,,
,,,,,,,,,,,,001,2023-11-08_00h08.19.836,vowel_harmony,2023.2.3,iPad,62.5,698.861,699.861,,,,,,,,,,,,,,,,,,,,,,,,,,699.861,700.373,m,1,0.498,,700.373,700.373,,0,242,242,10,1,11,bardak,1728,78.5135,1569,0.1715,6,harmonic,1.6,word,m,,,,,,,
,,,,,,,,,,,,001,2023-11-08_00h08.19.836,vowel_harmony,2023.2.3,iPad,62.5,700.374,701.378,,,,,,,,,,,,,,,,,,,,,,,,,,701.378,701.874,m,1,0.484,,701.874,701.874,,0,243,243,138,1,139,kardeş,1270,57.7038,1174,0.1283,6,notharmonic,1.9,word,m,,,,,,,
,,,,,,,,,,,,001,2023-11-08_00h08.19.836,vowel_harmony,2023.2.3,iPad,62.5,701.875,702.878,,,,,,,,,,,,,,,,,,,,,,,,,,702.879,703.348,m,1,0.457,,703.348,703.348,,0,244,244,168,1,169,kilo,3389,153.9827,2646,0.2893,4,notharmonic,1.65,word,m,,,,,,,
,,,,,,,,,,,,001,2023-11-08_00h08.19.836,vowel_harmony,2023.2.3,iPad,62.5,703.349,704.346,,,,,,,,,,,,,,,,,,,,,,,,,,704.346,704.734,m,0,0.375,,704.734,704.734,,0,245,245,285,1,286,iklon,,,,,5,notharmonic,1.85,nw,z,,,,,,,
,,,,,,,,,,,,001,2023-11-08_00h08.19.836,vowel_harmony,2023.2.3,iPad,62.5,704.734,705.73,,,,,,,,,,,,,,,,,,,,,,,,,,705.73,706.547,z,1,0.805,,706.547,706.547,,0,246,246,359,1,360,kardez,,,,,6,notharmonic,1.95,nw,z,,,,,,,
,,,,,,,,,,,,001,2023-11-08_00h08.19.836,vowel_harmony,2023.2.3,iPad,62.5,706.548,707.547,,,,,,,,,,,,,,,,,,,,,,,,,,707.547,708.067,m,1,0.507,,708.067,708.067,,0,247,247,32,1,33,temel,4231,192.2399,3851,0.421,5,harmonic,1.55,word,m,,,,,,,
,,,,,,,,,,,,001,2023-11-08_00h08.19.836,vowel_harmony,2023.2.3,iPad,62.5,708.067,709.064,,,,,,,,,,,,,,,,,,,,,,,,,,709.064,709.625,m,1,0.548,,709.625,709.625,,0,248,248,134,1,135,iptal,793,36.0308,725,0.0793,5,notharmonic,1.35,word,m,,,,,,,
,,,,,,,,,,,,001,2023-11-08_00h08.19.836,vowel_harmony,2023.2.3,iPad,62.5,709.626,710.615,,,,,,,,,,,,,,,,,,,,,,,,,,710.615,711.068,m,1,0.44,,711.068,711.068,,0,249,249,94,1,95,final,876,39.802,778,0.0851,5,notharmonic,1,word,m,,,,,,,
,,,,,,,,,,,,001,2023-11-08_00h08.19.836,vowel_harmony,2023.2.3,iPad,62.5,711.068,712.065,,,,,,,,,,,,,,,,,,,,,,,,,,712.065,712.492,m,1,0.414,,712.492,712.492,,0,250,250,143,1,144,kitap,8359,379.7998,6786,0.7418,5,notharmonic,1.9,word,m,,,,,,,
,,,,,,,,,,,,001,2023-11-08_00h08.19.836,vowel_harmony,2023.2.3,iPad,62.5,712.493,713.483,,,,,,,,,,,,,,,,,,,,,,,,,,713.483,714.216,z,1,0.722,,714.216,714.217,,0,251,251,276,1,277,iptap,,,,,5,notharmonic,1.95,nw,z,,,,,,,
,,,,,,,,,,,,001,2023-11-08_00h08.19.836,vowel_harmony,2023.2.3,iPad,62.5,714.217,715.217,,,,,,,,,,,,,,,,,,,,,,,,,,715.217,715.737,m,1,0.507,,715.737,715.737,,0,252,252,16,1,17,yavaş,5087,231.1331,2886,0.3155,5,harmonic,1.6,word,m,,,,,,,
,,,,,,,,,,,,001,2023-11-08_00h08.19.836,vowel_harmony,2023.2.3,iPad,62.5,715.738,716.734,,,,,,,,,,,,,,,,,,,,,,,,,,716.734,717.351,z,1,0.601,,717.351,717.351,,0,253,253,237,1,238,taşal,,,,,5,harmonic,1.8,nw,z,,,,,,,
,,,,,,,,,,,,001,2023-11-08_00h08.19.836,vowel_harmony,2023.2.3,iPad,62.5,717.352,718.351,,,,,,,,,,,,,,,,,,,,,,,,,,718.352,718.889,m,1,0.525,,718.889,718.889,,0,254,254,53,1,54,gelir,7578,344.3143,7014,0.7668,5,harmonic,1.4,word,m,,,,,,,
,,,,,,,,,,,,001,2023-11-08_00h08.19.836,vowel_harmony,2023.2.3,iPad,62.5,718.89,719.885,,,,,,,,,,,,,,,,,,,,,,,,,,719.885,720.575,z,1,0.676,,720.575,720.575,,0,255,255,270,1,271,miyaj,,,,,5,notharmonic,1.9,nw,z,,,,,,,
,,,,,,,,,,,,001,2023-11-08_00h08.19.836,vowel_harmony,2023.2.3,iPad,62.5,720.575,721.569,,,,,,,,,,,,,,,,,,,,,,,,,,721.569,722.12,m,1,0.536,,722.12,722.12,,0,256,256,26,1,27,sebze,1094,49.707,961,0.1051,5,harmonic,1.9,word,m,,,,,,,
,,,,,,,,,,,,001,2023-11-08_00h08.19.836,vowel_harmony,2023.2.3,iPad,62.5,722.12,723.12,,,,,,,,,,,,,,,,,,,,,,,,,,723.12,723.657,m,1,0.523,,723.657,723.658,,0,257,257,91,1,92,ifade,6177,280.6584,5726,0.626,5,notharmonic,1.7,word,m,,,,,,,
,,,,,,,,,,,,001,2023-11-08_00h08.19.836,vowel_harmony,2023.2.3,iPad,62.5,723.659,724.654,,,,,,,,,,,,,,,,,,,,,,,,,,724.654,725.304,z,1,0.635,,725.304,725.305,,0,258,258,284,1,285,deval,,,,,5,notharmonic,1.75,nw,z,,,,,,,
,,,,,,,,,,,,001,2023-11-08_00h08.19.836,vowel_harmony,2023.2.3,iPad,62.5,725.306,726.304,,,,,,,,,,,,,,,,,,,,,,,,,,726.304,726.799,m,1,0.481,,726.799,726.799,,0,259,259,20,1,21,nefes,2871,130.4469,2553,0.2791,5,harmonic,1.8,word,m,,,,,,,
,,,,,,,,,,,,001,2023-11-08_00h08.19.836,vowel_harmony,2023.2.3,iPad,62.5,726.8,727.805,,,,,,,,,,,,,,,,,,,,,,,,,,727.805,728.383,m,1,0.565,,728.383,728.384,,0,260,260,162,1,163,hariç,1267,57.5675,1233,0.1348,5,notharmonic,1.75,word,m,,,,,,,
,,,,,,,,,,,,001,2023-11-08_00h08.19.836,vowel_harmony,2023.2.3,iPad,62.5,728.384,729.372,,,,,,,,,,,,,,,,,,,,,,,,,,729.372,729.884,m,1,0.497,,729.884,729.884,,0,261,261,175,1,176,aile,3655,166.0687,3126,0.3417,4,notharmonic,1,word,m,,,,,,,
,,,,,,,,,,,,001,2023-11-08_00h08.19.836,vowel_harmony,2023.2.3,iPad,62.5,729.885,730.873,,,,,,,,,,,,,,,,,,,,,,,,,,730.873,731.435,m,1,0.55,,731.435,731.436,,0,262,262,71,1,72,örnek,3463,157.345,3266,0.357,5,harmonic,1.85,word,m,,,,,,,
,,,,,,,,,,,,001,2023-11-08_00h08.19.836,vowel_harmony,2023.2.3,iPad,62.5,731.436,732.44,,,,,,,,,,,,,,,,,,,,,,,,,,732.44,732.953,m,1,0.501,,732.953,732.953,,0,263,263,35,1,36,hava,4975,226.0443,4398,0.4808,4,harmonic,1,word,m,,,,,,,
,,,,,,,,,,,,001,2023-11-08_00h08.19.836,vowel_harmony,2023.2.3,iPad,62.5,732.954,733.958,,,,,,,,,,,,,,,,,,,,,,,,,,733.958,734.42,m,1,0.451,,734.421,734.421,,0,264,264,89,1,90,etki,1234,56.0681,1169,0.1278,4,harmonic,1.4,word,m,,,,,,,
,,,,,,,,,,,,001,2023-11-08_00h08.19.836,vowel_harmony,2023.2.3,iPad,62.5,734.422,735.425,,,,,,,,,,,,,,,,,,,,,,,,,,735.425,736.048,z,1,0.611,,736.048,736.049,,0,265,265,338,1,339,pardön,,,,,6,notharmonic,1.95,nw,z,,,,,,,
,,,,,,,,,,,,001,2023-11-08_00h08.19.836,vowel_harmony,2023.2.3,iPad,62.5,736.049,737.042,,,,,,,,,,,,,,,,,,,,,,,,,,737.042,737.53,m,1,0.473,,737.53,737.531,,0,266,266,86,1,87,gerçek,8983,408.1519,8058,0.8809,6,harmonic,1.7,word,m,,,,,,,
,,,,,,,,,,,,001,2023-11-08_00h08.19.836,vowel_harmony,2023.2.3,iPad,62.5,737.532,738.526,,,,,,,,,,,,,,,,,,,,,,,,,,738.526,739.036,m,1,0.498,,739.036,739.036,,0,267,267,72,1,73,çorba,1674,76.0599,1513,0.1654,5,harmonic,1.75,word,m,,,,,,,
,,,,,,,,,,,,001,2023-11-08_00h08.19.836,vowel_harmony,2023.2.3,iPad,62.5,739.037,740.027,,,,,,,,,,,,,,,,,,,,,,,,,,740.027,740.63,m,1,0.592,,740.63,740.63,,0,268,268,117,1,118,nasip,1069,48.5711,1042,0.1139,5,notharmonic,1.8,word,m,,,,,,,
,,,,,,,,,,,,001,2023-11-08_00h08.19.836,vowel_harmony,2023.2.3,iPad,62.5,740.631,741.627,,,,,,,,,,,,,,,,,,,,,,,,,,741.627,742.228,z,1,0.588,,742.228,742.228,,0,269,269,245,1,246,bıyan,,,,,5,harmonic,1.7,nw,z,,,,,,,
,,,,,,,,,,,,001,2023-11-08_00h08.19.836,vowel_harmony,2023.2.3,iPad,62.5,742.229,743.228,,,,,,,,,,,,,,,,,,,,,,,,,,743.228,743.732,m,1,0.492,,743.732,743.732,,0,270,270,165,1,166,gazete,1402,63.7013,1270,0.1388,6,notharmonic,1.8,word,m,,,,,,,
,,,,,,,,,,,,001,2023-11-08_00h08.19.836,vowel_harmony,2023.2.3,iPad,62.5,743.733,744.728,,,,,,,,,,,,,,,,,,,,,,,,,,744.728,745.418,z,1,0.678,,745.419,745.419,,0,271,271,329,1,330,taif,,,,,4,notharmonic,1.8,nw,z,,,,,,,
,,,,,,,,,,,,001,2023-11-08_00h08.19.836,vowel_harmony,2023.2.3,iPad,62.5,745.42,746.412,,,,,,,,,,,,,,,,,,,,,,,,,,746.413,746.858,m,1,0.433,,746.858,746.858,,0,272,272,83,1,84,küçük,14048,638.2854,12467,1.3629,5,harmonic,1.75,word,m,,,,,,,
,,,,,,,,,,,,001,2023-11-08_00h08.19.836,vowel_harmony,2023.2.3,iPad,62.5,746.859,747.863,,,,,,,,,,,,,,,,,,,,,,,,,,747.863,748.57,z,1,0.694,,748.57,748.57,,0,273,273,357,1,358,işarek,,,,,6,notharmonic,1.95,nw,z,,,,,,,
,,,,,,,,,,,,001,2023-11-08_00h08.19.836,vowel_harmony,2023.2.3,iPad,62.5,748.571,749.564,,,,,,,,,,,,,,,,,,,,,,,,,,749.564,750.164,z,1,0.587,,750.164,750.164,,0,274,274,235,1,236,oşup,,,,,4,harmonic,1.75,nw,z,,,,,,,
,,,,,,,,,,,,001,2023-11-08_00h08.19.836,vowel_harmony,2023.2.3,iPad,62.5,750.165,751.164,,,,,,,,,,,,,,,,,,,,,,,,,,751.164,751.661,m,1,0.484,,751.661,751.661,,0,275,275,169,1,170,hikaye,1555,70.653,1405,0.1536,6,notharmonic,1.8,word,m,,,,,,,
,,,,,,,,,,,,001,2023-11-08_00h08.19.836,vowel_harmony,2023.2.3,iPad,62.5,751.662,752.665,,,,,,,,,,,,,,,,,,,,,,,,,,752.665,753.255,z,1,0.577,,753.255,753.256,,0,276,276,247,1,248,hafgın,,,,,6,harmonic,2,nw,z,,,,,,,
,,,,,,,,,,,,001,2023-11-08_00h08.19.836,vowel_harmony,2023.2.3,iPad,62.5,753.256,754.249,,,,,,,,,,,,,,,,,,,,,,,,,,754.249,754.785,m,1,0.523,,754.785,754.785,,0,277,277,158,1,159,klasik,1871,85.0108,1734,0.1896,6,notharmonic,2,word,m,,,,,,,
,,,,,,,,,,,,001,2023-11-08_00h08.19.836,vowel_harmony,2023.2.3,iPad,62.5,754.786,755.783,,,,,,,,,,,,,,,,,,,,,,,,,,755.783,756.369,m,1,0.573,,756.369,756.369,,0,278,278,157,1,158,aktif,1062,48.2531,986,0.1078,5,notharmonic,1.9,word,m,,,,,,,
,,,,,,,,,,,,001,2023-11-08_00h08.19.836,vowel_harmony,2023.2.3,iPad,62.5,756.37,757.367,,,,,,,,,,,,,,,,,,,,,,,,,,757.367,757.904,m,1,0.525,,757.904,757.904,,0,279,279,21,1,22,duygu,1877,85.2834,1760,0.1924,5,harmonic,1.8,word,m,,,,,,,
,,,,,,,,,,,,001,2023-11-08_00h08.19.836,vowel_harmony,2023.2.3,iPad,62.5,757.905,758.901,,,,,,,,,,,,,,,,,,,,,,,,,,758.901,759.564,m,1,0.65,,759.564,759.564,,0,280,280,66,1,67,sanık,768,34.8949,699,0.0764,5,harmonic,1.85,word,m,,,,,,,
,,,,,,,,,,,,001,2023-11-08_00h08.19.836,vowel_harmony,2023.2.3,iPad,62.5,759.564,760.568,,,,,,,,,,,,,,,,,,,,,,,,,,760.568,761.022,m,1,0.44,,761.023,761.023,,0,281,281,65,1,66,fikir,2552,115.9528,2413,0.2638,5,harmonic,1.9,word,m,,,,,,,
,,,,,,,,,,,,001,2023-11-08_00h08.19.836,vowel_harmony,2023.2.3,iPad,62.5,761.023,762.019,,,,,,,,,,,,,,,,,,,,,,,,,,762.019,762.709,z,1,0.678,,762.709,762.709,,0,282,282,348,1,349,aife,,,,,4,notharmonic,1.75,nw,z,,,,,,,
,,,,,,,,,,,,001,2023-11-08_00h08.19.836,vowel_harmony,2023.2.3,iPad,62.5,762.71,763.703,,,,,,,,,,,,,,,,,,,,,,,,,,763.703,764.27,z,1,0.553,,764.27,764.27,,0,283,283,264,1,265,vepü,,,,,4,harmonic,2,nw,z,,,,,,,
,,,,,,,,,,,,001,2023-11-08_00h08.19.836,vowel_harmony,2023.2.3,iPad,62.5,764.271,765.27,,,,,,,,,,,,,,,,,,,,,,,,,,765.27,765.823,m,1,0.542,,765.823,765.824,,0,284,284,75,1,76,roman,1499,68.1086,1281,0.14,5,harmonic,1.6,word,m,,,,,,,
,,,,,,,,,,,,001,2023-11-08_00h08.19.836,vowel_harmony,2023.2.3,iPad,62.5,765.824,766.821,,,,,,,,,,,,,,,,,,,,,,,,,,766.821,767.805,z,1,0.971,,767.805,767.805,,0,285,285,265,1,266,parula,,,,,6,harmonic,1.75,nw,z,,,,,,,
,,,,,,,,,,,,001,2023-11-08_00h08.19.836,vowel_harmony,2023.2.3,iPad,62.5,767.806,768.805,,,,,,,,,,,,,,,,,,,,,,,,,,768.805,769.539,z,1,0.719,,769.539,769.539,,0,286,286,220,1,221,denbi,,,,,5,harmonic,1.75,nw,z,,,,,,,
,,,,,,,,,,,,001,2023-11-08_00h08.19.836,vowel_harmony,2023.2.3,iPad,62.5,769.539,770.539,,,,,,,,,,,,,,,,,,,,,,,,,,770.539,771.422,z,1,0.869,,771.422,771.423,,0,287,287,293,1,294,esnan,,,,,5,notharmonic,1.85,nw,z,,,,,,,
,,,,,,,,,,,,001,2023-11-08_00h08.19.836,vowel_harmony,2023.2.3,iPad,62.5,771.423,772.423,,,,,,,,,,,,,,,,,,,,,,,,,,772.423,773.329,z,1,0.893,,773.33,773.33,,0,288,288,185,1,186,örtin,,,,,5,harmonic,1.9,nw,z,,,,,,,
,,,,,,,,,,,,001,2023-11-08_00h08.19.836,vowel_harmony,2023.2.3,iPad,62.5,773.33,774.324,,,,,,,,,,,,,,,,,,,,,,,,,,774.324,774.957,z,1,0.621,,774.957,774.957,,0,289,289,305,1,306,tamü,,,,,4,notharmonic,1.75,nw,z,,,,,,,
,,,,,,,,,,,,001,2023-11-08_00h08.19.836,vowel_harmony,2023.2.3,iPad,62.5,774.958,775.958,,,,,,,,,,,,,,,,,,,,,,,,,,775.958,776.674,z,1,0.704,,776.675,776.675,,0,290,290,292,1,293,kinam,,,,,5,notharmonic,1.85,nw,z,,,,,,,
,,,,,,,,,,,,001,2023-11-08_00h08.19.836,vowel_harmony,2023.2.3,iPad,62.5,776.675,777.675,,,,,,,,,,,,,,,,,,,,,,,,,,777.675,778.287,m,1,0.6,,778.287,778.287,,0,291,291,170,1,171,basit,3385,153.801,3177,0.3473,5,notharmonic,1.65,word,m,,,,,,,
,,,,,,,,,,,,001,2023-11-08_00h08.19.836,vowel_harmony,2023.2.3,iPad,62.5,778.288,779.292,,,,,,,,,,,,,,,,,,,,,,,,,,779.292,779.95,z,1,0.645,,779.95,779.95,,0,292,292,240,1,241,hoga,,,,,4,harmonic,1.75,nw,z,,,,,,,
,,,,,,,,,,,,001,2023-11-08_00h08.19.836,vowel_harmony,2023.2.3,iPad,62.5,779.951,780.943,,,,,,,,,,,,,,,,,,,,,,,,,,780.943,781.584,z,1,0.628,,781.584,781.584,,0,293,293,187,1,188,remrin,,,,,6,harmonic,1.9,nw,z,,,,,,,
,,,,,,,,,,,,001,2023-11-08_00h08.19.836,vowel_harmony,2023.2.3,iPad,62.5,781.585,782.577,,,,,,,,,,,,,,,,,,,,,,,,,,782.577,783.151,z,1,0.562,,783.151,783.152,,0,294,294,262,1,263,sauk,,,,,4,harmonic,1.85,nw,z,,,,,,,
,,,,,,,,,,,,001,2023-11-08_00h08.19.836,vowel_harmony,2023.2.3,iPad,62.5,783.152,784.144,,,,,,,,,,,,,,,,,,,,,,,,,,784.144,784.778,z,1,0.62,,784.778,784.778,,0,295,295,260,1,261,yarlam,,,,,6,harmonic,1.75,nw,z,,,,,,,
,,,,,,,,,,,,001,2023-11-08_00h08.19.836,vowel_harmony,2023.2.3,iPad,62.5,784.778,785.778,,,,,,,,,,,,,,,,,,,,,,,,,,785.778,786.298,m,1,0.508,,786.298,786.298,,0,296,296,167,1,168,adalet,1611,73.1975,1388,0.1517,6,notharmonic,1.65,word,m,,,,,,,
,,,,,,,,,,,,001,2023-11-08_00h08.19.836,vowel_harmony,2023.2.3,iPad,62.5,786.299,787.295,,,,,,,,,,,,,,,,,,,,,,,,,,787.296,787.892,m,1,0.584,,787.892,787.892,,0,297,297,139,1,140,lira,1253,56.9314,947,0.1035,4,notharmonic,1.4,word,m,,,,,,,
,,,,,,,,,,,,001,2023-11-08_00h08.19.836,vowel_harmony,2023.2.3,iPad,62.5,787.893,788.896,,,,,,,,,,,,,,,,,,,,,,,,,,788.896,789.367,m,1,0.458,,789.367,789.367,,0,298,298,6,1,7,hayal,4498,204.3713,4079,0.4459,5,harmonic,1.45,word,m,,,,,,,
,,,,,,,,,,,,001,2023-11-08_00h08.19.836,vowel_harmony,2023.2.3,iPad,62.5,789.368,790.363,,,,,,,,,,,,,,,,,,,,,,,,,,790.363,790.98,z,1,0.603,,790.98,790.981,,0,299,299,327,1,328,parkeş,,,,,6,notharmonic,1.9,nw,z,,,,,,,
,,,,,,,,,,,,001,2023-11-08_00h08.19.836,vowel_harmony,2023.2.3,iPad,62.5,790.981,791.981,,,,,,,,,,,,,,,,,,,,,,,,,,791.981,792.56,m,1,0.567,,792.56,792.56,,0,300,300,67,1,68,bayram,1948,88.5094,1648,0.1802,6,harmonic,1.85,word,m,,,,,,,
,,,,,,,,,,,,001,2023-11-08_00h08.19.836,vowel_harmony,2023.2.3,iPad,62.5,792.561,793.565,,,,,,,,,,,,,,,,,,,,,,,,,,793.565,794.165,z,1,0.586,,794.165,794.165,,0,301,301,339,1,340,asmel,,,,,5,notharmonic,1.95,nw,z,,,,,,,
,,,,,,,,,,,,001,2023-11-08_00h08.19.836,vowel_harmony,2023.2.3,iPad,62.5,794.166,795.166,,,,,,,,,,,,,,,,,,,,,,,,,,795.166,795.782,z,1,0.601,,795.782,795.783,,0,302,302,287,1,288,haköm,,,,,5,notharmonic,1.9,nw,z,,,,,,,
,,,,,,,,,,,,001,2023-11-08_00h08.19.836,vowel_harmony,2023.2.3,iPad,62.5,795.784,796.783,,,,,,,,,,,,,,,,,,,,,,,,,,796.783,797.316,z,1,0.518,,797.316,797.317,,0,303,303,195,1,196,netüm,,,,,5,harmonic,1.95,nw,z,,,,,,,
,,,,,,,,,,,,001,2023-11-08_00h08.19.836,vowel_harmony,2023.2.3,iPad,62.5,797.318,798.316,,,,,,,,,,,,,,,,,,,,,,,,,,798.317,798.87,m,1,0.541,,798.87,798.87,,0,304,304,15,1,16,hayat,7922,359.9443,7314,0.7996,5,harmonic,1.9,word,m,,,,,,,
,,,,,,,,,,,,001,2023-11-08_00h08.19.836,vowel_harmony,2023.2.3,iPad,62.5,798.871,799.867,,,,,,,,,,,,,,,,,,,,,,,,,,799.868,800.389,m,1,0.508,,800.389,800.389,,0,305,305,8,1,9,güven,1433,65.1098,1300,0.1421,5,harmonic,1.35,word,m,,,,,,,
,,,,,,,,,,,,001,2023-11-08_00h08.19.836,vowel_harmony,2023.2.3,iPad,62.5,800.389,801.384,,,,,,,,,,,,,,,,,,,,,,,,,,801.384,801.797,m,1,0.401,,801.797,801.798,,0,306,306,56,1,57,sağlam,1818,82.6027,1720,0.188,6,harmonic,1.6,word,m,,,,,,,
,,,,,,,,,,,,001,2023-11-08_00h08.19.836,vowel_harmony,2023.2.3,iPad,62.5,801.798,802.802,,,,,,,,,,,,,,,,,,,,,,,,,,802.802,803.452,z,1,0.636,,803.452,803.452,,0,307,307,181,1,182,rapkı,,,,,5,harmonic,1.85,nw,z,,,,,,,
,,,,,,,,,,,,001,2023-11-08_00h08.19.836,vowel_harmony,2023.2.3,iPad,62.5,803.453,804.452,,,,,,,,,,,,,,,,,,,,,,,,,,804.452,805.187,z,1,0.721,,805.187,805.187,,0,308,308,294,1,295,mesap,,,,,5,notharmonic,1.8,nw,z,,,,,,,
,,,,,,,,,,,,001,2023-11-08_00h08.19.836,vowel_harmony,2023.2.3,iPad,62.5,805.187,806.186,,,,,,,,,,,,,,,,,,,,,,,,,,806.186,806.798,m,1,0.6,,806.798,806.798,,0,309,309,121,1,122,mesaj,1604,72.8794,1386,0.1515,5,notharmonic,1.8,word,m,,,,,,,
,,,,,,,,,,,,001,2023-11-08_00h08.19.836,vowel_harmony,2023.2.3,iPad,62.5,806.799,807.787,,,,,,,,,,,,,,,,,,,,,,,,,,807.787,808.394,z,1,0.593,,808.394,808.395,,0,310,310,309,1,310,yorgen,,,,,6,notharmonic,1.9,nw,z,,,,,,,
,,,,,,,,,,,,001,2023-11-08_00h08.19.836,vowel_harmony,2023.2.3,iPad,62.5,808.395,809.388,,,,,,,,,,,,,,,,,,,,,,,,,,809.388,809.916,m,1,0.515,,809.917,809.917,,0,311,311,23,1,24,kurum,986,44.7999,882,0.0964,5,harmonic,1.75,word,m,,,,,,,
,,,,,,,,,,,,001,2023-11-08_00h08.19.836,vowel_harmony,2023.2.3,iPad,62.5,809.918,810.921,,,,,,,,,,,,,,,,,,,,,,,,,,810.922,811.488,z,1,0.553,,811.488,811.489,,0,312,312,180,1,181,ayaro,,,,,5,harmonic,1.8,nw,z,,,,,,,
,,,,,,,,,,,,001,2023-11-08_00h08.19.836,vowel_harmony,2023.2.3,iPad,62.5,811.489,812.489,,,,,,,,,,,,,,,,,,,,,,,,,,812.489,812.941,m,1,0.441,,812.941,812.942,,0,313,313,178,1,179,dikkat,6230,283.0665,5888,0.6437,6,notharmonic,2.05,word,m,,,,,,,
,,,,,,,,,,,,001,2023-11-08_00h08.19.836,vowel_harmony,2023.2.3,iPad,62.5,812.942,813.939,,,,,,,,,,,,,,,,,,,,,,,,,,813.939,814.606,z,1,0.652,,814.606,814.607,,0,314,314,274,1,275,pisan,,,,,5,notharmonic,1.75,nw,z,,,,,,,
,,,,,,,,,,,,001,2023-11-08_00h08.19.836,vowel_harmony,2023.2.3,iPad,62.5,814.607,815.607,,,,,,,,,,,,,,,,,,,,,,,,,,815.607,816.094,m,1,0.474,,816.094,816.094,,0,315,315,126,1,127,adet,4367,198.4192,3768,0.4119,4,notharmonic,1.4,word,m,,,,,,,
,,,,,,,,,,,,001,2023-11-08_00h08.19.836,vowel_harmony,2023.2.3,iPad,62.5,816.094,817.091,,,,,,,,,,,,,,,,,,,,,,,,,,817.091,817.63,z,1,0.528,,817.63,817.631,,0,316,316,249,1,250,hurıt,,,,,5,harmonic,1.95,nw,z,,,,,,,
,,,,,,,,,,,,001,2023-11-08_00h08.19.836,vowel_harmony,2023.2.3,iPad,62.5,817.632,818.624,,,,,,,,,,,,,,,,,,,,,,,,,,818.625,819.281,z,1,0.643,,819.281,819.281,,0,317,317,303,1,304,fisor,,,,,5,notharmonic,1.9,nw,z,,,,,,,
,,,,,,,,,,,,001,2023-11-08_00h08.19.836,vowel_harmony,2023.2.3,iPad,62.5,819.282,820.275,,,,,,,,,,,,,,,,,,,,,,,,,,820.275,820.859,z,1,0.571,,820.859,820.86,,0,318,318,259,1,260,hayuk,,,,,5,harmonic,1.95,nw,z,,,,,,,
,,,,,,,,,,,,001,2023-11-08_00h08.19.836,vowel_harmony,2023.2.3,iPad,62.5,820.86,821.859,,,,,,,,,,,,,,,,,,,,,,,,,,821.859,822.29,m,1,0.419,,822.29,822.29,,0,319,319,95,1,96,takip,4996,226.9984,4651,0.5084,5,notharmonic,1.55,word,m,,,,,,,
,,,,,,,,,,,,001,2023-11-08_00h08.19.836,vowel_harmony,2023.2.3,iPad,62.5,822.291,823.293,,,,,,,,,,,,,,,,,,,,,,,,,,823.293,823.755,m,1,0.45,,823.755,823.755,,0,320,320,108,1,109,tarih,2806,127.4935,2483,0.2714,5,notharmonic,1.55,word,m,,,,,,,
,,,,,,,,,,,,001,2023-11-08_00h08.19.836,vowel_harmony,2023.2.3,iPad,62.5,823.756,824.76,,,,,,,,,,,,,,,,,,,,,,,,,,824.76,825.268,z,1,0.495,,825.268,825.268,,0,321,321,194,1,195,rayna,,,,,5,harmonic,1.7,nw,z,,,,,,,
,,,,,,,,,,,,001,2023-11-08_00h08.19.836,vowel_harmony,2023.2.3,iPad,62.5,825.269,826.261,,,,,,,,,,,,,,,,,,,,,,,,,,826.261,826.851,z,1,0.577,,826.851,826.852,,0,322,322,189,1,190,düvre,,,,,5,harmonic,1.85,nw,z,,,,,,,
,,,,,,,,,,,,001,2023-11-08_00h08.19.836,vowel_harmony,2023.2.3,iPad,62.5,826.852,827.845,,,,,,,,,,,,,,,,,,,,,,,,,,827.845,828.266,m,1,0.408,,828.266,828.266,,0,323,323,76,1,77,ilişki,1675,76.1054,1524,0.1666,6,harmonic,1.8,word,m,,,,,,,
,,,,,,,,,,,,001,2023-11-08_00h08.19.836,vowel_harmony,2023.2.3,iPad,62.5,828.266,829.262,,,,,,,,,,,,,,,,,,,,,,,,,,829.262,829.775,m,1,0.499,,829.775,829.775,,0,324,324,97,1,98,mevcut,3007,136.6262,2842,0.3107,6,notharmonic,1.95,word,m,,,,,,,
,,,,,,,,,,,,001,2023-11-08_00h08.19.836,vowel_harmony,2023.2.3,iPad,62.5,829.776,830.779,,,,,,,,,,,,,,,,,,,,,,,,,,830.779,831.346,z,1,0.554,,831.346,831.347,,0,325,325,263,1,264,duzur,,,,,5,harmonic,1.8,nw,z,,,,,,,
,,,,,,,,,,,,001,2023-11-08_00h08.19.836,vowel_harmony,2023.2.3,iPad,62.5,831.347,832.347,,,,,,,,,,,,,,,,,,,,,,,,,,832.347,832.871,z,1,0.51,,832.871,832.871,,0,326,326,182,1,183,orsın,,,,,5,harmonic,1.95,nw,z,,,,,,,
,,,,,,,,,,,,001,2023-11-08_00h08.19.836,vowel_harmony,2023.2.3,iPad,62.5,832.872,833.864,,,,,,,,,,,,,,,,,,,,,,,,,,833.864,834.572,z,1,0.694,,834.572,834.572,,0,327,327,272,1,273,daken,,,,,5,notharmonic,1.8,nw,z,,,,,,,
,,,,,,,,,,,,001,2023-11-08_00h08.19.836,vowel_harmony,2023.2.3,iPad,62.5,834.573,835.565,,,,,,,,,,,,,,,,,,,,,,,,,,835.565,836.084,m,1,0.507,,836.084,836.085,,0,328,328,50,1,51,kanun,1198,54.4324,1010,0.1104,5,harmonic,1.6,word,m,,,,,,,
,,,,,,,,,,,,001,2023-11-08_00h08.19.836,vowel_harmony,2023.2.3,iPad,62.5,836.085,837.082,,,,,,,,,,,,,,,,,,,,,,,,,,837.082,837.703,m,1,0.609,,837.703,837.703,,0,329,329,42,1,43,ürün,2268,103.0489,1954,0.2136,4,harmonic,1.1,word,m,,,,,,,
,,,,,,,,,,,,001,2023-11-08_00h08.19.836,vowel_harmony,2023.2.3,iPad,62.5,837.704,838.699,,,,,,,,,,,,,,,,,,,,,,,,,,838.699,839.252,m,1,0.541,,839.252,839.252,,0,330,330,179,1,180,dakika,5891,267.6637,5207,0.5692,6,notharmonic,1.75,word,m,,,,,,,
,,,,,,,,,,,,001,2023-11-08_00h08.19.836,vowel_harmony,2023.2.3,iPad,62.5,839.253,840.25,,,,,,,,,,,,,,,,,,,,,,,,,,840.25,840.746,m,1,0.483,,840.746,840.746,,0,331,331,7,1,8,hizmet,3023,137.3531,2689,0.294,6,harmonic,1.75,word,m,,,,,,,
,,,,,,,,,,,,001,2023-11-08_00h08.19.836,vowel_harmony,2023.2.3,iPad,62.5,840.746,841.75,,,,,,,,,,,,,,,,,,,,,,,,,,841.75,842.221,m,1,0.457,,842.221,842.221,,0,332,332,133,1,134,taze,2268,103.0489,2062,0.2254,4,notharmonic,1.65,word,m,,,,,,,
,,,,,,,,,,,,001,2023-11-08_00h08.19.836,vowel_harmony,2023.2.3,iPad,62.5,842.222,843.218,,,,,,,,,,,,,,,,,,,,,,,,,,843.218,843.771,m,1,0.541,,843.771,843.771,,0,333,333,39,1,40,yaygın,1061,48.2076,1019,0.1114,6,harmonic,1.35,word,m,,,,,,,
,,,,,,,,,,,,001,2023-11-08_00h08.19.836,vowel_harmony,2023.2.3,iPad,62.5,843.772,844.768,,,,,,,,,,,,,,,,,,,,,,,,,,844.768,845.297,m,1,0.516,,845.297,845.297,,0,334,334,69,1,70,forma,719,32.6685,597,0.0653,5,harmonic,1.8,word,m,,,,,,,
,,,,,,,,,,,,001,2023-11-08_00h08.19.836,vowel_harmony,2023.2.3,iPad,62.5,845.298,846.302,,,,,,,,,,,,,,,,,,,,,,,,,,846.302,846.876,z,1,0.561,,846.876,846.876,,0,335,335,229,1,230,tonam,,,,,5,harmonic,1.8,nw,z,,,,,,,
,,,,,,,,,,,,001,2023-11-08_00h08.19.836,vowel_harmony,2023.2.3,iPad,62.5,846.877,847.869,,,,,,,,,,,,,,,,,,,,,,,,,,847.869,848.41,z,1,0.527,,848.41,848.41,,0,336,336,198,1,199,yarbız,,,,,6,harmonic,1.95,nw,z,,,,,,,
,,,,,,,,,,,,001,2023-11-08_00h08.19.836,vowel_harmony,2023.2.3,iPad,62.5,848.411,849.404,,,,,,,,,,,,,,,,,,,,,,,,,,849.404,849.944,z,1,0.526,,849.944,849.945,,0,337,337,213,1,214,kaun,,,,,4,harmonic,1.7,nw,z,,,,,,,
,,,,,,,,,,,,001,2023-11-08_00h08.19.836,vowel_harmony,2023.2.3,iPad,62.5,849.946,850.937,,,,,,,,,,,,,,,,,,,,,,,,,,850.937,851.685,m,1,0.733,,851.685,851.686,,0,338,338,48,1,49,teşvik,932,42.3464,867,0.0948,6,harmonic,1.8,word,m,,,,,,,
,,,,,,,,,,,,001,2023-11-08_00h08.19.836,vowel_harmony,2023.2.3,iPad,62.5,851.687,852.688,,,,,,,,,,,,,,,,,,,,,,,,,,852.688,853.279,z,1,0.578,,853.279,853.279,,0,339,339,214,1,215,vecü,,,,,4,harmonic,1.95,nw,z,,,,,,,
,,,,,,,,,,,,001,2023-11-08_00h08.19.836,vowel_harmony,2023.2.3,iPad,62.5,853.28,854.272,,,,,,,,,,,,,,,,,,,,,,,,,,854.272,854.906,z,1,0.618,,854.906,854.906,,0,340,340,243,1,244,korguf,,,,,6,harmonic,2,nw,z,,,,,,,
,,,,,,,,,,,,001,2023-11-08_00h08.19.836,vowel_harmony,2023.2.3,iPad,62.5,854.907,855.906,,,,,,,,,,,,,,,,,,,,,,,,,,855.906,856.76,m,0,0.841,,856.76,856.761,,0,341,341,289,1,290,karmen,,,,,6,notharmonic,1.75,nw,z,,,,,,,
,,,,,,,,,,,,001,2023-11-08_00h08.19.836,vowel_harmony,2023.2.3,iPad,62.5,856.762,857.757,,,,,,,,,,,,,,,,,,,,,,,,,,857.757,858.44,z,1,0.671,,858.44,858.441,,0,342,342,212,1,213,ortat,,,,,5,harmonic,1.7,nw,z,,,,,,,
,,,,,,,,,,,,001,2023-11-08_00h08.19.836,vowel_harmony,2023.2.3,iPad,62.5,858.441,859.441,,,,,,,,,,,,,,,,,,,,,,,,,,859.441,859.999,m,1,0.546,,859.999,859.999,,0,343,343,3,1,4,minik,2916,132.4915,2594,0.2836,5,harmonic,1.6,word,m,,,,,,,
,,,,,,,,,,,,001,2023-11-08_00h08.19.836,vowel_harmony,2023.2.3,iPad,62.5,860,860.991,,,,,,,,,,,,,,,,,,,,,,,,,,860.991,861.692,z,1,0.689,,861.692,861.692,,0,344,344,313,1,314,ikas,,,,,4,notharmonic,1.85,nw,z,,,,,,,
,,,,,,,,,,,,001,2023-11-08_00h08.19.836,vowel_harmony,2023.2.3,iPad,62.5,861.693,862.692,,,,,,,,,,,,,,,,,,,,,,,,,,862.692,863.256,m,1,0.551,,863.256,863.256,,0,345,345,112,1,113,sezon,2315,105.1844,1917,0.2096,5,notharmonic,1.8,word,m,,,,,,,
,,,,,,,,,,,,001,2023-11-08_00h08.19.836,vowel_harmony,2023.2.3,iPad,62.5,863.257,864.259,,,,,,,,,,,,,,,,,,,,,,,,,,864.26,864.834,z,1,0.559,,864.835,864.835,,0,346,346,234,1,235,düzöt,,,,,5,harmonic,2.05,nw,z,,,,,,,
,,,,,,,,,,,,001,2023-11-08_00h08.19.836,vowel_harmony,2023.2.3,iPad,62.5,864.836,865.827,,,,,,,,,,,,,,,,,,,,,,,,,,865.827,866.323,m,1,0.484,,866.323,866.323,,0,347,347,74,1,75,başarı,1398,63.5196,1300,0.1421,6,harmonic,1.2,word,m,,,,,,,
,,,,,,,,,,,,001,2023-11-08_00h08.19.836,vowel_harmony,2023.2.3,iPad,62.5,866.324,867.327,,,,,,,,,,,,,,,,,,,,,,,,,,867.327,867.874,m,1,0.533,,867.874,867.874,,0,348,348,110,1,111,rüya,1062,48.2531,937,0.1024,4,notharmonic,1.75,word,m,,,,,,,
,,,,,,,,,,,,001,2023-11-08_00h08.19.836,vowel_harmony,2023.2.3,iPad,62.5,867.875,868.878,,,,,,,,,,,,,,,,,,,,,,,,,,868.878,869.651,z,1,0.762,,869.651,869.651,,0,349,349,341,1,342,işgan,,,,,5,notharmonic,1.95,nw,z,,,,,,,
,,,,,,,,,,,,001,2023-11-08_00h08.19.836,vowel_harmony,2023.2.3,iPad,62.5,869.652,870.645,,,,,,,,,,,,,,,,,,,,,,,,,,870.645,871.182,m,1,0.523,,871.182,871.182,,0,350,350,44,1,45,kayıt,1234,56.0681,1058,0.1157,5,harmonic,1.35,word,m,,,,,,,
,,,,,,,,,,,,001,2023-11-08_00h08.19.836,vowel_harmony,2023.2.3,iPad,62.5,871.183,872.179,,,,,,,,,,,,,,,,,,,,,,,,,,872.179,872.809,m,1,0.618,,872.809,872.81,,0,351,351,47,1,48,kaza,740,33.6227,679,0.0742,4,harmonic,1.85,word,m,,,,,,,
,,,,,,,,,,,,001,2023-11-08_00h08.19.836,vowel_harmony,2023.2.3,iPad,62.5,872.81,873.813,,,,,,,,,,,,,,,,,,,,,,,,,,873.813,874.414,z,1,0.586,,874.414,874.414,,0,352,352,246,1,247,orkın,,,,,5,harmonic,1.9,nw,z,,,,,,,
,,,,,,,,,,,,001,2023-11-08_00h08.19.836,vowel_harmony,2023.2.3,iPad,62.5,874.414,875.414,,,,,,,,,,,,,,,,,,,,,,,,,,875.414,875.91,m,1,0.484,,875.91,875.91,,0,353,353,14,1,15,yaşam,4348,197.5559,3918,0.4283,5,harmonic,1.4,word,m,,,,,,,
,,,,,,,,,,,,001,2023-11-08_00h08.19.836,vowel_harmony,2023.2.3,iPad,62.5,875.911,876.914,,,,,,,,,,,,,,,,,,,,,,,,,,876.914,877.895,m,0,0.968,,877.895,877.896,,0,354,354,333,1,334,heyran,,,,,6,notharmonic,1.85,nw,z,,,,,,,
,,,,,,,,,,,,001,2023-11-08_00h08.19.836,vowel_harmony,2023.2.3,iPad,62.5,877.896,878.898,,,,,,,,,,,,,,,,,,,,,,,,,,878.898,879.629,m,1,0.719,,879.629,879.63,,0,355,355,58,1,59,ayak,2143,97.3694,1931,0.2111,4,harmonic,1,word,m,,,,,,,
,,,,,,,,,,,,001,2023-11-08_00h08.19.836,vowel_harmony,2023.2.3,iPad,62.5,879.63,880.632,,,,,,,,,,,,,,,,,,,,,,,,,,880.632,881.39,z,1,0.745,,881.39,881.39,,0,356,356,296,1,297,işban,,,,,5,notharmonic,1.95,nw,z,,,,,,,
,,,,,,,,,,,,001,2023-11-08_00h08.19.836,vowel_harmony,2023.2.3,iPad,62.5,881.391,882.383,,,,,,,,,,,,,,,,,,,,,,,,,,882.383,882.887,m,1,0.492,,882.887,882.888,,0,357,357,111,1,112,kahve,2634,119.6785,2283,0.2496,5,notharmonic,1.85,word,m,,,,,,,
,,,,,,,,,,,,001,2023-11-08_00h08.19.836,vowel_harmony,2023.2.3,iPad,62.5,882.888,883.884,,,,,,,,,,,,,,,,,,,,,,,,,,883.884,884.974,z,1,1.079,,884.974,884.974,,0,358,358,347,1,348,tekram,,,,,6,notharmonic,1.95,nw,z,,,,,,,
,,,,,,,,,,,,001,2023-11-08_00h08.19.836,vowel_harmony,2023.2.3,iPad,62.5,884.974,885.968,,,,,,,,,,,,,,,,,,,,,,,,,,885.968,886.516,m,1,0.536,,886.516,886.516,,0,359,359,161,1,162,komik,1617,73.4701,1506,0.1646,5,notharmonic,1.75,word,m,,,,,,,
,,,,,,,,,,,,001,2023-11-08_00h08.19.836,vowel_harmony,2023.2.3,iPad,62.5,,,,,,,,,,,,,,,,,,,,,,,,,,,,,,,,,,,,,,,,,,,,,,,,,,,,,,,886.517,888.77,space,2.237,