welcome.started,welcome.stopped,key_resp_welc.keys,key_resp_welc.rt,key_resp_welc.duration,trials_2.thisRepN,trials_2.thisTrialN,trials_2.thisN,trials_2.thisIndex,trials_2.ran,Introduction,participant,Email Adresiniz,session,date,expName,psychopyVersion,OS,frameRate,fix.started,fix.stopped,Studypractice.started,Studypractice.stopped,key_resp_p.keys,key_resp_p.corr,key_resp_p.rt,key_resp_p.duration,rt,corr,FB.started,FB.stopped,trials.thisRepN,trials.thisTrialN,trials.thisN,trials.thisIndex,trials.ran,item_nr_p,target_p,isHarmonic_p,target_cond_p,CorrAns_p,inst2.started,inst2.stopped,key_resp_xx.keys,key_resp_xx.rt,key_resp_xx.duration,TestTrial.started,TestTrial.stopped,key_respTest.keys,key_respTest.corr,key_respTest.rt,key_respTest.duration,Pause.started,Pause.stopped,key_resp_pause.keys,trials_3.thisRepN,trials_3.thisTrialN,trials_3.thisN,trials_3.thisIndex,trials_3.ran,item_nr,target,BlogFreq,BlogFreqPm,BlogCD,BlogCDPc,WordLength,isHarmonic,old20,Zipf,CorrAns,word_cond,key_resp_pause.rt,key_resp_pause.duration,Bye.started,Bye.stopped,key_resp_bye.keys,key_resp_bye.rt,key_resp_bye.duration
0.012,1.784,space,1.75,,0,0,0,0,1,"Deneye hoş geldiniz,

Devam etmek için BOŞLUK tuşuna basınız.",281442,,001,2024-02-15_17h04.29.058,VH_new_version2,2023.2.3,MacIntel,55.55555556,,,,,,,,,,,,,,,,,,,,,,,,,,,,,,,,,,,,,,,,,,,,,,,,,,,,,,,,,,,,
1.785,3.735,space,1.919,,0,1,1,1,1,"Bu çalışma Valencia Üniversitesi kapsamında yürütülmektedir. Deneydeki göreviniz, ekrana çıkacak Türkçe sözcüklerin kelime olup olmadığını belirlemenizdir. Eğer sözcük gerçek bir kelime ise ""m"" tuşuna, değil ise ""z"" tuşuna basınız.   

Devam etmek için BOŞLUK tuşuna basınız.",281442,,001,2024-02-15_17h04.29.058,VH_new_version2,2023.2.3,MacIntel,55.55555556,,,,,,,,,,,,,,,,,,,,,,,,,,,,,,,,,,,,,,,,,,,,,,,,,,,,,,,,,,,,
3.736,5.002,space,1.236,,0,2,2,2,1,"Her sözcük için en fazla iki saniyede cevap vermeniz beklenmektedir. Aksi takdirde deney bir sonraki sözcük ile devam eder. 
Bu çalışmada oldukça hızlı ve doğru cevaplama yapmanız beklenmektedir.

Devam etmek için BOŞLUK tuşuna basınız.",281442,,001,2024-02-15_17h04.29.058,VH_new_version2,2023.2.3,MacIntel,55.55555556,,,,,,,,,,,,,,,,,,,,,,,,,,,,,,,,,,,,,,,,,,,,,,,,,,,,,,,,,,,,
5.002,6.584,space,1.552,,0,3,3,3,1,"Çalışmaya başlamadan önce ufak bir pratik yer almaktadır.
Kelimedir: ""m""
Kelime değildir: ""z""

Pratik teste başlamak için BOŞLUK tuşuna basınız. ",281442,,001,2024-02-15_17h04.29.058,VH_new_version2,2023.2.3,MacIntel,55.55555556,,,,,,,,,,,,,,,,,,,,,,,,,,,,,,,,,,,,,,,,,,,,,,,,,,,,,,,,,,,,
,,,,,,,,,,,281442,,001,2024-02-15_17h04.29.058,VH_new_version2,2023.2.3,MacIntel,55.55555556,6.595,7.586,7.586,8.753,m,1,1.14,,1.14,1,8.754,9.753,0,0,0,9,1,10,zarar,harmonic,word,m,,,,,,,,,,,,,,,,,,,,,,,,,,,,,,,,,,,,,,
,,,,,,,,,,,281442,,001,2024-02-15_17h04.29.058,VH_new_version2,2023.2.3,MacIntel,55.55555556,9.754,10.752,10.752,11.335,m,1,0.565,,0.565,1,11.335,12.335,0,1,1,6,1,7,sebep,harmonic,word,m,,,,,,,,,,,,,,,,,,,,,,,,,,,,,,,,,,,,,,
,,,,,,,,,,,281442,,001,2024-02-15_17h04.29.058,VH_new_version2,2023.2.3,MacIntel,55.55555556,12.336,13.335,13.335,14.119,z,1,0.763,,0.763,1,14.119,15.119,0,2,2,23,1,24,zarim,notharmonic,nw,z,,,,,,,,,,,,,,,,,,,,,,,,,,,,,,,,,,,,,,
,,,,,,,,,,,281442,,001,2024-02-15_17h04.29.058,VH_new_version2,2023.2.3,MacIntel,55.55555556,15.119,16.119,16.119,16.886,m,1,0.744,,0.744,1,16.886,17.885,0,3,3,2,1,3,yardım,harmonic,word,m,,,,,,,,,,,,,,,,,,,,,,,,,,,,,,,,,,,,,,
,,,,,,,,,,,281442,,001,2024-02-15_17h04.29.058,VH_new_version2,2023.2.3,MacIntel,55.55555556,17.886,18.885,18.885,19.652,z,1,0.745,,0.745,1,19.652,20.652,0,4,4,22,1,23,gizım,notharmonic,nw,z,,,,,,,,,,,,,,,,,,,,,,,,,,,,,,,,,,,,,,
,,,,,,,,,,,281442,,001,2024-02-15_17h04.29.058,VH_new_version2,2023.2.3,MacIntel,55.55555556,20.653,21.652,21.652,22.236,m,1,0.567,,0.567,1,22.236,23.235,0,5,5,10,1,11,nefret,harmonic,word,m,,,,,,,,,,,,,,,,,,,,,,,,,,,,,,,,,,,,,,
,,,,,,,,,,,281442,,001,2024-02-15_17h04.29.058,VH_new_version2,2023.2.3,MacIntel,55.55555556,23.236,24.236,24.237,24.936,z,1,0.683,,0.683,1,24.936,25.935,0,6,6,17,1,18,pilar,notharmonic,nw,z,,,,,,,,,,,,,,,,,,,,,,,,,,,,,,,,,,,,,,
,,,,,,,,,,,281442,,001,2024-02-15_17h04.29.058,VH_new_version2,2023.2.3,MacIntel,55.55555556,25.935,26.936,26.936,27.703,m,1,0.745,,0.745,1,27.703,28.702,0,7,7,5,1,6,gizli,harmonic,word,m,,,,,,,,,,,,,,,,,,,,,,,,,,,,,,,,,,,,,,
,,,,,,,,,,,281442,,001,2024-02-15_17h04.29.058,VH_new_version2,2023.2.3,MacIntel,55.55555556,28.702,29.703,29.703,30.336,m,1,0.612,,0.612,1,30.336,31.336,0,8,8,0,1,1,hazır,harmonic,word,m,,,,,,,,,,,,,,,,,,,,,,,,,,,,,,,,,,,,,,
,,,,,,,,,,,281442,,001,2024-02-15_17h04.29.058,VH_new_version2,2023.2.3,MacIntel,55.55555556,31.337,32.336,32.336,33.019,z,1,0.662,,0.662,1,33.019,34.019,0,9,9,15,1,16,geki,harmonic,nw,z,,,,,,,,,,,,,,,,,,,,,,,,,,,,,,,,,,,,,,
,,,,,,,,,,,281442,,001,2024-02-15_17h04.29.058,VH_new_version2,2023.2.3,MacIntel,55.55555556,34.02,35.019,35.02,35.736,m,1,0.702,,0.702,1,35.736,36.736,0,10,10,8,1,9,bilim,harmonic,word,m,,,,,,,,,,,,,,,,,,,,,,,,,,,,,,,,,,,,,,
,,,,,,,,,,,281442,,001,2024-02-15_17h04.29.058,VH_new_version2,2023.2.3,MacIntel,55.55555556,36.737,37.735,37.736,38.403,z,1,0.644,,0.644,1,38.403,39.403,0,11,11,20,1,21,yoğuk,harmonic,nw,z,,,,,,,,,,,,,,,,,,,,,,,,,,,,,,,,,,,,,,
,,,,,,,,,,,281442,,001,2024-02-15_17h04.29.058,VH_new_version2,2023.2.3,MacIntel,55.55555556,39.404,40.403,40.403,41.02,m,1,0.601,,0.601,1,41.02,42.019,0,12,12,3,1,4,sevgi,harmonic,word,m,,,,,,,,,,,,,,,,,,,,,,,,,,,,,,,,,,,,,,
,,,,,,,,,,,281442,,001,2024-02-15_17h04.29.058,VH_new_version2,2023.2.3,MacIntel,55.55555556,42.019,43.02,43.02,43.603,z,1,0.561,,0.561,1,43.603,44.603,0,13,13,18,1,19,pimer,harmonic,nw,z,,,,,,,,,,,,,,,,,,,,,,,,,,,,,,,,,,,,,,
,,,,,,,,,,,281442,,001,2024-02-15_17h04.29.058,VH_new_version2,2023.2.3,MacIntel,55.55555556,44.604,45.603,45.603,46.42,z,1,0.796,,0.796,1,46.42,47.42,0,14,14,12,1,13,tahip,notharmonic,nw,z,,,,,,,,,,,,,,,,,,,,,,,,,,,,,,,,,,,,,,
,,,,,,,,,,,281442,,001,2024-02-15_17h04.29.058,VH_new_version2,2023.2.3,MacIntel,55.55555556,47.42,48.42,48.42,49.037,z,1,0.594,,0.594,1,49.037,50.037,0,15,15,13,1,14,orat,harmonic,nw,z,,,,,,,,,,,,,,,,,,,,,,,,,,,,,,,,,,,,,,
,,,,,,,,,,,281442,,001,2024-02-15_17h04.29.058,VH_new_version2,2023.2.3,MacIntel,55.55555556,50.038,51.037,51.037,51.67,z,1,0.615,,0.615,1,51.67,52.67,0,16,16,14,1,15,mahne,notharmonic,nw,z,,,,,,,,,,,,,,,,,,,,,,,,,,,,,,,,,,,,,,
,,,,,,,,,,,281442,,001,2024-02-15_17h04.29.058,VH_new_version2,2023.2.3,MacIntel,55.55555556,52.671,53.67,53.67,54.204,z,1,0.513,,0.513,1,54.204,55.204,0,17,17,16,1,17,ihlot,notharmonic,nw,z,,,,,,,,,,,,,,,,,,,,,,,,,,,,,,,,,,,,,,
,,,,,,,,,,,281442,,001,2024-02-15_17h04.29.058,VH_new_version2,2023.2.3,MacIntel,55.55555556,55.204,56.204,56.204,56.62,m,1,0.399,,0.399,1,56.62,57.62,0,18,18,4,1,5,soğuk,harmonic,word,m,,,,,,,,,,,,,,,,,,,,,,,,,,,,,,,,,,,,,,
,,,,,,,,,,,281442,,001,2024-02-15_17h04.29.058,VH_new_version2,2023.2.3,MacIntel,55.55555556,57.621,58.621,58.621,59.337,z,1,0.696,,0.696,1,59.337,60.337,0,19,19,21,1,22,güçli,harmonic,nw,z,,,,,,,,,,,,,,,,,,,,,,,,,,,,,,,,,,,,,,
,,,,,,,,,,,281442,,001,2024-02-15_17h04.29.058,VH_new_version2,2023.2.3,MacIntel,55.55555556,60.338,61.337,61.337,62.071,m,1,0.713,,0.713,1,62.071,63.071,0,20,20,7,1,8,oran,harmonic,word,m,,,,,,,,,,,,,,,,,,,,,,,,,,,,,,,,,,,,,,
,,,,,,,,,,,281442,,001,2024-02-15_17h04.29.058,VH_new_version2,2023.2.3,MacIntel,55.55555556,63.071,64.07,64.071,64.554,z,0,0.462,,0.462,0,64.554,65.553,0,21,21,1,1,2,veri,harmonic,word,m,,,,,,,,,,,,,,,,,,,,,,,,,,,,,,,,,,,,,,
,,,,,,,,,,,281442,,001,2024-02-15_17h04.29.058,VH_new_version2,2023.2.3,MacIntel,55.55555556,65.554,66.553,66.553,67.671,m,1,1.097,,1.097,1,67.671,68.671,0,22,22,11,1,12,teslim,harmonic,word,m,,,,,,,,,,,,,,,,,,,,,,,,,,,,,,,,,,,,,,
,,,,,,,,,,,281442,,001,2024-02-15_17h04.29.058,VH_new_version2,2023.2.3,MacIntel,55.55555556,68.672,69.67,69.671,70.188,z,1,0.504,,0.504,1,70.188,71.188,0,23,23,19,1,20,mımal,harmonic,nw,z,,,,,,,,,,,,,,,,,,,,,,,,,,,,,,,,,,,,,,
,,,,,,,,,,,281442,,001,2024-02-15_17h04.29.058,VH_new_version2,2023.2.3,MacIntel,55.55555556,,,,,,,,,,,,,,,,,,,,,,,71.189,73.489,space,2.268,,,,,,,,,,,,,,,,,,,,,,,,,,,,,,,,,,
,,,,,,,,,,,281442,,001,2024-02-15_17h04.29.058,VH_new_version2,2023.2.3,MacIntel,55.55555556,73.513,74.505,,,,,,,,,,,,,,,,,,,,,,,,,,74.506,75.272,z,1,0.744,,75.273,75.275,,0,0,0,218,1,219,ecmu,,,,,4,notharmonic,2,,z,nw,,,,,,,
,,,,,,,,,,,281442,,001,2024-02-15_17h04.29.058,VH_new_version2,2023.2.3,MacIntel,55.55555556,75.276,76.271,,,,,,,,,,,,,,,,,,,,,,,,,,76.272,76.972,m,1,0.68,,76.972,76.972,,0,1,1,46,1,47,hayat,7922,359.9443,7314,0.7996,5,harmonic,1.35,5.556235301,m,w,,,,,,,
,,,,,,,,,,,281442,,001,2024-02-15_17h04.29.058,VH_new_version2,2023.2.3,MacIntel,55.55555556,76.973,77.972,,,,,,,,,,,,,,,,,,,,,,,,,,77.972,78.654,z,1,0.662,,78.655,78.655,,0,2,2,179,1,180,şünle,,,,,5,harmonic,1.75,,z,nw,,,,,,,
,,,,,,,,,,,281442,,001,2024-02-15_17h04.29.058,VH_new_version2,2023.2.3,MacIntel,55.55555556,78.656,79.655,,,,,,,,,,,,,,,,,,,,,,,,,,79.655,80.938,m,1,1.261,,80.938,80.938,,0,3,3,98,1,99,bilim,2828,128.4931,2382,0.2604,5,harmonic,1,5.108879807,m,w,,,,,,,
,,,,,,,,,,,281442,,001,2024-02-15_17h04.29.058,VH_new_version2,2023.2.3,MacIntel,55.55555556,80.939,81.938,,,,,,,,,,,,,,,,,,,,,,,,,,81.938,82.538,m,1,0.578,,82.538,82.538,,0,4,4,139,1,140,teklif,913,41.4831,848,0.0927,6,harmonic,1.7,4.617871203,m,w,,,,,,,
,,,,,,,,,,,281442,,001,2024-02-15_17h04.29.058,VH_new_version2,2023.2.3,MacIntel,55.55555556,82.539,83.538,,,,,,,,,,,,,,,,,,,,,,,,,,83.539,84.038,m,1,0.476,,84.039,84.039,,0,5,5,23,1,24,evet,12599,572.4486,11447,1.2514,4,harmonic,1.65,5.757736498,m,w,,,,,,,
,,,,,,,,,,,281442,,001,2024-02-15_17h04.29.058,VH_new_version2,2023.2.3,MacIntel,55.55555556,84.04,85.038,,,,,,,,,,,,,,,,,,,,,,,,,,85.038,85.488,m,1,0.429,,85.489,85.489,,0,6,6,94,1,95,bebek,3301,149.9843,2794,0.3054,5,harmonic,1.6,5.176045801,m,w,,,,,,,
,,,,,,,,,,,281442,,001,2024-02-15_17h04.29.058,VH_new_version2,2023.2.3,MacIntel,55.55555556,85.489,86.488,,,,,,,,,,,,,,,,,,,,,,,,,,86.488,86.954,m,1,0.447,,86.954,86.955,,0,7,7,16,1,17,umut,1988,90.3268,1818,0.1987,4,harmonic,1.55,4.955816625,m,w,,,,,,,
,,,,,,,,,,,281442,,001,2024-02-15_17h04.29.058,VH_new_version2,2023.2.3,MacIntel,55.55555556,86.955,87.955,,,,,,,,,,,,,,,,,,,,,,,,,,87.955,88.422,z,0,0.446,,88.422,88.422,,0,8,8,129,1,130,peynir,1421,64.5646,1248,0.1364,6,harmonic,1.9,4.809994465,m,w,,,,,,,
,,,,,,,,,,,281442,,001,2024-02-15_17h04.29.058,VH_new_version2,2023.2.3,MacIntel,55.55555556,88.423,89.422,,,,,,,,,,,,,,,,,,,,,,,,,,89.422,90.022,m,1,0.58,,90.022,90.022,,0,9,9,126,1,127,millet,1658,75.3329,1508,0.1649,6,harmonic,1.7,4.876984686,m,w,,,,,,,
,,,,,,,,,,,281442,,001,2024-02-15_17h04.29.058,VH_new_version2,2023.2.3,MacIntel,55.55555556,90.023,91.022,,,,,,,,,,,,,,,,,,,,,,,,,,91.023,91.505,m,1,0.465,,91.506,91.506,,0,10,10,136,1,137,tebrik,1117,50.7521,1102,0.1205,6,harmonic,1.85,4.705454017,m,w,,,,,,,
,,,,,,,,,,,281442,,001,2024-02-15_17h04.29.058,VH_new_version2,2023.2.3,MacIntel,55.55555556,91.506,92.505,,,,,,,,,,,,,,,,,,,,,,,,,,92.505,93.239,m,1,0.714,,93.239,93.239,,0,11,11,117,1,118,çiçek,2071,94.098,1772,0.1937,5,harmonic,1.95,4.973580393,m,w,,,,,,,
,,,,,,,,,,,281442,,001,2024-02-15_17h04.29.058,VH_new_version2,2023.2.3,MacIntel,55.55555556,93.24,94.239,,,,,,,,,,,,,,,,,,,,,,,,,,94.239,94.672,m,1,0.413,,94.672,94.672,,0,12,12,130,1,131,başarı,1398,63.5196,1300,0.1421,6,harmonic,1.2,4.802907755,m,w,,,,,,,
,,,,,,,,,,,281442,,001,2024-02-15_17h04.29.058,VH_new_version2,2023.2.3,MacIntel,55.55555556,94.673,95.672,,,,,,,,,,,,,,,,,,,,,,,,,,95.673,96.322,z,1,0.629,,96.322,96.323,,0,13,13,204,1,205,kürfür,,,,,6,harmonic,1.95,,z,nw,,,,,,,
,,,,,,,,,,,281442,,001,2024-02-15_17h04.29.058,VH_new_version2,2023.2.3,MacIntel,55.55555556,96.323,97.322,,,,,,,,,,,,,,,,,,,,,,,,,,97.322,98.272,z,1,0.928,,98.273,98.273,,0,14,14,265,1,266,terhan,,,,,6,notharmonic,1.95,,z,nw,,,,,,,
,,,,,,,,,,,281442,,001,2024-02-15_17h04.29.058,VH_new_version2,2023.2.3,MacIntel,55.55555556,98.274,99.272,,,,,,,,,,,,,,,,,,,,,,,,,,99.272,99.922,z,1,0.637,,99.922,99.922,,0,15,15,228,1,229,idna,,,,,4,notharmonic,1.8,,z,nw,,,,,,,
,,,,,,,,,,,281442,,001,2024-02-15_17h04.29.058,VH_new_version2,2023.2.3,MacIntel,55.55555556,99.923,100.922,,,,,,,,,,,,,,,,,,,,,,,,,,100.923,101.473,z,1,0.53,,101.473,101.473,,0,16,16,187,1,188,ahfam,,,,,5,harmonic,1.85,,z,nw,,,,,,,
,,,,,,,,,,,281442,,001,2024-02-15_17h04.29.058,VH_new_version2,2023.2.3,MacIntel,55.55555556,101.473,102.473,,,,,,,,,,,,,,,,,,,,,,,,,,102.473,103.055,z,1,0.563,,103.055,103.056,,0,17,17,177,1,178,akapı,,,,,5,harmonic,1.8,,z,nw,,,,,,,
,,,,,,,,,,,281442,,001,2024-02-15_17h04.29.058,VH_new_version2,2023.2.3,MacIntel,55.55555556,103.056,104.056,,,,,,,,,,,,,,,,,,,,,,,,,,104.056,104.673,m,1,0.596,,104.673,104.673,,0,18,18,80,1,81,ahlak,641,29.1245,543,0.0594,5,harmonic,1.35,4.464258478,m,w,,,,,,,
,,,,,,,,,,,281442,,001,2024-02-15_17h04.29.058,VH_new_version2,2023.2.3,MacIntel,55.55555556,104.673,105.673,,,,,,,,,,,,,,,,,,,,,,,,,,105.673,106.322,z,1,0.629,,106.323,106.323,,0,19,19,186,1,187,erbik,,,,,5,harmonic,1.75,,z,nw,,,,,,,
,,,,,,,,,,,281442,,001,2024-02-15_17h04.29.058,VH_new_version2,2023.2.3,MacIntel,55.55555556,106.323,107.322,,,,,,,,,,,,,,,,,,,,,,,,,,107.323,107.923,z,1,0.58,,107.923,107.923,,0,20,20,176,1,177,çırna,,,,,5,harmonic,1.85,,z,nw,,,,,,,
,,,,,,,,,,,281442,,001,2024-02-15_17h04.29.058,VH_new_version2,2023.2.3,MacIntel,55.55555556,107.924,108.922,,,,,,,,,,,,,,,,,,,,,,,,,,108.922,109.49,m,1,0.548,,109.49,109.49,,0,21,21,51,1,52,yaprak,739,33.5772,678,0.0741,6,harmonic,1.7,4.526044478,m,w,,,,,,,
,,,,,,,,,,,281442,,001,2024-02-15_17h04.29.058,VH_new_version2,2023.2.3,MacIntel,55.55555556,109.491,110.49,,,,,,,,,,,,,,,,,,,,,,,,,,110.49,111.24,z,1,0.728,,111.24,111.24,,0,22,22,210,1,211,bellet,,,,,6,harmonic,1.65,,z,nw,,,,,,,
,,,,,,,,,,,281442,,001,2024-02-15_17h04.29.058,VH_new_version2,2023.2.3,MacIntel,55.55555556,111.241,112.24,,,,,,,,,,,,,,,,,,,,,,,,,,112.24,112.806,m,1,0.544,,112.806,112.806,,0,23,23,42,1,43,şeker,4708,213.9128,4170,0.4559,5,harmonic,1.6,5.330236772,m,w,,,,,,,
,,,,,,,,,,,281442,,001,2024-02-15_17h04.29.058,VH_new_version2,2023.2.3,MacIntel,55.55555556,112.807,113.806,,,,,,,,,,,,,,,,,,,,,,,,,,113.806,114.373,z,0,0.546,,114.373,114.373,,0,24,24,21,1,22,kötü,9344,424.5543,8257,0.9027,4,harmonic,1.65,5.627933244,m,w,,,,,,,
,,,,,,,,,,,281442,,001,2024-02-15_17h04.29.058,VH_new_version2,2023.2.3,MacIntel,55.55555556,114.374,115.373,,,,,,,,,,,,,,,,,,,,,,,,,,115.373,115.99,z,1,0.595,,115.99,115.99,,0,25,25,189,1,190,genek,,,,,5,harmonic,1.6,,z,nw,,,,,,,
,,,,,,,,,,,281442,,001,2024-02-15_17h04.29.058,VH_new_version2,2023.2.3,MacIntel,55.55555556,115.991,116.99,,,,,,,,,,,,,,,,,,,,,,,,,,116.99,117.707,m,1,0.702,,117.707,117.707,,0,26,26,5,1,6,üzüm,716,32.5322,588,0.0643,4,harmonic,1.45,4.512313434,m,w,,,,,,,
,,,,,,,,,,,281442,,001,2024-02-15_17h04.29.058,VH_new_version2,2023.2.3,MacIntel,55.55555556,117.708,118.707,,,,,,,,,,,,,,,,,,,,,,,,,,118.707,119.307,z,1,0.585,,119.307,119.307,,0,27,27,250,1,251,hapef,,,,,5,notharmonic,1.95,,z,nw,,,,,,,
,,,,,,,,,,,281442,,001,2024-02-15_17h04.29.058,VH_new_version2,2023.2.3,MacIntel,55.55555556,119.307,120.307,,,,,,,,,,,,,,,,,,,,,,,,,,120.307,121.007,m,1,0.678,,121.007,121.007,,0,28,28,102,1,103,toplum,2562,116.4071,2249,0.2459,6,harmonic,1.65,5.06597947,m,w,,,,,,,
,,,,,,,,,,,281442,,001,2024-02-15_17h04.29.058,VH_new_version2,2023.2.3,MacIntel,55.55555556,121.008,122.007,,,,,,,,,,,,,,,,,,,,,,,,,,122.007,122.656,z,1,0.63,,122.656,122.656,,0,29,29,245,1,246,gaset,,,,,5,notharmonic,1.85,,z,nw,,,,,,,
,,,,,,,,,,,281442,,001,2024-02-15_17h04.29.058,VH_new_version2,2023.2.3,MacIntel,55.55555556,122.657,123.657,,,,,,,,,,,,,,,,,,,,,,,,,,123.657,124.257,z,1,0.584,,124.257,124.258,,0,30,30,146,1,147,öğne,,,,,4,harmonic,1.7,,z,nw,,,,,,,
,,,,,,,,,,,281442,,001,2024-02-15_17h04.29.058,VH_new_version2,2023.2.3,MacIntel,55.55555556,124.258,125.257,,,,,,,,,,,,,,,,,,,,,,,,,,125.257,125.957,m,1,0.682,,125.957,125.958,,0,31,31,77,1,78,çanta,639,29.0336,551,0.0602,5,harmonic,1.6,4.462900889,m,w,,,,,,,
,,,,,,,,,,,281442,,001,2024-02-15_17h04.29.058,VH_new_version2,2023.2.3,MacIntel,55.55555556,125.958,126.957,,,,,,,,,,,,,,,,,,,,,,,,,,126.957,127.723,z,0,0.745,,127.724,127.724,,0,32,32,37,1,38,cümle,1911,86.8283,1765,0.193,5,harmonic,1.85,4.938661298,m,w,,,,,,,
,,,,,,,,,,,281442,,001,2024-02-15_17h04.29.058,VH_new_version2,2023.2.3,MacIntel,55.55555556,127.724,128.724,,,,,,,,,,,,,,,,,,,,,,,,,,128.724,129.341,z,1,0.599,,129.341,129.341,,0,33,33,268,1,269,mucepi,,,,,6,notharmonic,2.85,,z,nw,,,,,,,
,,,,,,,,,,,281442,,001,2024-02-15_17h04.29.058,VH_new_version2,2023.2.3,MacIntel,55.55555556,129.342,130.341,,,,,,,,,,,,,,,,,,,,,,,,,,130.341,130.924,m,1,0.563,,130.924,130.924,,0,34,34,132,1,133,abla,1287,58.4762,1156,0.1264,4,harmonic,1,4.766979143,m,w,,,,,,,
,,,,,,,,,,,281442,,001,2024-02-15_17h04.29.058,VH_new_version2,2023.2.3,MacIntel,55.55555556,130.925,131.924,,,,,,,,,,,,,,,,,,,,,,,,,,131.924,132.374,m,1,0.43,,132.374,132.375,,0,35,35,113,1,114,görev,2159,98.0964,1998,0.2184,5,harmonic,1.75,4.99165307,m,w,,,,,,,
,,,,,,,,,,,281442,,001,2024-02-15_17h04.29.058,VH_new_version2,2023.2.3,MacIntel,55.55555556,132.375,133.374,,,,,,,,,,,,,,,,,,,,,,,,,,133.374,133.974,m,1,0.58,,133.974,133.975,,0,36,36,84,1,85,eğitim,4784,217.366,3846,0.4204,6,harmonic,1.5,5.337191613,m,w,,,,,,,
,,,,,,,,,,,281442,,001,2024-02-15_17h04.29.058,VH_new_version2,2023.2.3,MacIntel,55.55555556,133.975,134.974,,,,,,,,,,,,,,,,,,,,,,,,,,134.974,135.407,z,0,0.415,,135.407,135.408,,0,37,37,25,1,26,orman,819,37.2121,705,0.0771,5,harmonic,1.3,4.570684179,m,w,,,,,,,
,,,,,,,,,,,281442,,001,2024-02-15_17h04.29.058,VH_new_version2,2023.2.3,MacIntel,55.55555556,135.408,136.407,,,,,,,,,,,,,,,,,,,,,,,,,,136.407,137.124,z,1,0.697,,137.124,137.124,,0,38,38,222,1,223,laze,,,,,4,notharmonic,1.7,,z,nw,,,,,,,
,,,,,,,,,,,281442,,001,2024-02-15_17h04.29.058,VH_new_version2,2023.2.3,MacIntel,55.55555556,137.125,138.124,,,,,,,,,,,,,,,,,,,,,,,,,,138.124,138.608,m,1,0.465,,138.608,138.608,,0,39,39,30,1,31,pamuk,937,42.5736,826,0.0903,5,harmonic,1.9,4.629140375,m,w,,,,,,,
,,,,,,,,,,,281442,,001,2024-02-15_17h04.29.058,VH_new_version2,2023.2.3,MacIntel,55.55555556,138.609,139.608,,,,,,,,,,,,,,,,,,,,,,,,,,139.608,140.057,m,0,0.43,,140.057,140.057,,0,40,40,238,1,239,labin,,,,,5,notharmonic,1.65,,z,nw,,,,,,,
,,,,,,,,,,,281442,,001,2024-02-15_17h04.29.058,VH_new_version2,2023.2.3,MacIntel,55.55555556,140.058,141.058,,,,,,,,,,,,,,,,,,,,,,,,,,141.058,141.908,m,1,0.832,,141.908,141.908,,0,41,41,22,1,23,özel,9726,441.9109,8559,0.9357,4,harmonic,1.35,5.645334714,m,w,,,,,,,
,,,,,,,,,,,281442,,001,2024-02-15_17h04.29.058,VH_new_version2,2023.2.3,MacIntel,55.55555556,141.909,142.908,,,,,,,,,,,,,,,,,,,,,,,,,,142.908,143.625,m,1,0.697,,143.625,143.625,,0,42,42,131,1,132,doğa,1381,62.7472,1180,0.129,4,harmonic,1,4.797594351,m,w,,,,,,,
,,,,,,,,,,,281442,,001,2024-02-15_17h04.29.058,VH_new_version2,2023.2.3,MacIntel,55.55555556,143.625,144.625,,,,,,,,,,,,,,,,,,,,,,,,,,144.625,145.241,z,1,0.6,,145.241,145.241,,0,43,43,234,1,235,ated,,,,,4,notharmonic,1.8,,z,nw,,,,,,,
,,,,,,,,,,,281442,,001,2024-02-15_17h04.29.058,VH_new_version2,2023.2.3,MacIntel,55.55555556,145.242,146.241,,,,,,,,,,,,,,,,,,,,,,,,,,146.241,147.008,m,1,0.747,,147.008,147.008,,0,44,44,38,1,39,fikir,2552,115.9528,2413,0.2638,5,harmonic,1.9,5.06428124,m,w,,,,,,,
,,,,,,,,,,,281442,,001,2024-02-15_17h04.29.058,VH_new_version2,2023.2.3,MacIntel,55.55555556,147.009,148.008,,,,,,,,,,,,,,,,,,,,,,,,,,148.008,148.724,z,1,0.695,,148.724,148.724,,0,45,45,185,1,186,birpi,,,,,5,harmonic,1.75,,z,nw,,,,,,,
,,,,,,,,,,,281442,,001,2024-02-15_17h04.29.058,VH_new_version2,2023.2.3,MacIntel,55.55555556,148.725,149.725,,,,,,,,,,,,,,,,,,,,,,,,,,149.725,150.508,m,1,0.763,,150.508,150.508,,0,46,46,108,1,109,hayvan,2363,107.3653,1894,0.2071,6,harmonic,1.5,5.030863942,m,w,,,,,,,
,,,,,,,,,,,281442,,001,2024-02-15_17h04.29.058,VH_new_version2,2023.2.3,MacIntel,55.55555556,150.509,151.508,,,,,,,,,,,,,,,,,,,,,,,,,,151.508,152.192,z,1,0.663,,152.192,152.192,,0,47,47,188,1,189,yahat,,,,,5,harmonic,1.8,,z,nw,,,,,,,
,,,,,,,,,,,281442,,001,2024-02-15_17h04.29.058,VH_new_version2,2023.2.3,MacIntel,55.55555556,152.192,153.192,,,,,,,,,,,,,,,,,,,,,,,,,,153.192,153.908,z,1,0.696,,153.908,153.908,,0,48,48,254,1,255,hadir,,,,,5,notharmonic,1.4,,z,nw,,,,,,,
,,,,,,,,,,,281442,,001,2024-02-15_17h04.29.058,VH_new_version2,2023.2.3,MacIntel,55.55555556,153.909,154.908,,,,,,,,,,,,,,,,,,,,,,,,,,154.908,155.458,z,1,0.529,,155.459,155.459,,0,49,49,181,1,182,masus,,,,,5,harmonic,1.7,,z,nw,,,,,,,
,,,,,,,,,,,281442,,001,2024-02-15_17h04.29.058,VH_new_version2,2023.2.3,MacIntel,55.55555556,155.459,156.458,,,,,,,,,,,,,,,,,,,,,,,,,,156.458,157.409,z,1,0.928,,157.409,157.409,,0,50,50,281,1,282,tashin,,,,,6,notharmonic,1.85,,z,nw,,,,,,,
,,,,,,,,,,,281442,,001,2024-02-15_17h04.29.058,VH_new_version2,2023.2.3,MacIntel,55.55555556,157.409,158.409,,,,,,,,,,,,,,,,,,,,,,,,,,158.409,159.092,z,1,0.667,,159.092,159.092,,0,51,51,151,1,152,uban,,,,,4,harmonic,1.35,,z,nw,,,,,,,
,,,,,,,,,,,281442,,001,2024-02-15_17h04.29.058,VH_new_version2,2023.2.3,MacIntel,55.55555556,159.092,160.092,,,,,,,,,,,,,,,,,,,,,,,,,,160.092,160.642,z,1,0.532,,160.642,160.642,,0,52,52,221,1,222,mane,,,,,4,notharmonic,1.4,,z,nw,,,,,,,
,,,,,,,,,,,281442,,001,2024-02-15_17h04.29.058,VH_new_version2,2023.2.3,MacIntel,55.55555556,160.643,161.642,,,,,,,,,,,,,,,,,,,,,,,,,,161.642,162.292,m,1,0.628,,162.292,162.292,,0,53,53,69,1,70,yüksek,7909,359.3536,7119,0.7783,6,harmonic,1.7,5.555522,m,w,,,,,,,
,,,,,,,,,,,281442,,001,2024-02-15_17h04.29.058,VH_new_version2,2023.2.3,MacIntel,55.55555556,162.293,163.292,,,,,,,,,,,,,,,,,,,,,,,,,,163.292,164.159,z,1,0.849,,164.159,164.159,,0,54,54,248,1,249,talif,,,,,5,notharmonic,1.5,,z,nw,,,,,,,
,,,,,,,,,,,281442,,001,2024-02-15_17h04.29.058,VH_new_version2,2023.2.3,MacIntel,55.55555556,164.16,165.159,,,,,,,,,,,,,,,,,,,,,,,,,,165.159,165.792,m,1,0.614,,165.792,165.792,,0,55,55,127,1,128,kaynak,1577,71.6526,1481,0.1619,6,harmonic,1.4,4.855231954,m,w,,,,,,,
,,,,,,,,,,,281442,,001,2024-02-15_17h04.29.058,VH_new_version2,2023.2.3,MacIntel,55.55555556,165.793,166.792,,,,,,,,,,,,,,,,,,,,,,,,,,166.792,167.409,z,1,0.596,,167.409,167.409,,0,56,56,229,1,230,irar,,,,,4,notharmonic,1.65,,z,nw,,,,,,,
,,,,,,,,,,,281442,,001,2024-02-15_17h04.29.058,VH_new_version2,2023.2.3,MacIntel,55.55555556,167.41,168.408,,,,,,,,,,,,,,,,,,,,,,,,,,168.408,169.46,m,1,1.031,,169.46,169.46,,0,57,57,95,1,96,sanat,3121,141.8059,2485,0.2717,5,harmonic,1.4,5.151694301,m,w,,,,,,,
,,,,,,,,,,,281442,,001,2024-02-15_17h04.29.058,VH_new_version2,2023.2.3,MacIntel,55.55555556,169.46,170.459,,,,,,,,,,,,,,,,,,,,,,,,,,170.459,171.093,z,1,0.614,,171.093,171.093,,0,58,58,200,1,201,tuzrak,,,,,6,harmonic,1.95,,z,nw,,,,,,,
,,,,,,,,,,,281442,,001,2024-02-15_17h04.29.058,VH_new_version2,2023.2.3,MacIntel,55.55555556,171.093,172.092,,,,,,,,,,,,,,,,,,,,,,,,,,172.092,173.242,z,1,1.133,,173.243,173.243,,0,59,59,219,1,220,anel,,,,,4,notharmonic,1.7,,z,nw,,,,,,,
,,,,,,,,,,,281442,,001,2024-02-15_17h04.29.058,VH_new_version2,2023.2.3,MacIntel,55.55555556,173.243,174.243,,,,,,,,,,,,,,,,,,,,,,,,,,174.243,174.875,m,1,0.618,,174.875,174.875,,0,60,60,92,1,93,yarın,3440,156.3,3222,0.3522,5,harmonic,1,5.193958978,m,w,,,,,,,
,,,,,,,,,,,281442,,001,2024-02-15_17h04.29.058,VH_new_version2,2023.2.3,MacIntel,55.55555556,174.875,175.876,,,,,,,,,,,,,,,,,,,,,,,,,,175.876,176.443,z,1,0.546,,176.443,176.443,,0,61,61,196,1,197,etçime,,,,,6,harmonic,1.9,,z,nw,,,,,,,
,,,,,,,,,,,281442,,001,2024-02-15_17h04.29.058,VH_new_version2,2023.2.3,MacIntel,55.55555556,176.444,177.443,,,,,,,,,,,,,,,,,,,,,,,,,,177.443,178.043,z,1,0.583,,178.043,178.043,,0,62,62,178,1,179,güzül,,,,,5,harmonic,1.65,,z,nw,,,,,,,
,,,,,,,,,,,281442,,001,2024-02-15_17h04.29.058,VH_new_version2,2023.2.3,MacIntel,55.55555556,178.043,179.042,,,,,,,,,,,,,,,,,,,,,,,,,,179.042,179.626,z,1,0.566,,179.626,179.627,,0,63,63,144,1,145,içke,,,,,4,harmonic,1.6,,z,nw,,,,,,,
,,,,,,,,,,,281442,,001,2024-02-15_17h04.29.058,VH_new_version2,2023.2.3,MacIntel,55.55555556,179.627,180.626,,,,,,,,,,,,,,,,,,,,,,,,,,180.626,181.309,m,1,0.662,,181.309,181.31,,0,64,64,123,1,124,yıldız,1775,80.649,1532,0.1675,6,harmonic,1.6,4.906598987,m,w,,,,,,,
,,,,,,,,,,,281442,,001,2024-02-15_17h04.29.058,VH_new_version2,2023.2.3,MacIntel,55.55555556,181.31,182.31,,,,,,,,,,,,,,,,,,,,,,,,,,182.31,182.893,z,0,0.561,,182.893,182.893,,0,65,65,106,1,107,altın,2385,108.3649,2017,0.2205,5,harmonic,1,5.034888635,m,w,,,,,,,
,,,,,,,,,,,281442,,001,2024-02-15_17h04.29.058,VH_new_version2,2023.2.3,MacIntel,55.55555556,182.894,183.893,,,,,,,,,,,,,,,,,,,,,,,,,,183.893,184.51,z,1,0.598,,184.51,184.51,,0,66,66,243,1,244,kuyef,,,,,5,notharmonic,2.3,,z,nw,,,,,,,
,,,,,,,,,,,281442,,001,2024-02-15_17h04.29.058,VH_new_version2,2023.2.3,MacIntel,55.55555556,184.511,185.51,,,,,,,,,,,,,,,,,,,,,,,,,,185.51,186.192,m,1,0.665,,186.193,186.193,,0,67,67,91,1,92,yeşil,3445,156.5271,2946,0.3221,5,harmonic,1.8,5.194589539,m,w,,,,,,,
,,,,,,,,,,,281442,,001,2024-02-15_17h04.29.058,VH_new_version2,2023.2.3,MacIntel,55.55555556,186.193,187.193,,,,,,,,,,,,,,,,,,,,,,,,,,187.193,187.693,z,0,0.484,,187.693,187.693,,0,68,68,29,1,30,şarap,926,42.0738,787,0.086,5,harmonic,1.9,4.624011738,m,w,,,,,,,
,,,,,,,,,,,281442,,001,2024-02-15_17h04.29.058,VH_new_version2,2023.2.3,MacIntel,55.55555556,187.694,188.693,,,,,,,,,,,,,,,,,,,,,,,,,,188.693,189.41,m,1,0.698,,189.41,189.41,,0,69,69,104,1,105,hediye,2501,113.6355,2224,0.2431,6,harmonic,1.7,5.055514027,m,w,,,,,,,
,,,,,,,,,,,281442,,001,2024-02-15_17h04.29.058,VH_new_version2,2023.2.3,MacIntel,55.55555556,189.411,190.41,,,,,,,,,,,,,,,,,,,,,,,,,,190.41,191.11,z,0,0.681,,191.11,192.31,space,0,70,70,79,1,80,erik,376,17.0839,335,0.0366,4,harmonic,1,4.232587021,m,w,1.182,,,,,,
,,,,,,,,,,,281442,,001,2024-02-15_17h04.29.058,VH_new_version2,2023.2.3,MacIntel,55.55555556,192.311,193.31,,,,,,,,,,,,,,,,,,,,,,,,,,193.31,194.094,z,1,0.761,,194.094,194.094,,0,71,71,201,1,202,lingin,,,,,6,harmonic,1.6,,z,nw,,,,,,,
,,,,,,,,,,,281442,,001,2024-02-15_17h04.29.058,VH_new_version2,2023.2.3,MacIntel,55.55555556,194.095,195.093,,,,,,,,,,,,,,,,,,,,,,,,,,195.093,195.827,m,1,0.716,,195.827,195.827,,0,72,72,86,1,87,takım,4370,198.5555,3726,0.4073,5,harmonic,1,5.297881922,m,w,,,,,,,
,,,,,,,,,,,281442,,001,2024-02-15_17h04.29.058,VH_new_version2,2023.2.3,MacIntel,55.55555556,195.828,196.827,,,,,,,,,,,,,,,,,,,,,,,,,,196.827,197.411,m,1,0.571,,197.411,197.411,,0,73,73,90,1,91,insan,3684,167.3864,3486,0.3811,5,harmonic,1.55,5.223720169,m,w,,,,,,,
,,,,,,,,,,,281442,,001,2024-02-15_17h04.29.058,VH_new_version2,2023.2.3,MacIntel,55.55555556,197.411,198.41,,,,,,,,,,,,,,,,,,,,,,,,,,198.41,199.11,z,1,0.679,,199.11,199.11,,0,74,74,215,1,216,zali,,,,,4,notharmonic,1.25,,z,nw,,,,,,,
,,,,,,,,,,,281442,,001,2024-02-15_17h04.29.058,VH_new_version2,2023.2.3,MacIntel,55.55555556,199.111,200.111,,,,,,,,,,,,,,,,,,,,,,,,,,200.111,200.961,m,1,0.83,,200.961,200.961,,0,75,75,59,1,60,zengin,2193,99.6412,2015,0.2203,6,harmonic,1.65,4.998438949,m,w,,,,,,,
,,,,,,,,,,,281442,,001,2024-02-15_17h04.29.058,VH_new_version2,2023.2.3,MacIntel,55.55555556,200.962,201.961,,,,,,,,,,,,,,,,,,,,,,,,,,201.961,202.827,z,1,0.847,,202.827,202.827,,0,76,76,260,1,261,dülda,,,,,5,notharmonic,1.95,,z,nw,,,,,,,
,,,,,,,,,,,281442,,001,2024-02-15_17h04.29.058,VH_new_version2,2023.2.3,MacIntel,55.55555556,202.827,203.827,,,,,,,,,,,,,,,,,,,,,,,,,,203.827,205.744,m,1,1.895,,205.744,205.745,,0,77,77,40,1,41,temel,4231,192.2399,3851,0.421,5,harmonic,1.55,5.283843532,m,w,,,,,,,
,,,,,,,,,,,281442,,001,2024-02-15_17h04.29.058,VH_new_version2,2023.2.3,MacIntel,55.55555556,205.745,206.744,,,,,,,,,,,,,,,,,,,,,,,,,,206.744,207.394,m,1,0.629,,207.394,207.394,,0,78,78,120,1,121,yedi,1880,85.4197,1729,0.189,4,harmonic,1,4.931558042,m,w,,,,,,,
,,,,,,,,,,,281442,,001,2024-02-15_17h04.29.058,VH_new_version2,2023.2.3,MacIntel,55.55555556,207.395,208.394,,,,,,,,,,,,,,,,,,,,,,,,,,208.395,209.094,z,1,0.678,,209.094,209.095,,0,79,79,208,1,209,terbiy,,,,,6,harmonic,1.9,,z,nw,,,,,,,
,,,,,,,,,,,281442,,001,2024-02-15_17h04.29.058,VH_new_version2,2023.2.3,MacIntel,55.55555556,209.095,210.094,,,,,,,,,,,,,,,,,,,,,,,,,,210.094,210.744,z,1,0.636,,210.744,210.744,,0,80,80,216,1,217,same,,,,,4,notharmonic,1.6,,z,nw,,,,,,,
,,,,,,,,,,,281442,,001,2024-02-15_17h04.29.058,VH_new_version2,2023.2.3,MacIntel,55.55555556,210.745,211.744,,,,,,,,,,,,,,,,,,,,,,,,,,211.745,212.211,z,1,0.446,,212.211,212.212,,0,81,81,173,1,174,pirbe,,,,,5,harmonic,1.9,,z,nw,,,,,,,
,,,,,,,,,,,281442,,001,2024-02-15_17h04.29.058,VH_new_version2,2023.2.3,MacIntel,55.55555556,212.212,213.211,,,,,,,,,,,,,,,,,,,,,,,,,,213.211,213.795,z,1,0.562,,213.795,213.795,,0,82,82,149,1,150,irgi,,,,,4,harmonic,1.8,,z,nw,,,,,,,
,,,,,,,,,,,281442,,001,2024-02-15_17h04.29.058,VH_new_version2,2023.2.3,MacIntel,55.55555556,213.796,214.794,,,,,,,,,,,,,,,,,,,,,,,,,,214.794,215.528,m,1,0.714,,215.528,215.528,,0,83,83,133,1,134,parmak,1268,57.6129,1165,0.1274,6,harmonic,1.75,4.760519736,m,w,,,,,,,
,,,,,,,,,,,281442,,001,2024-02-15_17h04.29.058,VH_new_version2,2023.2.3,MacIntel,55.55555556,215.529,216.527,,,,,,,,,,,,,,,,,,,,,,,,,,216.527,217.112,z,1,0.564,,217.112,217.112,,0,84,84,232,1,233,leda,,,,,4,notharmonic,1.6,,z,nw,,,,,,,
,,,,,,,,,,,281442,,001,2024-02-15_17h04.29.058,VH_new_version2,2023.2.3,MacIntel,55.55555556,217.114,218.111,,,,,,,,,,,,,,,,,,,,,,,,,,218.112,218.628,z,1,0.5,,218.628,218.629,,0,85,85,143,1,144,uçek,,,,,4,harmonic,1.85,,z,nw,,,,,,,
,,,,,,,,,,,281442,,001,2024-02-15_17h04.29.058,VH_new_version2,2023.2.3,MacIntel,55.55555556,218.63,219.628,,,,,,,,,,,,,,,,,,,,,,,,,,219.628,220.295,m,1,0.645,,220.295,220.296,,0,86,86,52,1,53,buğday,746,33.8953,623,0.0681,6,harmonic,1.9,4.530139482,m,w,,,,,,,
,,,,,,,,,,,281442,,001,2024-02-15_17h04.29.058,VH_new_version2,2023.2.3,MacIntel,55.55555556,220.296,221.294,,,,,,,,,,,,,,,,,,,,,,,,,,221.294,221.945,z,1,0.63,,221.945,221.945,,0,87,87,154,1,155,afap,,,,,4,harmonic,1.7,,z,nw,,,,,,,
,,,,,,,,,,,281442,,001,2024-02-15_17h04.29.058,VH_new_version2,2023.2.3,MacIntel,55.55555556,221.946,222.945,,,,,,,,,,,,,,,,,,,,,,,,,,222.945,223.678,m,1,0.717,,223.678,223.678,,0,88,88,96,1,97,şehir,2981,135.4448,2608,0.2851,5,harmonic,1.75,5.131762336,m,w,,,,,,,
,,,,,,,,,,,281442,,001,2024-02-15_17h04.29.058,VH_new_version2,2023.2.3,MacIntel,55.55555556,223.678,224.678,,,,,,,,,,,,,,,,,,,,,,,,,,224.678,225.278,z,1,0.584,,225.278,225.279,,0,89,89,164,1,165,üdel,,,,,4,harmonic,1.95,,z,nw,,,,,,,
,,,,,,,,,,,281442,,001,2024-02-15_17h04.29.058,VH_new_version2,2023.2.3,MacIntel,55.55555556,225.279,226.279,,,,,,,,,,,,,,,,,,,,,,,,,,226.279,226.994,m,1,0.696,,226.994,226.994,,0,90,90,12,1,13,ağaç,1245,56.5679,1082,0.1183,4,harmonic,1.6,4.752570056,m,w,,,,,,,
,,,,,,,,,,,281442,,001,2024-02-15_17h04.29.058,VH_new_version2,2023.2.3,MacIntel,55.55555556,226.995,227.995,,,,,,,,,,,,,,,,,,,,,,,,,,227.995,228.595,z,1,0.579,,228.596,228.596,,0,91,91,165,1,166,eyel,,,,,4,harmonic,1.65,,z,nw,,,,,,,
,,,,,,,,,,,281442,,001,2024-02-15_17h04.29.058,VH_new_version2,2023.2.3,MacIntel,55.55555556,228.597,229.596,,,,,,,,,,,,,,,,,,,,,,,,,,229.596,230.179,z,1,0.562,,230.179,230.179,,0,92,92,168,1,169,bovon,,,,,5,harmonic,2,,z,nw,,,,,,,
,,,,,,,,,,,281442,,001,2024-02-15_17h04.29.058,VH_new_version2,2023.2.3,MacIntel,55.55555556,230.179,231.179,,,,,,,,,,,,,,,,,,,,,,,,,,231.179,231.779,z,1,0.581,,231.779,231.779,,0,93,93,266,1,267,ebvace,,,,,6,notharmonic,2.95,,z,nw,,,,,,,
,,,,,,,,,,,281442,,001,2024-02-15_17h04.29.058,VH_new_version2,2023.2.3,MacIntel,55.55555556,231.779,232.779,,,,,,,,,,,,,,,,,,,,,,,,,,232.779,233.629,m,1,0.83,,233.629,233.629,,0,94,94,93,1,94,olay,3415,155.1641,3179,0.3475,4,harmonic,1.5,5.190791247,m,w,,,,,,,
,,,,,,,,,,,281442,,001,2024-02-15_17h04.29.058,VH_new_version2,2023.2.3,MacIntel,55.55555556,233.629,234.629,,,,,,,,,,,,,,,,,,,,,,,,,,234.629,235.212,m,1,0.567,,235.212,235.212,,0,95,95,9,1,10,uçak,894,40.6198,752,0.0822,4,harmonic,1.4,4.608737781,m,w,,,,,,,
,,,,,,,,,,,281442,,001,2024-02-15_17h04.29.058,VH_new_version2,2023.2.3,MacIntel,55.55555556,235.213,236.212,,,,,,,,,,,,,,,,,,,,,,,,,,236.212,236.762,m,1,0.529,,236.763,236.763,,0,96,96,137,1,138,mutfak,1110,50.434,1032,0.1128,6,harmonic,1.95,4.702723414,m,w,,,,,,,
,,,,,,,,,,,281442,,001,2024-02-15_17h04.29.058,VH_new_version2,2023.2.3,MacIntel,55.55555556,236.763,237.762,,,,,,,,,,,,,,,,,,,,,,,,,,237.762,238.129,m,1,0.347,,238.129,238.129,,0,97,97,44,1,45,erkek,6188,281.1582,5195,0.5679,5,harmonic,1.55,5.448950754,m,w,,,,,,,
,,,,,,,,,,,281442,,001,2024-02-15_17h04.29.058,VH_new_version2,2023.2.3,MacIntel,55.55555556,238.13,239.129,,,,,,,,,,,,,,,,,,,,,,,,,,239.129,240.213,z,1,1.063,,240.213,240.213,,0,98,98,194,1,195,bufsay,,,,,6,harmonic,2.6,,z,nw,,,,,,,
,,,,,,,,,,,281442,,001,2024-02-15_17h04.29.058,VH_new_version2,2023.2.3,MacIntel,55.55555556,240.213,241.212,,,,,,,,,,,,,,,,,,,,,,,,,,241.212,241.712,m,1,0.487,,241.713,241.713,,0,99,99,97,1,98,nefes,2871,130.4469,2553,0.2791,5,harmonic,1.8,5.115433763,m,w,,,,,,,
,,,,,,,,,,,281442,,001,2024-02-15_17h04.29.058,VH_new_version2,2023.2.3,MacIntel,55.55555556,241.713,242.713,,,,,,,,,,,,,,,,,,,,,,,,,,242.713,243.313,m,1,0.581,,243.313,243.313,,0,100,100,125,1,126,bardak,1728,78.5135,1569,0.1715,6,harmonic,1.6,4.894944338,m,w,,,,,,,
,,,,,,,,,,,281442,,001,2024-02-15_17h04.29.058,VH_new_version2,2023.2.3,MacIntel,55.55555556,243.314,244.313,,,,,,,,,,,,,,,,,,,,,,,,,,244.313,244.779,m,1,0.451,,244.779,244.779,,0,101,101,105,1,106,hasta,2431,110.455,2140,0.2339,5,harmonic,1,5.04318538,m,w,,,,,,,
,,,,,,,,,,,281442,,001,2024-02-15_17h04.29.058,VH_new_version2,2023.2.3,MacIntel,55.55555556,244.78,245.779,,,,,,,,,,,,,,,,,,,,,,,,,,245.78,246.246,m,1,0.455,,246.246,246.246,,0,102,102,66,1,67,tercih,4577,207.9607,4282,0.4681,6,harmonic,1.7,5.317981271,m,w,,,,,,,
,,,,,,,,,,,281442,,001,2024-02-15_17h04.29.058,VH_new_version2,2023.2.3,MacIntel,55.55555556,246.247,247.246,,,,,,,,,,,,,,,,,,,,,,,,,,247.246,247.863,z,1,0.595,,247.863,247.863,,0,103,103,220,1,221,nica,,,,,4,notharmonic,1.75,,z,nw,,,,,,,
,,,,,,,,,,,281442,,001,2024-02-15_17h04.29.058,VH_new_version2,2023.2.3,MacIntel,55.55555556,247.864,248.863,,,,,,,,,,,,,,,,,,,,,,,,,,248.863,249.362,m,0,0.48,,249.362,249.363,,0,104,104,237,1,238,masem,,,,,5,notharmonic,1.7,,z,nw,,,,,,,
,,,,,,,,,,,281442,,001,2024-02-15_17h04.29.058,VH_new_version2,2023.2.3,MacIntel,55.55555556,249.363,250.363,,,,,,,,,,,,,,,,,,,,,,,,,,250.363,251.046,z,1,0.663,,251.046,251.046,,0,105,105,170,1,171,telen,,,,,5,harmonic,1.15,,z,nw,,,,,,,
,,,,,,,,,,,281442,,001,2024-02-15_17h04.29.058,VH_new_version2,2023.2.3,MacIntel,55.55555556,251.047,252.046,,,,,,,,,,,,,,,,,,,,,,,,,,252.046,252.696,m,1,0.628,,252.697,252.697,,0,106,106,11,1,12,öykü,958,43.5277,849,0.0928,4,harmonic,1.9,4.63876572,m,w,,,,,,,
,,,,,,,,,,,281442,,001,2024-02-15_17h04.29.058,VH_new_version2,2023.2.3,MacIntel,55.55555556,252.697,253.697,,,,,,,,,,,,,,,,,,,,,,,,,,253.697,254.263,m,1,0.549,,254.263,254.263,,0,107,107,114,1,115,ayak,2143,97.3694,1931,0.2111,4,harmonic,1,4.988422494,m,w,,,,,,,
,,,,,,,,,,,281442,,001,2024-02-15_17h04.29.058,VH_new_version2,2023.2.3,MacIntel,55.55555556,254.264,255.263,,,,,,,,,,,,,,,,,,,,,,,,,,255.263,255.796,m,1,0.517,,255.797,255.797,,0,108,108,71,1,72,boya,918,41.7103,799,0.0873,4,harmonic,1,4.620243314,m,w,,,,,,,
,,,,,,,,,,,281442,,001,2024-02-15_17h04.29.058,VH_new_version2,2023.2.3,MacIntel,55.55555556,255.797,256.797,,,,,,,,,,,,,,,,,,,,,,,,,,256.797,257.747,m,1,0.929,,257.747,257.747,,0,109,109,115,1,116,doğu,2105,95.6429,1823,0.1993,4,harmonic,1.05,4.980652736,m,w,,,,,,,
,,,,,,,,,,,281442,,001,2024-02-15_17h04.29.058,VH_new_version2,2023.2.3,MacIntel,55.55555556,257.748,258.747,,,,,,,,,,,,,,,,,,,,,,,,,,258.747,259.463,m,1,0.696,,259.463,259.463,,0,110,110,32,1,33,güney,1639,74.4697,1439,0.1573,5,harmonic,1.65,4.871979604,m,w,,,,,,,
,,,,,,,,,,,281442,,001,2024-02-15_17h04.29.058,VH_new_version2,2023.2.3,MacIntel,55.55555556,259.464,260.463,,,,,,,,,,,,,,,,,,,,,,,,,,260.464,261.18,m,1,0.695,,261.18,261.18,,0,111,111,41,1,42,hayal,4498,204.3713,4079,0.4459,5,harmonic,1.45,5.310419907,m,w,,,,,,,
,,,,,,,,,,,281442,,001,2024-02-15_17h04.29.058,VH_new_version2,2023.2.3,MacIntel,55.55555556,261.18,262.18,,,,,,,,,,,,,,,,,,,,,,,,,,262.18,262.914,z,0,0.713,,262.914,262.914,,0,112,112,135,1,136,gündüz,1167,53.0239,1088,0.1189,6,harmonic,1.6,4.724471668,m,w,,,,,,,
,,,,,,,,,,,281442,,001,2024-02-15_17h04.29.058,VH_new_version2,2023.2.3,MacIntel,55.55555556,262.914,263.913,,,,,,,,,,,,,,,,,,,,,,,,,,263.913,264.564,z,1,0.636,,264.564,264.564,,0,113,113,224,1,225,faer,,,,,4,notharmonic,1.9,,z,nw,,,,,,,
,,,,,,,,,,,281442,,001,2024-02-15_17h04.29.058,VH_new_version2,2023.2.3,MacIntel,55.55555556,264.564,265.564,,,,,,,,,,,,,,,,,,,,,,,,,,265.564,266.147,z,0,0.563,,266.147,266.147,,0,114,114,119,1,120,cuma,1941,88.1913,1774,0.1939,4,harmonic,1.3,4.945425744,m,w,,,,,,,
,,,,,,,,,,,281442,,001,2024-02-15_17h04.29.058,VH_new_version2,2023.2.3,MacIntel,55.55555556,266.148,267.146,,,,,,,,,,,,,,,,,,,,,,,,,,267.146,267.814,m,1,0.644,,267.814,267.814,,0,115,115,89,1,90,sonuç,3768,171.203,3626,0.3964,5,harmonic,1.8,5.233511371,m,w,,,,,,,
,,,,,,,,,,,281442,,001,2024-02-15_17h04.29.058,VH_new_version2,2023.2.3,MacIntel,55.55555556,267.814,268.814,,,,,,,,,,,,,,,,,,,,,,,,,,268.814,269.297,m,1,0.463,,269.297,269.298,,0,116,116,101,1,102,okul,2685,121.9958,2381,0.2603,4,harmonic,1.35,5.086344879,m,w,,,,,,,
,,,,,,,,,,,281442,,001,2024-02-15_17h04.29.058,VH_new_version2,2023.2.3,MacIntel,55.55555556,269.298,270.297,,,,,,,,,,,,,,,,,,,,,,,,,,270.297,270.763,z,1,0.451,,270.763,270.764,,0,117,117,230,1,231,asez,,,,,4,notharmonic,1.9,,z,nw,,,,,,,
,,,,,,,,,,,281442,,001,2024-02-15_17h04.29.058,VH_new_version2,2023.2.3,MacIntel,55.55555556,270.764,271.764,,,,,,,,,,,,,,,,,,,,,,,,,,271.764,272.363,z,1,0.58,,272.363,272.364,,0,118,118,236,1,237,alte,,,,,4,notharmonic,1.7,,z,nw,,,,,,,
,,,,,,,,,,,281442,,001,2024-02-15_17h04.29.058,VH_new_version2,2023.2.3,MacIntel,55.55555556,272.364,273.364,,,,,,,,,,,,,,,,,,,,,,,,,,273.364,273.947,m,1,0.562,,273.947,273.947,,0,119,119,122,1,123,kapı,1792,81.4214,1566,0.1712,4,harmonic,1,4.910738566,m,w,,,,,,,
,,,,,,,,,,,281442,,001,2024-02-15_17h04.29.058,VH_new_version2,2023.2.3,MacIntel,55.55555556,273.948,274.947,,,,,,,,,,,,,,,,,,,,,,,,,,274.947,275.93,z,1,0.965,,275.93,275.93,,0,120,120,223,1,224,mame,,,,,4,notharmonic,1.65,,z,nw,,,,,,,
,,,,,,,,,,,281442,,001,2024-02-15_17h04.29.058,VH_new_version2,2023.2.3,MacIntel,55.55555556,275.931,276.931,,,,,,,,,,,,,,,,,,,,,,,,,,276.931,277.481,z,1,0.53,,277.481,277.481,,0,121,121,233,1,234,eali,,,,,4,notharmonic,1,,z,nw,,,,,,,
,,,,,,,,,,,281442,,001,2024-02-15_17h04.29.058,VH_new_version2,2023.2.3,MacIntel,55.55555556,277.482,278.481,,,,,,,,,,,,,,,,,,,,,,,,,,278.481,279.048,m,1,0.548,,279.048,279.048,,0,122,122,14,1,15,ocak,1685,76.5597,1548,0.1692,4,harmonic,1.9,4.884000223,m,w,,,,,,,
,,,,,,,,,,,281442,,001,2024-02-15_17h04.29.058,VH_new_version2,2023.2.3,MacIntel,55.55555556,279.048,280.048,,,,,,,,,,,,,,,,,,,,,,,,,,280.048,280.664,z,1,0.596,,280.664,280.665,,0,123,123,171,1,172,faraç,,,,,5,harmonic,1.75,,z,nw,,,,,,,
,,,,,,,,,,,281442,,001,2024-02-15_17h04.29.058,VH_new_version2,2023.2.3,MacIntel,55.55555556,280.665,281.665,,,,,,,,,,,,,,,,,,,,,,,,,,281.665,282.331,m,1,0.648,,282.331,282.331,,0,124,124,61,1,62,yağmur,2491,113.1812,2156,0.2357,6,harmonic,1.9,5.053774294,m,w,,,,,,,
,,,,,,,,,,,281442,,001,2024-02-15_17h04.29.058,VH_new_version2,2023.2.3,MacIntel,55.55555556,282.332,283.331,,,,,,,,,,,,,,,,,,,,,,,,,,283.331,283.881,m,1,0.529,,283.881,283.882,,0,125,125,103,1,104,resim,2506,113.8627,2188,0.2392,5,harmonic,1.4,5.056381478,m,w,,,,,,,
,,,,,,,,,,,281442,,001,2024-02-15_17h04.29.058,VH_new_version2,2023.2.3,MacIntel,55.55555556,283.882,284.881,,,,,,,,,,,,,,,,,,,,,,,,,,284.881,285.481,z,1,0.587,,285.481,285.481,,0,126,126,212,1,213,yeryek,,,,,6,harmonic,1.9,,z,nw,,,,,,,
,,,,,,,,,,,281442,,001,2024-02-15_17h04.29.058,VH_new_version2,2023.2.3,MacIntel,55.55555556,285.482,286.481,,,,,,,,,,,,,,,,,,,,,,,,,,286.481,287.081,m,1,0.581,,287.082,287.082,,0,127,127,19,1,20,baba,3645,165.6143,3131,0.3423,4,harmonic,1,5.219097833,m,w,,,,,,,
,,,,,,,,,,,281442,,001,2024-02-15_17h04.29.058,VH_new_version2,2023.2.3,MacIntel,55.55555556,287.082,288.081,,,,,,,,,,,,,,,,,,,,,,,,,,288.082,288.681,z,0,0.579,,288.682,288.682,,0,128,128,1,1,2,ufuk,437,19.8555,403,0.0441,4,harmonic,1.85,4.297880828,m,w,,,,,,,
,,,,,,,,,,,281442,,001,2024-02-15_17h04.29.058,VH_new_version2,2023.2.3,MacIntel,55.55555556,288.682,289.682,,,,,,,,,,,,,,,,,,,,,,,,,,289.682,290.331,m,1,0.627,,290.331,290.332,,0,129,129,62,1,63,kültür,2566,116.5889,2206,0.2412,6,harmonic,1.55,5.066657205,m,w,,,,,,,
,,,,,,,,,,,281442,,001,2024-02-15_17h04.29.058,VH_new_version2,2023.2.3,MacIntel,55.55555556,290.332,291.332,,,,,,,,,,,,,,,,,,,,,,,,,,291.332,292.115,z,1,0.762,,292.115,292.115,,0,130,130,158,1,159,uzot,,,,,4,harmonic,1.9,,z,nw,,,,,,,
,,,,,,,,,,,281442,,001,2024-02-15_17h04.29.058,VH_new_version2,2023.2.3,MacIntel,55.55555556,292.116,293.115,,,,,,,,,,,,,,,,,,,,,,,,,,293.115,293.715,m,1,0.583,,293.715,293.716,,0,131,131,35,1,36,araba,1704,77.423,1485,0.1623,5,harmonic,1,4.888869995,m,w,,,,,,,
,,,,,,,,,,,281442,,001,2024-02-15_17h04.29.058,VH_new_version2,2023.2.3,MacIntel,55.55555556,293.717,294.715,,,,,,,,,,,,,,,,,,,,,,,,,,294.715,295.332,z,1,0.596,,295.332,295.332,,0,132,132,167,1,168,ontan,,,,,5,harmonic,1.6,,z,nw,,,,,,,
,,,,,,,,,,,281442,,001,2024-02-15_17h04.29.058,VH_new_version2,2023.2.3,MacIntel,55.55555556,295.333,296.332,,,,,,,,,,,,,,,,,,,,,,,,,,296.332,296.815,m,1,0.462,,296.815,296.816,,0,133,133,68,1,69,devlet,5766,261.9842,4854,0.5306,6,harmonic,1.65,5.4182751,m,w,,,,,,,
,,,,,,,,,,,281442,,001,2024-02-15_17h04.29.058,VH_new_version2,2023.2.3,MacIntel,55.55555556,296.816,297.815,,,,,,,,,,,,,,,,,,,,,,,,,,297.815,298.465,m,1,0.634,,298.466,298.466,,0,134,134,50,1,51,kurşun,604,27.4434,551,0.0602,6,harmonic,1.55,4.438437916,m,w,,,,,,,
,,,,,,,,,,,281442,,001,2024-02-15_17h04.29.058,VH_new_version2,2023.2.3,MacIntel,55.55555556,298.467,299.465,,,,,,,,,,,,,,,,,,,,,,,,,,299.465,299.882,m,1,0.395,,299.882,299.882,,0,135,135,34,1,35,çorba,1674,76.0599,1513,0.1654,5,harmonic,1.75,4.88115575,m,w,,,,,,,
,,,,,,,,,,,281442,,001,2024-02-15_17h04.29.058,VH_new_version2,2023.2.3,MacIntel,55.55555556,299.883,300.881,,,,,,,,,,,,,,,,,,,,,,,,,,300.881,301.549,z,1,0.648,,301.549,301.549,,0,136,136,184,1,185,nekir,,,,,5,harmonic,1.6,,z,nw,,,,,,,
,,,,,,,,,,,281442,,001,2024-02-15_17h04.29.058,VH_new_version2,2023.2.3,MacIntel,55.55555556,301.549,302.549,,,,,,,,,,,,,,,,,,,,,,,,,,302.549,303.216,z,1,0.646,,303.216,303.216,,0,137,137,217,1,218,heka,,,,,4,notharmonic,1.75,,z,nw,,,,,,,
,,,,,,,,,,,281442,,001,2024-02-15_17h04.29.058,VH_new_version2,2023.2.3,MacIntel,55.55555556,303.216,304.216,,,,,,,,,,,,,,,,,,,,,,,,,,304.216,304.849,m,1,0.611,,304.85,304.85,,0,138,138,88,1,89,yorum,3801,172.7024,3473,0.3797,5,harmonic,1.1,5.237298373,m,w,,,,,,,
,,,,,,,,,,,281442,,001,2024-02-15_17h04.29.058,VH_new_version2,2023.2.3,MacIntel,55.55555556,304.851,305.849,,,,,,,,,,,,,,,,,,,,,,,,,,305.849,306.382,m,1,0.519,,306.382,306.382,,0,139,139,10,1,11,eser,958,43.5277,892,0.0975,4,harmonic,1,4.63876572,m,w,,,,,,,
,,,,,,,,,,,281442,,001,2024-02-15_17h04.29.058,VH_new_version2,2023.2.3,MacIntel,55.55555556,306.383,307.382,,,,,,,,,,,,,,,,,,,,,,,,,,307.382,308.1,z,1,0.705,,308.1,308.1,,0,140,140,174,1,175,güzeh,,,,,5,harmonic,1.85,,z,nw,,,,,,,
,,,,,,,,,,,281442,,001,2024-02-15_17h04.29.058,VH_new_version2,2023.2.3,MacIntel,55.55555556,308.101,309.099,,,,,,,,,,,,,,,,,,,,,,,,,,309.099,309.899,m,0,0.779,,309.899,311.449,space,0,141,141,157,1,158,öşek,,,,,4,harmonic,1.7,,z,nw,1.536,,,,,,
,,,,,,,,,,,281442,,001,2024-02-15_17h04.29.058,VH_new_version2,2023.2.3,MacIntel,55.55555556,311.45,312.449,,,,,,,,,,,,,,,,,,,,,,,,,,312.449,313.199,z,1,0.729,,313.199,313.2,,0,142,142,206,1,207,teşcik,,,,,6,harmonic,1.9,,z,nw,,,,,,,
,,,,,,,,,,,281442,,001,2024-02-15_17h04.29.058,VH_new_version2,2023.2.3,MacIntel,55.55555556,313.2,314.199,,,,,,,,,,,,,,,,,,,,,,,,,,314.199,314.766,m,1,0.549,,314.766,314.766,,0,143,143,2,1,3,iğne,515,23.3996,455,0.0497,4,harmonic,1.65,4.369208434,m,w,,,,,,,
,,,,,,,,,,,281442,,001,2024-02-15_17h04.29.058,VH_new_version2,2023.2.3,MacIntel,55.55555556,314.767,315.766,,,,,,,,,,,,,,,,,,,,,,,,,,315.766,316.533,m,1,0.751,,316.533,316.533,,0,144,144,64,1,65,teknik,3297,149.8026,2798,0.3059,6,harmonic,1.9,5.175519351,m,w,,,,,,,
,,,,,,,,,,,281442,,001,2024-02-15_17h04.29.058,VH_new_version2,2023.2.3,MacIntel,55.55555556,316.533,317.533,,,,,,,,,,,,,,,,,,,,,,,,,,317.533,318.049,m,1,0.495,,318.05,318.05,,0,145,145,24,1,25,dokuz,802,36.4397,646,0.0706,5,harmonic,1.55,4.561574793,m,w,,,,,,,
,,,,,,,,,,,281442,,001,2024-02-15_17h04.29.058,VH_new_version2,2023.2.3,MacIntel,55.55555556,318.05,319.049,,,,,,,,,,,,,,,,,,,,,,,,,,319.05,319.783,z,1,0.716,,319.783,319.783,,0,146,146,148,1,149,aşıç,,,,,4,harmonic,1.65,,z,nw,,,,,,,
,,,,,,,,,,,281442,,001,2024-02-15_17h04.29.058,VH_new_version2,2023.2.3,MacIntel,55.55555556,319.783,320.783,,,,,,,,,,,,,,,,,,,,,,,,,,320.783,321.466,m,1,0.663,,321.467,321.467,,0,147,147,13,1,14,kedi,1646,74.7877,1394,0.1524,4,harmonic,1.1,4.873830177,m,w,,,,,,,
,,,,,,,,,,,281442,,001,2024-02-15_17h04.29.058,VH_new_version2,2023.2.3,MacIntel,55.55555556,321.467,322.466,,,,,,,,,,,,,,,,,,,,,,,,,,322.466,323.133,z,1,0.653,,323.133,323.133,,0,148,148,203,1,204,yağcır,,,,,6,harmonic,1.9,,z,nw,,,,,,,
,,,,,,,,,,,281442,,001,2024-02-15_17h04.29.058,VH_new_version2,2023.2.3,MacIntel,55.55555556,323.133,324.133,,,,,,,,,,,,,,,,,,,,,,,,,,324.133,324.85,z,1,0.699,,324.85,324.85,,0,149,149,277,1,278,şeylam,,,,,6,notharmonic,2,,z,nw,,,,,,,
,,,,,,,,,,,281442,,001,2024-02-15_17h04.29.058,VH_new_version2,2023.2.3,MacIntel,55.55555556,324.851,325.85,,,,,,,,,,,,,,,,,,,,,,,,,,325.85,326.533,m,1,0.661,,326.533,326.533,,0,150,150,134,1,135,araç,1182,53.7054,1050,0.1148,4,harmonic,1.25,4.730017956,m,w,,,,,,,
,,,,,,,,,,,281442,,001,2024-02-15_17h04.29.058,VH_new_version2,2023.2.3,MacIntel,55.55555556,326.533,327.533,,,,,,,,,,,,,,,,,,,,,,,,,,327.533,328.4,m,1,0.846,,328.4,328.4,,0,151,151,141,1,142,fındık,865,39.3022,769,0.0841,6,harmonic,1.95,4.594416861,m,w,,,,,,,
,,,,,,,,,,,281442,,001,2024-02-15_17h04.29.058,VH_new_version2,2023.2.3,MacIntel,55.55555556,328.4,329.4,,,,,,,,,,,,,,,,,,,,,,,,,,329.4,329.883,m,1,0.465,,329.883,329.883,,0,152,152,65,1,66,destek,3328,151.2111,3065,0.3351,6,harmonic,1.85,5.179583673,m,w,,,,,,,
,,,,,,,,,,,281442,,001,2024-02-15_17h04.29.058,VH_new_version2,2023.2.3,MacIntel,55.55555556,329.884,330.884,,,,,,,,,,,,,,,,,,,,,,,,,,330.884,331.584,z,1,0.679,,331.584,331.584,,0,153,153,262,1,263,barali,,,,,6,notharmonic,1.95,,z,nw,,,,,,,
,,,,,,,,,,,281442,,001,2024-02-15_17h04.29.058,VH_new_version2,2023.2.3,MacIntel,55.55555556,331.584,332.584,,,,,,,,,,,,,,,,,,,,,,,,,,332.584,333.234,m,1,0.636,,333.234,333.234,,0,154,154,48,1,49,çocuk,10612,482.1672,8979,0.9816,5,harmonic,1.75,5.683197664,m,w,,,,,,,
,,,,,,,,,,,281442,,001,2024-02-15_17h04.29.058,VH_new_version2,2023.2.3,MacIntel,55.55555556,333.234,334.234,,,,,,,,,,,,,,,,,,,,,,,,,,334.234,334.65,m,1,0.395,,334.65,334.65,,0,155,155,116,1,117,nokta,2085,94.7341,1939,0.212,5,harmonic,1.5,4.976506334,m,w,,,,,,,
,,,,,,,,,,,281442,,001,2024-02-15_17h04.29.058,VH_new_version2,2023.2.3,MacIntel,55.55555556,334.651,335.65,,,,,,,,,,,,,,,,,,,,,,,,,,335.651,336.284,z,1,0.619,,336.284,336.284,,0,156,156,195,1,196,çoflak,,,,,6,harmonic,2,,z,nw,,,,,,,
,,,,,,,,,,,281442,,001,2024-02-15_17h04.29.058,VH_new_version2,2023.2.3,MacIntel,55.55555556,336.285,337.284,,,,,,,,,,,,,,,,,,,,,,,,,,337.284,337.634,m,1,0.335,,337.634,337.634,,0,157,157,111,1,112,balık,2189,99.4595,1817,0.1986,5,harmonic,1,4.997646272,m,w,,,,,,,
,,,,,,,,,,,281442,,001,2024-02-15_17h04.29.058,VH_new_version2,2023.2.3,MacIntel,55.55555556,337.635,338.634,,,,,,,,,,,,,,,,,,,,,,,,,,338.634,339.083,m,1,0.429,,339.083,339.084,,0,158,158,140,1,141,kimlik,867,39.393,726,0.0794,6,harmonic,1.7,4.595419056,m,w,,,,,,,
,,,,,,,,,,,281442,,001,2024-02-15_17h04.29.058,VH_new_version2,2023.2.3,MacIntel,55.55555556,339.084,340.083,,,,,,,,,,,,,,,,,,,,,,,,,,340.083,340.383,m,0,0.286,,340.383,340.383,,0,159,159,279,1,280,tevaha,,,,,6,notharmonic,2,,z,nw,,,,,,,
,,,,,,,,,,,281442,,001,2024-02-15_17h04.29.058,VH_new_version2,2023.2.3,MacIntel,55.55555556,340.384,341.384,,,,,,,,,,,,,,,,,,,,,,,,,,341.384,342.151,m,1,0.745,,342.151,342.151,,0,160,160,55,1,56,zeytin,904,41.0742,758,0.0829,6,harmonic,1.85,4.613569113,m,w,,,,,,,
,,,,,,,,,,,281442,,001,2024-02-15_17h04.29.058,VH_new_version2,2023.2.3,MacIntel,55.55555556,342.151,343.151,,,,,,,,,,,,,,,,,,,,,,,,,,343.151,343.65,z,1,0.479,,343.65,343.65,,0,161,161,251,1,252,madit,,,,,5,notharmonic,1.9,,z,nw,,,,,,,
,,,,,,,,,,,281442,,001,2024-02-15_17h04.29.058,VH_new_version2,2023.2.3,MacIntel,55.55555556,343.651,344.65,,,,,,,,,,,,,,,,,,,,,,,,,,344.65,345.334,m,1,0.669,,345.334,345.334,,0,162,162,36,1,37,gönül,1786,81.1488,1676,0.1832,5,harmonic,1.8,4.909282102,m,w,,,,,,,
,,,,,,,,,,,281442,,001,2024-02-15_17h04.29.058,VH_new_version2,2023.2.3,MacIntel,55.55555556,345.335,346.334,,,,,,,,,,,,,,,,,,,,,,,,,,346.334,347.051,z,1,0.695,,347.051,347.051,,0,163,163,166,1,167,dokoş,,,,,5,harmonic,2,,z,nw,,,,,,,
,,,,,,,,,,,281442,,001,2024-02-15_17h04.29.058,VH_new_version2,2023.2.3,MacIntel,55.55555556,347.052,348.051,,,,,,,,,,,,,,,,,,,,,,,,,,348.051,348.701,z,1,0.63,,348.701,348.701,,0,164,164,264,1,265,şingan,,,,,6,notharmonic,2.15,,z,nw,,,,,,,
,,,,,,,,,,,281442,,001,2024-02-15_17h04.29.058,VH_new_version2,2023.2.3,MacIntel,55.55555556,348.702,349.701,,,,,,,,,,,,,,,,,,,,,,,,,,349.701,350.268,z,1,0.546,,350.268,350.268,,0,165,165,142,1,143,öbeh,,,,,4,harmonic,1.95,,z,nw,,,,,,,
,,,,,,,,,,,281442,,001,2024-02-15_17h04.29.058,VH_new_version2,2023.2.3,MacIntel,55.55555556,350.268,351.267,,,,,,,,,,,,,,,,,,,,,,,,,,351.268,351.918,z,1,0.629,,351.918,351.918,,0,166,166,161,1,162,mağa,,,,,4,harmonic,1.15,,z,nw,,,,,,,
,,,,,,,,,,,281442,,001,2024-02-15_17h04.29.058,VH_new_version2,2023.2.3,MacIntel,55.55555556,351.919,352.918,,,,,,,,,,,,,,,,,,,,,,,,,,352.918,353.451,z,1,0.513,,353.451,353.451,,0,167,167,227,1,228,esta,,,,,4,notharmonic,1.7,,z,nw,,,,,,,
,,,,,,,,,,,281442,,001,2024-02-15_17h04.29.058,VH_new_version2,2023.2.3,MacIntel,55.55555556,353.452,354.451,,,,,,,,,,,,,,,,,,,,,,,,,,354.451,354.951,z,1,0.479,,354.951,354.952,,0,168,168,162,1,163,möre,,,,,4,harmonic,1.65,,z,nw,,,,,,,
,,,,,,,,,,,281442,,001,2024-02-15_17h04.29.058,VH_new_version2,2023.2.3,MacIntel,55.55555556,354.952,355.951,,,,,,,,,,,,,,,,,,,,,,,,,,355.951,356.534,m,1,0.57,,356.534,356.535,,0,169,169,47,1,48,yemek,9626,437.3673,8311,0.9086,5,harmonic,1.35,5.64084631,m,w,,,,,,,
,,,,,,,,,,,281442,,001,2024-02-15_17h04.29.058,VH_new_version2,2023.2.3,MacIntel,55.55555556,356.535,357.535,,,,,,,,,,,,,,,,,,,,,,,,,,357.535,358.118,z,1,0.57,,358.118,358.118,,0,170,170,269,1,270,sakate,,,,,6,notharmonic,1.8,,z,nw,,,,,,,
,,,,,,,,,,,281442,,001,2024-02-15_17h04.29.058,VH_new_version2,2023.2.3,MacIntel,55.55555556,358.119,359.117,,,,,,,,,,,,,,,,,,,,,,,,,,359.117,359.885,m,1,0.75,,359.885,359.885,,0,171,171,27,1,28,sekiz,872,39.6202,803,0.0878,5,harmonic,1.45,4.597916663,m,w,,,,,,,
,,,,,,,,,,,281442,,001,2024-02-15_17h04.29.058,VH_new_version2,2023.2.3,MacIntel,55.55555556,359.885,360.884,,,,,,,,,,,,,,,,,,,,,,,,,,360.884,361.202,m,1,0.296,,361.202,361.202,,0,172,172,63,1,64,hizmet,3023,137.3531,2689,0.294,6,harmonic,1.75,5.137838466,m,w,,,,,,,
,,,,,,,,,,,281442,,001,2024-02-15_17h04.29.058,VH_new_version2,2023.2.3,MacIntel,55.55555556,361.202,362.202,,,,,,,,,,,,,,,,,,,,,,,,,,362.202,362.834,z,1,0.615,,362.834,362.834,,0,173,173,239,1,240,kanel,,,,,5,notharmonic,1.9,,z,nw,,,,,,,
,,,,,,,,,,,281442,,001,2024-02-15_17h04.29.058,VH_new_version2,2023.2.3,MacIntel,55.55555556,362.835,363.835,,,,,,,,,,,,,,,,,,,,,,,,,,363.835,364.318,m,1,0.463,,364.319,364.319,,0,174,174,0,1,1,ödev,191,8.6783,175,0.0191,4,harmonic,1.6,3.938434659,m,w,,,,,,,
,,,,,,,,,,,281442,,001,2024-02-15_17h04.29.058,VH_new_version2,2023.2.3,MacIntel,55.55555556,364.319,365.318,,,,,,,,,,,,,,,,,,,,,,,,,,365.318,366.035,z,0,0.698,,366.035,366.035,,0,175,175,28,1,29,melek,878,39.8928,773,0.0845,5,harmonic,1.1,4.60089452,m,w,,,,,,,
,,,,,,,,,,,281442,,001,2024-02-15_17h04.29.058,VH_new_version2,2023.2.3,MacIntel,55.55555556,366.036,367.035,,,,,,,,,,,,,,,,,,,,,,,,,,367.035,367.702,z,1,0.647,,367.702,367.702,,0,176,176,197,1,198,zemkin,,,,,6,harmonic,1.85,,z,nw,,,,,,,
,,,,,,,,,,,281442,,001,2024-02-15_17h04.29.058,VH_new_version2,2023.2.3,MacIntel,55.55555556,367.703,368.702,,,,,,,,,,,,,,,,,,,,,,,,,,368.702,369.135,z,1,0.414,,369.135,369.135,,0,177,177,283,1,284,dimdat,,,,,6,notharmonic,2.05,,z,nw,,,,,,,
,,,,,,,,,,,281442,,001,2024-02-15_17h04.29.058,VH_new_version2,2023.2.3,MacIntel,55.55555556,369.136,370.135,,,,,,,,,,,,,,,,,,,,,,,,,,370.135,370.569,m,1,0.416,,370.569,370.569,,0,178,178,58,1,59,toprak,1989,90.3723,1762,0.1926,6,harmonic,1.9,4.956035335,m,w,,,,,,,
,,,,,,,,,,,281442,,001,2024-02-15_17h04.29.058,VH_new_version2,2023.2.3,MacIntel,55.55555556,370.569,371.569,,,,,,,,,,,,,,,,,,,,,,,,,,371.569,372.402,m,1,0.813,,372.402,372.402,,0,179,179,43,1,44,bilgi,5981,271.7529,5353,0.5852,5,harmonic,1.5,5.434174187,m,w,,,,,,,
,,,,,,,,,,,281442,,001,2024-02-15_17h04.29.058,VH_new_version2,2023.2.3,MacIntel,55.55555556,372.402,373.402,,,,,,,,,,,,,,,,,,,,,,,,,,373.402,374.169,m,1,0.746,,374.169,374.169,,0,180,180,57,1,58,bayram,1948,88.5094,1648,0.1802,6,harmonic,1.85,4.946989397,m,w,,,,,,,
,,,,,,,,,,,281442,,001,2024-02-15_17h04.29.058,VH_new_version2,2023.2.3,MacIntel,55.55555556,374.169,375.169,,,,,,,,,,,,,,,,,,,,,,,,,,375.169,375.869,z,1,0.679,,375.869,375.869,,0,181,181,278,1,279,avalün,,,,,6,notharmonic,2.2,,z,nw,,,,,,,
,,,,,,,,,,,281442,,001,2024-02-15_17h04.29.058,VH_new_version2,2023.2.3,MacIntel,55.55555556,375.87,376.869,,,,,,,,,,,,,,,,,,,,,,,,,,376.869,377.452,z,1,0.562,,377.452,377.452,,0,182,182,163,1,164,küvü,,,,,4,harmonic,1.7,,z,nw,,,,,,,
,,,,,,,,,,,281442,,001,2024-02-15_17h04.29.058,VH_new_version2,2023.2.3,MacIntel,55.55555556,377.453,378.453,,,,,,,,,,,,,,,,,,,,,,,,,,378.453,379.402,m,1,0.928,,379.403,379.403,,0,183,183,109,1,110,ürün,2268,103.0489,1954,0.2136,4,harmonic,1.1,5.01304336,m,w,,,,,,,
,,,,,,,,,,,281442,,001,2024-02-15_17h04.29.058,VH_new_version2,2023.2.3,MacIntel,55.55555556,379.404,380.402,,,,,,,,,,,,,,,,,,,,,,,,,,380.403,381.069,m,1,0.646,,381.07,381.07,,0,184,184,39,1,40,mayıs,2630,119.4968,2294,0.2508,5,harmonic,1.75,5.077356275,m,w,,,,,,,
,,,,,,,,,,,281442,,001,2024-02-15_17h04.29.058,VH_new_version2,2023.2.3,MacIntel,55.55555556,381.071,382.069,,,,,,,,,,,,,,,,,,,,,,,,,,382.069,382.686,z,1,0.596,,382.686,382.686,,0,185,185,242,1,243,sayke,,,,,5,notharmonic,1.9,,z,nw,,,,,,,
,,,,,,,,,,,281442,,001,2024-02-15_17h04.29.058,VH_new_version2,2023.2.3,MacIntel,55.55555556,382.687,383.686,,,,,,,,,,,,,,,,,,,,,,,,,,383.686,384.286,z,1,0.582,,384.286,384.287,,0,186,186,145,1,146,oyoz,,,,,4,harmonic,1.9,,z,nw,,,,,,,
,,,,,,,,,,,281442,,001,2024-02-15_17h04.29.058,VH_new_version2,2023.2.3,MacIntel,55.55555556,384.287,385.286,,,,,,,,,,,,,,,,,,,,,,,,,,385.286,386.036,z,1,0.728,,386.036,386.036,,0,187,187,172,1,173,çatuk,,,,,5,harmonic,1.8,,z,nw,,,,,,,
,,,,,,,,,,,281442,,001,2024-02-15_17h04.29.058,VH_new_version2,2023.2.3,MacIntel,55.55555556,386.036,387.036,,,,,,,,,,,,,,,,,,,,,,,,,,387.036,387.503,z,0,0.445,,387.503,387.503,,0,188,188,107,1,108,isim,2366,107.5017,2163,0.2365,4,harmonic,1,5.031415332,m,w,,,,,,,
,,,,,,,,,,,281442,,001,2024-02-15_17h04.29.058,VH_new_version2,2023.2.3,MacIntel,55.55555556,387.504,388.503,,,,,,,,,,,,,,,,,,,,,,,,,,388.503,389.153,z,1,0.637,,389.153,389.153,,0,189,189,256,1,257,betaş,,,,,5,notharmonic,1.85,,z,nw,,,,,,,
,,,,,,,,,,,281442,,001,2024-02-15_17h04.29.058,VH_new_version2,2023.2.3,MacIntel,55.55555556,389.153,390.153,,,,,,,,,,,,,,,,,,,,,,,,,,390.153,390.669,m,1,0.497,,390.669,390.669,,0,190,190,124,1,125,sultan,1756,79.7857,1368,0.1496,6,harmonic,1.55,4.90192506,m,w,,,,,,,
,,,,,,,,,,,281442,,001,2024-02-15_17h04.29.058,VH_new_version2,2023.2.3,MacIntel,55.55555556,390.67,391.67,,,,,,,,,,,,,,,,,,,,,,,,,,391.67,392.336,z,1,0.646,,392.336,392.336,,0,191,191,190,1,191,gopuk,,,,,5,harmonic,1.85,,z,nw,,,,,,,
,,,,,,,,,,,281442,,001,2024-02-15_17h04.29.058,VH_new_version2,2023.2.3,MacIntel,55.55555556,392.337,393.336,,,,,,,,,,,,,,,,,,,,,,,,,,393.337,393.97,z,1,0.612,,393.97,393.97,,0,192,192,255,1,256,resap,,,,,5,notharmonic,1.9,,z,nw,,,,,,,
,,,,,,,,,,,281442,,001,2024-02-15_17h04.29.058,VH_new_version2,2023.2.3,MacIntel,55.55555556,393.97,394.97,,,,,,,,,,,,,,,,,,,,,,,,,,394.97,395.836,z,1,0.847,,395.836,395.836,,0,193,193,275,1,276,teşbuz,,,,,6,notharmonic,2.75,,z,nw,,,,,,,
,,,,,,,,,,,281442,,001,2024-02-15_17h04.29.058,VH_new_version2,2023.2.3,MacIntel,55.55555556,395.836,396.837,,,,,,,,,,,,,,,,,,,,,,,,,,396.837,397.487,z,1,0.629,,397.487,397.487,,0,194,194,160,1,161,ünte,,,,,4,harmonic,1.65,,z,nw,,,,,,,
,,,,,,,,,,,281442,,001,2024-02-15_17h04.29.058,VH_new_version2,2023.2.3,MacIntel,55.55555556,397.487,398.487,,,,,,,,,,,,,,,,,,,,,,,,,,398.487,399.237,z,1,0.736,,399.237,399.237,,0,195,195,202,1,203,cehret,,,,,6,harmonic,1.85,,z,nw,,,,,,,
,,,,,,,,,,,281442,,001,2024-02-15_17h04.29.058,VH_new_version2,2023.2.3,MacIntel,55.55555556,399.237,400.237,,,,,,,,,,,,,,,,,,,,,,,,,,400.237,400.903,z,1,0.645,,400.904,400.904,,0,196,196,270,1,271,meşkup,,,,,6,notharmonic,1.95,,z,nw,,,,,,,
,,,,,,,,,,,281442,,001,2024-02-15_17h04.29.058,VH_new_version2,2023.2.3,MacIntel,55.55555556,400.904,401.904,,,,,,,,,,,,,,,,,,,,,,,,,,401.904,402.453,z,1,0.531,,402.453,402.453,,0,197,197,259,1,260,kiyaf,,,,,5,notharmonic,1.95,,z,nw,,,,,,,
,,,,,,,,,,,281442,,001,2024-02-15_17h04.29.058,VH_new_version2,2023.2.3,MacIntel,55.55555556,402.454,403.453,,,,,,,,,,,,,,,,,,,,,,,,,,403.453,404.154,m,1,0.68,,404.154,404.154,,0,198,198,45,1,46,akşam,7480,339.8615,6833,0.747,5,harmonic,1.6,5.53130197,m,w,,,,,,,
,,,,,,,,,,,281442,,001,2024-02-15_17h04.29.058,VH_new_version2,2023.2.3,MacIntel,55.55555556,404.155,405.154,,,,,,,,,,,,,,,,,,,,,,,,,,405.154,405.82,z,1,0.646,,405.82,405.821,,0,199,199,147,1,148,üyöm,,,,,4,harmonic,1.95,,z,nw,,,,,,,
,,,,,,,,,,,281442,,001,2024-02-15_17h04.29.058,VH_new_version2,2023.2.3,MacIntel,55.55555556,405.821,406.82,,,,,,,,,,,,,,,,,,,,,,,,,,406.82,407.603,z,1,0.769,,407.603,407.603,,0,200,200,226,1,227,şüda,,,,,4,notharmonic,1.9,,z,nw,,,,,,,
,,,,,,,,,,,281442,,001,2024-02-15_17h04.29.058,VH_new_version2,2023.2.3,MacIntel,55.55555556,407.603,408.604,,,,,,,,,,,,,,,,,,,,,,,,,,408.604,409.454,z,1,0.832,,409.454,409.454,,0,201,201,182,1,183,tesil,,,,,5,harmonic,1.45,,z,nw,,,,,,,
,,,,,,,,,,,281442,,001,2024-02-15_17h04.29.058,VH_new_version2,2023.2.3,MacIntel,55.55555556,409.454,410.454,,,,,,,,,,,,,,,,,,,,,,,,,,410.454,411.204,z,1,0.729,,411.204,411.204,,0,202,202,261,1,262,eksan,,,,,5,notharmonic,1.7,,z,nw,,,,,,,
,,,,,,,,,,,281442,,001,2024-02-15_17h04.29.058,VH_new_version2,2023.2.3,MacIntel,55.55555556,411.204,412.204,,,,,,,,,,,,,,,,,,,,,,,,,,412.204,412.854,z,1,0.63,,412.854,412.854,,0,203,203,244,1,245,kimık,,,,,5,notharmonic,2,,z,nw,,,,,,,
,,,,,,,,,,,281442,,001,2024-02-15_17h04.29.058,VH_new_version2,2023.2.3,MacIntel,55.55555556,412.855,413.854,,,,,,,,,,,,,,,,,,,,,,,,,,413.854,414.504,m,1,0.63,,414.504,414.504,,0,204,204,54,1,55,elbise,883,40.12,786,0.0859,6,harmonic,1.9,4.603360924,m,w,,,,,,,
,,,,,,,,,,,281442,,001,2024-02-15_17h04.29.058,VH_new_version2,2023.2.3,MacIntel,55.55555556,414.505,415.504,,,,,,,,,,,,,,,,,,,,,,,,,,415.504,416.121,z,1,0.603,,416.121,416.121,,0,205,205,153,1,154,uyko,,,,,4,harmonic,1.95,,z,nw,,,,,,,
,,,,,,,,,,,281442,,001,2024-02-15_17h04.29.058,VH_new_version2,2023.2.3,MacIntel,55.55555556,416.121,417.121,,,,,,,,,,,,,,,,,,,,,,,,,,417.121,417.788,z,1,0.647,,417.788,417.788,,0,206,206,282,1,283,daketi,,,,,6,notharmonic,1.8,,z,nw,,,,,,,
,,,,,,,,,,,281442,,001,2024-02-15_17h04.29.058,VH_new_version2,2023.2.3,MacIntel,55.55555556,417.788,418.788,,,,,,,,,,,,,,,,,,,,,,,,,,418.788,419.254,z,1,0.449,,419.254,419.254,,0,207,207,211,1,212,yıksık,,,,,6,harmonic,1.8,,z,nw,,,,,,,
,,,,,,,,,,,281442,,001,2024-02-15_17h04.29.058,VH_new_version2,2023.2.3,MacIntel,55.55555556,419.255,420.254,,,,,,,,,,,,,,,,,,,,,,,,,,420.255,420.887,m,1,0.616,,420.887,420.887,,0,208,208,121,1,122,usta,1823,82.8299,1478,0.1616,4,harmonic,1.5,4.918187137,m,w,,,,,,,
,,,,,,,,,,,281442,,001,2024-02-15_17h04.29.058,VH_new_version2,2023.2.3,MacIntel,55.55555556,420.888,421.888,,,,,,,,,,,,,,,,,,,,,,,,,,421.888,422.338,m,1,0.435,,422.338,422.338,,0,209,209,73,1,74,gemi,629,28.5793,544,0.0595,4,harmonic,1.1,4.456051587,m,w,,,,,,,
,,,,,,,,,,,281442,,001,2024-02-15_17h04.29.058,VH_new_version2,2023.2.3,MacIntel,55.55555556,422.338,423.338,,,,,,,,,,,,,,,,,,,,,,,,,,423.338,424.004,z,1,0.646,,424.004,424.005,,0,210,210,183,1,184,çapal,,,,,5,harmonic,1.6,,z,nw,,,,,,,
,,,,,,,,,,,281442,,001,2024-02-15_17h04.29.058,VH_new_version2,2023.2.3,MacIntel,55.55555556,424.005,425.005,,,,,,,,,,,,,,,,,,,,,,,,,,425.005,425.388,m,1,0.362,,425.388,425.388,,0,211,211,7,1,8,inci,757,34.3951,686,0.075,4,harmonic,1.05,4.536496576,m,w,,,,,,,
,,,,,,,,,,,281442,,001,2024-02-15_17h04.29.058,VH_new_version2,2023.2.3,MacIntel,55.55555556,425.389,426.387,,,,,,,,,,,,,,,,,,,,,,,,,,426.387,426.921,m,1,0.521,,426.921,434.988,space,0,212,212,138,1,139,ödül,1063,48.2985,926,0.1012,4,harmonic,1.7,4.683933643,m,w,8.053,,,,,,
,,,,,,,,,,,281442,,001,2024-02-15_17h04.29.058,VH_new_version2,2023.2.3,MacIntel,55.55555556,434.989,435.988,,,,,,,,,,,,,,,,,,,,,,,,,,435.988,436.655,m,1,0.648,,436.655,436.655,,0,213,213,56,1,57,meslek,1082,49.1618,976,0.1067,6,harmonic,1.9,4.691627776,m,w,,,,,,,
,,,,,,,,,,,281442,,001,2024-02-15_17h04.29.058,VH_new_version2,2023.2.3,MacIntel,55.55555556,436.656,437.655,,,,,,,,,,,,,,,,,,,,,,,,,,437.655,438.422,m,1,0.751,,438.422,438.422,,0,214,214,31,1,32,pembe,1549,70.3804,1327,0.1451,5,harmonic,2,4.847451731,m,w,,,,,,,
,,,,,,,,,,,281442,,001,2024-02-15_17h04.29.058,VH_new_version2,2023.2.3,MacIntel,55.55555556,438.422,439.422,,,,,,,,,,,,,,,,,,,,,,,,,,439.422,439.789,m,0,0.346,,439.789,439.789,,0,215,215,152,1,153,ebür,,,,,4,harmonic,1.95,,z,nw,,,,,,,
,,,,,,,,,,,281442,,001,2024-02-15_17h04.29.058,VH_new_version2,2023.2.3,MacIntel,55.55555556,439.789,440.789,,,,,,,,,,,,,,,,,,,,,,,,,,440.789,441.272,z,1,0.47,,441.272,441.272,,0,216,216,253,1,254,mafke,,,,,5,notharmonic,1.9,,z,nw,,,,,,,
,,,,,,,,,,,281442,,001,2024-02-15_17h04.29.058,VH_new_version2,2023.2.3,MacIntel,55.55555556,441.272,442.272,,,,,,,,,,,,,,,,,,,,,,,,,,442.272,442.905,z,1,0.613,,442.906,442.906,,0,217,217,209,1,210,soğkal,,,,,6,harmonic,2.1,,z,nw,,,,,,,
,,,,,,,,,,,281442,,001,2024-02-15_17h04.29.058,VH_new_version2,2023.2.3,MacIntel,55.55555556,442.906,443.905,,,,,,,,,,,,,,,,,,,,,,,,,,443.906,444.555,z,1,0.631,,444.556,444.556,,0,218,218,274,1,275,çanese,,,,,6,notharmonic,2,,z,nw,,,,,,,
,,,,,,,,,,,281442,,001,2024-02-15_17h04.29.058,VH_new_version2,2023.2.3,MacIntel,55.55555556,444.556,445.555,,,,,,,,,,,,,,,,,,,,,,,,,,445.555,446.189,m,1,0.614,,446.189,446.189,,0,219,219,17,1,18,sarı,2072,94.1435,1838,0.2009,4,harmonic,1,4.97379034,m,w,,,,,,,
,,,,,,,,,,,281442,,001,2024-02-15_17h04.29.058,VH_new_version2,2023.2.3,MacIntel,55.55555556,446.19,447.189,,,,,,,,,,,,,,,,,,,,,,,,,,447.189,447.806,m,1,0.596,,447.806,447.806,,0,220,220,110,1,111,akıl,2208,100.3228,2004,0.2191,4,harmonic,1,5.001399645,m,w,,,,,,,
,,,,,,,,,,,281442,,001,2024-02-15_17h04.29.058,VH_new_version2,2023.2.3,MacIntel,55.55555556,447.806,448.806,,,,,,,,,,,,,,,,,,,,,,,,,,448.806,449.372,m,1,0.545,,449.372,449.373,,0,221,221,85,1,86,güneş,4371,198.6009,3610,0.3946,5,harmonic,1.7,5.297981212,m,w,,,,,,,
,,,,,,,,,,,281442,,001,2024-02-15_17h04.29.058,VH_new_version2,2023.2.3,MacIntel,55.55555556,449.373,450.372,,,,,,,,,,,,,,,,,,,,,,,,,,450.372,450.706,m,0,0.313,,450.706,450.706,,0,222,222,240,1,241,makek,,,,,5,notharmonic,1.9,,z,nw,,,,,,,
,,,,,,,,,,,281442,,001,2024-02-15_17h04.29.058,VH_new_version2,2023.2.3,MacIntel,55.55555556,450.706,451.705,,,,,,,,,,,,,,,,,,,,,,,,,,451.705,452.422,z,1,0.699,,452.423,452.423,,0,223,223,191,1,192,pedrek,,,,,6,harmonic,2,,z,nw,,,,,,,
,,,,,,,,,,,281442,,001,2024-02-15_17h04.29.058,VH_new_version2,2023.2.3,MacIntel,55.55555556,452.424,453.423,,,,,,,,,,,,,,,,,,,,,,,,,,453.423,453.956,z,1,0.513,,453.956,453.956,,0,224,224,280,1,281,icarar,,,,,6,notharmonic,2,,z,nw,,,,,,,
,,,,,,,,,,,281442,,001,2024-02-15_17h04.29.058,VH_new_version2,2023.2.3,MacIntel,55.55555556,453.957,454.956,,,,,,,,,,,,,,,,,,,,,,,,,,454.956,455.656,m,1,0.684,,455.656,455.656,,0,225,225,75,1,76,dergi,657,29.8515,592,0.0647,5,harmonic,1.3,4.474966159,m,w,,,,,,,
,,,,,,,,,,,281442,,001,2024-02-15_17h04.29.058,VH_new_version2,2023.2.3,MacIntel,55.55555556,455.657,456.656,,,,,,,,,,,,,,,,,,,,,,,,,,456.656,457.523,m,1,0.845,,457.523,457.523,,0,226,226,4,1,5,öfke,606,27.5342,542,0.0593,4,harmonic,1.85,4.439872463,m,w,,,,,,,
,,,,,,,,,,,281442,,001,2024-02-15_17h04.29.058,VH_new_version2,2023.2.3,MacIntel,55.55555556,457.523,458.523,,,,,,,,,,,,,,,,,,,,,,,,,,458.523,459.123,z,1,0.58,,459.123,459.123,,0,227,227,246,1,247,masil,,,,,5,notharmonic,1.7,,z,nw,,,,,,,
,,,,,,,,,,,281442,,001,2024-02-15_17h04.29.058,VH_new_version2,2023.2.3,MacIntel,55.55555556,459.124,460.123,,,,,,,,,,,,,,,,,,,,,,,,,,460.123,460.706,z,1,0.567,,460.706,460.707,,0,228,228,252,1,253,canit,,,,,5,notharmonic,1.8,,z,nw,,,,,,,
,,,,,,,,,,,281442,,001,2024-02-15_17h04.29.058,VH_new_version2,2023.2.3,MacIntel,55.55555556,460.707,461.706,,,,,,,,,,,,,,,,,,,,,,,,,,461.706,462.24,z,1,0.512,,462.24,462.24,,0,229,229,249,1,250,sisaj,,,,,5,notharmonic,2,,z,nw,,,,,,,
,,,,,,,,,,,281442,,001,2024-02-15_17h04.29.058,VH_new_version2,2023.2.3,MacIntel,55.55555556,462.24,463.239,,,,,,,,,,,,,,,,,,,,,,,,,,463.239,463.856,z,1,0.601,,463.856,463.857,,0,230,230,235,1,236,mate,,,,,4,notharmonic,1.65,,z,nw,,,,,,,
,,,,,,,,,,,281442,,001,2024-02-15_17h04.29.058,VH_new_version2,2023.2.3,MacIntel,55.55555556,463.857,464.856,,,,,,,,,,,,,,,,,,,,,,,,,,464.857,465.373,z,1,0.499,,465.373,465.373,,0,231,231,231,1,232,babi,,,,,4,notharmonic,1.4,,z,nw,,,,,,,
,,,,,,,,,,,281442,,001,2024-02-15_17h04.29.058,VH_new_version2,2023.2.3,MacIntel,55.55555556,465.374,466.373,,,,,,,,,,,,,,,,,,,,,,,,,,466.373,466.94,z,1,0.545,,466.94,466.94,,0,232,232,198,1,199,tenlek,,,,,6,harmonic,1.85,,z,nw,,,,,,,
,,,,,,,,,,,281442,,001,2024-02-15_17h04.29.058,VH_new_version2,2023.2.3,MacIntel,55.55555556,466.94,467.94,,,,,,,,,,,,,,,,,,,,,,,,,,467.94,468.406,z,1,0.449,,468.407,468.407,,0,233,233,213,1,214,zale,,,,,4,notharmonic,1.55,,z,nw,,,,,,,
,,,,,,,,,,,281442,,001,2024-02-15_17h04.29.058,VH_new_version2,2023.2.3,MacIntel,55.55555556,468.407,469.406,,,,,,,,,,,,,,,,,,,,,,,,,,469.406,469.823,z,0,0.396,,469.823,469.824,,0,234,234,8,1,9,ağız,824,37.4393,758,0.0829,4,harmonic,1.2,4.57332772,m,w,,,,,,,
,,,,,,,,,,,281442,,001,2024-02-15_17h04.29.058,VH_new_version2,2023.2.3,MacIntel,55.55555556,469.824,470.823,,,,,,,,,,,,,,,,,,,,,,,,,,470.823,471.39,z,1,0.547,,471.39,471.39,,0,235,235,267,1,268,tapare,,,,,6,notharmonic,1.95,,z,nw,,,,,,,
,,,,,,,,,,,281442,,001,2024-02-15_17h04.29.058,VH_new_version2,2023.2.3,MacIntel,55.55555556,471.391,472.39,,,,,,,,,,,,,,,,,,,,,,,,,,472.39,472.99,m,1,0.587,,472.99,472.99,,0,236,236,78,1,79,şişe,478,21.7184,440,0.0481,4,harmonic,1.05,4.336827828,m,w,,,,,,,
,,,,,,,,,,,281442,,001,2024-02-15_17h04.29.058,VH_new_version2,2023.2.3,MacIntel,55.55555556,472.991,473.99,,,,,,,,,,,,,,,,,,,,,,,,,,473.99,474.657,z,1,0.646,,474.657,474.657,,0,237,237,257,1,258,seran,,,,,5,notharmonic,1.35,,z,nw,,,,,,,
,,,,,,,,,,,281442,,001,2024-02-15_17h04.29.058,VH_new_version2,2023.2.3,MacIntel,55.55555556,474.657,475.657,,,,,,,,,,,,,,,,,,,,,,,,,,475.657,477.09,z,1,1.412,,477.09,477.09,,0,238,238,207,1,208,dendek,,,,,6,harmonic,1.8,,z,nw,,,,,,,
,,,,,,,,,,,281442,,001,2024-02-15_17h04.29.058,VH_new_version2,2023.2.3,MacIntel,55.55555556,477.091,478.09,,,,,,,,,,,,,,,,,,,,,,,,,,478.091,478.741,m,1,0.639,,478.741,478.741,,0,239,239,87,1,88,sevgi,3950,179.4723,3467,0.379,5,harmonic,1.65,5.253997428,m,w,,,,,,,
,,,,,,,,,,,281442,,001,2024-02-15_17h04.29.058,VH_new_version2,2023.2.3,MacIntel,55.55555556,478.741,479.74,,,,,,,,,,,,,,,,,,,,,,,,,,479.741,480.457,m,1,0.701,,480.457,480.457,,0,240,240,20,1,21,süre,8679,394.3393,8119,0.8876,4,harmonic,1,5.595870061,m,w,,,,,,,
,,,,,,,,,,,281442,,001,2024-02-15_17h04.29.058,VH_new_version2,2023.2.3,MacIntel,55.55555556,480.457,481.457,,,,,,,,,,,,,,,,,,,,,,,,,,481.457,482.107,z,1,0.629,,482.107,482.108,,0,241,241,175,1,176,sakça,,,,,5,harmonic,1.55,,z,nw,,,,,,,
,,,,,,,,,,,281442,,001,2024-02-15_17h04.29.058,VH_new_version2,2023.2.3,MacIntel,55.55555556,482.108,483.106,,,,,,,,,,,,,,,,,,,,,,,,,,483.106,483.757,m,1,0.631,,483.757,483.758,,0,242,242,26,1,27,boyun,843,38.3026,777,0.0849,5,harmonic,1.05,4.583228255,m,w,,,,,,,
,,,,,,,,,,,281442,,001,2024-02-15_17h04.29.058,VH_new_version2,2023.2.3,MacIntel,55.55555556,483.758,484.757,,,,,,,,,,,,,,,,,,,,,,,,,,484.757,485.474,z,1,0.702,,485.474,485.474,,0,243,243,193,1,194,hatrak,,,,,6,harmonic,1.95,,z,nw,,,,,,,
,,,,,,,,,,,281442,,001,2024-02-15_17h04.29.058,VH_new_version2,2023.2.3,MacIntel,55.55555556,485.475,486.474,,,,,,,,,,,,,,,,,,,,,,,,,,486.474,487.107,z,1,0.612,,487.108,487.108,,0,244,244,241,1,242,akter,,,,,5,notharmonic,1.8,,z,nw,,,,,,,
,,,,,,,,,,,281442,,001,2024-02-15_17h04.29.058,VH_new_version2,2023.2.3,MacIntel,55.55555556,487.108,488.108,,,,,,,,,,,,,,,,,,,,,,,,,,488.108,488.541,m,1,0.419,,488.541,488.541,,0,245,245,112,1,113,kelime,2185,99.2777,1971,0.2155,6,harmonic,1.25,4.996851707,m,w,,,,,,,
,,,,,,,,,,,281442,,001,2024-02-15_17h04.29.058,VH_new_version2,2023.2.3,MacIntel,55.55555556,488.541,489.54,,,,,,,,,,,,,,,,,,,,,,,,,,489.54,490.09,z,1,0.532,,490.091,490.091,,0,246,246,271,1,272,yakele,,,,,6,notharmonic,2,,z,nw,,,,,,,
,,,,,,,,,,,281442,,001,2024-02-15_17h04.29.058,VH_new_version2,2023.2.3,MacIntel,55.55555556,490.091,491.091,,,,,,,,,,,,,,,,,,,,,,,,,,491.091,491.541,m,1,0.433,,491.541,491.541,,0,247,247,3,1,4,otuz,583,26.4892,556,0.0608,4,harmonic,1.45,4.423068842,m,w,,,,,,,
,,,,,,,,,,,281442,,001,2024-02-15_17h04.29.058,VH_new_version2,2023.2.3,MacIntel,55.55555556,491.542,492.541,,,,,,,,,,,,,,,,,,,,,,,,,,492.541,493.074,m,1,0.512,,493.074,493.075,,0,248,248,33,1,34,sayfa,1655,75.1966,1502,0.1642,5,harmonic,1.45,4.876198204,m,w,,,,,,,
,,,,,,,,,,,281442,,001,2024-02-15_17h04.29.058,VH_new_version2,2023.2.3,MacIntel,55.55555556,493.075,494.074,,,,,,,,,,,,,,,,,,,,,,,,,,494.075,494.724,m,1,0.632,,494.725,494.725,,0,249,249,49,1,50,çeyrek,540,24.5355,477,0.0521,6,harmonic,1.9,4.389794913,m,w,,,,,,,
,,,,,,,,,,,281442,,001,2024-02-15_17h04.29.058,VH_new_version2,2023.2.3,MacIntel,55.55555556,494.725,495.725,,,,,,,,,,,,,,,,,,,,,,,,,,495.725,496.641,z,1,0.896,,496.641,496.642,,0,250,250,225,1,226,elda,,,,,4,notharmonic,1.6,,z,nw,,,,,,,
,,,,,,,,,,,281442,,001,2024-02-15_17h04.29.058,VH_new_version2,2023.2.3,MacIntel,55.55555556,496.642,497.641,,,,,,,,,,,,,,,,,,,,,,,,,,497.641,498.192,z,0,0.529,,498.192,498.192,,0,251,251,81,1,82,hava,4975,226.0443,4398,0.4808,4,harmonic,1,5.35419356,m,w,,,,,,,
,,,,,,,,,,,281442,,001,2024-02-15_17h04.29.058,VH_new_version2,2023.2.3,MacIntel,55.55555556,498.192,499.191,,,,,,,,,,,,,,,,,,,,,,,,,,499.191,499.975,m,1,0.767,,499.975,499.975,,0,252,252,15,1,16,ışık,1814,82.421,1635,0.1787,4,harmonic,1.6,4.916037879,m,w,,,,,,,
,,,,,,,,,,,281442,,001,2024-02-15_17h04.29.058,VH_new_version2,2023.2.3,MacIntel,55.55555556,499.975,500.975,,,,,,,,,,,,,,,,,,,,,,,,,,500.975,501.524,m,1,0.53,,501.524,501.524,,0,253,253,70,1,71,gerçek,8983,408.1519,8058,0.8809,6,harmonic,1.7,5.610821823,m,w,,,,,,,
,,,,,,,,,,,281442,,001,2024-02-15_17h04.29.058,VH_new_version2,2023.2.3,MacIntel,55.55555556,501.525,502.525,,,,,,,,,,,,,,,,,,,,,,,,,,502.525,503.058,m,1,0.521,,503.058,503.058,,0,254,254,18,1,19,ülke,3121,141.8059,2801,0.3062,4,harmonic,1.65,5.151694301,m,w,,,,,,,
,,,,,,,,,,,281442,,001,2024-02-15_17h04.29.058,VH_new_version2,2023.2.3,MacIntel,55.55555556,503.059,504.058,,,,,,,,,,,,,,,,,,,,,,,,,,504.058,504.658,m,1,0.578,,504.658,504.658,,0,255,255,99,1,100,altı,2782,126.403,2571,0.2811,4,harmonic,1,5.101757381,m,w,,,,,,,
,,,,,,,,,,,281442,,001,2024-02-15_17h04.29.058,VH_new_version2,2023.2.3,MacIntel,55.55555556,504.659,505.658,,,,,,,,,,,,,,,,,,,,,,,,,,505.658,506.075,m,1,0.395,,506.075,506.075,,0,256,256,74,1,75,çatı,469,21.3095,379,0.0414,4,harmonic,1,4.32857326,m,w,,,,,,,
,,,,,,,,,,,281442,,001,2024-02-15_17h04.29.058,VH_new_version2,2023.2.3,MacIntel,55.55555556,506.076,507.075,,,,,,,,,,,,,,,,,,,,,,,,,,507.075,507.458,m,0,0.366,,507.458,507.458,,0,257,257,150,1,151,acuz,,,,,4,harmonic,1.65,,z,nw,,,,,,,
,,,,,,,,,,,281442,,001,2024-02-15_17h04.29.058,VH_new_version2,2023.2.3,MacIntel,55.55555556,507.459,508.458,,,,,,,,,,,,,,,,,,,,,,,,,,508.458,508.925,z,1,0.45,,508.925,508.925,,0,258,258,276,1,277,hiyake,,,,,6,notharmonic,2.25,,z,nw,,,,,,,
,,,,,,,,,,,281442,,001,2024-02-15_17h04.29.058,VH_new_version2,2023.2.3,MacIntel,55.55555556,508.926,509.925,,,,,,,,,,,,,,,,,,,,,,,,,,509.925,510.559,m,1,0.612,,510.559,510.559,,0,259,259,100,1,101,ekmek,2734,124.2221,2318,0.2534,5,harmonic,1.3,5.094198867,m,w,,,,,,,
,,,,,,,,,,,281442,,001,2024-02-15_17h04.29.058,VH_new_version2,2023.2.3,MacIntel,55.55555556,510.559,511.559,,,,,,,,,,,,,,,,,,,,,,,,,,511.559,512.275,z,1,0.696,,512.275,512.275,,0,260,260,180,1,181,finer,,,,,5,harmonic,1.65,,z,nw,,,,,,,
,,,,,,,,,,,281442,,001,2024-02-15_17h04.29.058,VH_new_version2,2023.2.3,MacIntel,55.55555556,512.276,513.276,,,,,,,,,,,,,,,,,,,,,,,,,,513.276,513.925,z,1,0.631,,513.925,513.926,,0,261,261,156,1,157,obık,,,,,4,harmonic,1.95,,z,nw,,,,,,,
,,,,,,,,,,,281442,,001,2024-02-15_17h04.29.058,VH_new_version2,2023.2.3,MacIntel,55.55555556,513.926,514.925,,,,,,,,,,,,,,,,,,,,,,,,,,514.925,515.592,m,1,0.656,,515.592,515.592,,0,262,262,118,1,119,fırsat,1952,88.6911,1863,0.2037,6,harmonic,1.85,4.947880041,m,w,,,,,,,
,,,,,,,,,,,281442,,001,2024-02-15_17h04.29.058,VH_new_version2,2023.2.3,MacIntel,55.55555556,515.593,516.592,,,,,,,,,,,,,,,,,,,,,,,,,,516.592,517.275,z,1,0.668,,517.276,517.276,,0,263,263,205,1,206,hücmet,,,,,6,harmonic,1.85,,z,nw,,,,,,,
,,,,,,,,,,,281442,,001,2024-02-15_17h04.29.058,VH_new_version2,2023.2.3,MacIntel,55.55555556,517.276,518.276,,,,,,,,,,,,,,,,,,,,,,,,,,518.276,519.092,z,1,0.796,,519.092,519.092,,0,264,264,155,1,156,megi,,,,,4,harmonic,1.8,,z,nw,,,,,,,
,,,,,,,,,,,281442,,001,2024-02-15_17h04.29.058,VH_new_version2,2023.2.3,MacIntel,55.55555556,519.093,520.093,,,,,,,,,,,,,,,,,,,,,,,,,,520.093,520.776,z,1,0.661,,520.776,520.776,,0,265,265,214,1,215,dera,,,,,4,notharmonic,1.2,,z,nw,,,,,,,
,,,,,,,,,,,281442,,001,2024-02-15_17h04.29.058,VH_new_version2,2023.2.3,MacIntel,55.55555556,520.777,521.776,,,,,,,,,,,,,,,,,,,,,,,,,,521.776,522.443,m,1,0.647,,522.443,522.443,,0,266,266,53,1,54,çıplak,819,37.2121,766,0.0837,6,harmonic,2,4.570684179,m,w,,,,,,,
,,,,,,,,,,,281442,,001,2024-02-15_17h04.29.058,VH_new_version2,2023.2.3,MacIntel,55.55555556,522.444,523.443,,,,,,,,,,,,,,,,,,,,,,,,,,523.443,524.609,z,1,1.145,,524.61,524.61,,0,267,267,192,1,193,kumgun,,,,,6,harmonic,1.85,,z,nw,,,,,,,
,,,,,,,,,,,281442,,001,2024-02-15_17h04.29.058,VH_new_version2,2023.2.3,MacIntel,55.55555556,524.611,525.609,,,,,,,,,,,,,,,,,,,,,,,,,,525.609,526.542,m,1,0.919,,526.542,526.542,,0,268,268,60,1,61,nefret,2429,110.3641,2115,0.2312,6,harmonic,1.8,5.042827826,m,w,,,,,,,
,,,,,,,,,,,281442,,001,2024-02-15_17h04.29.058,VH_new_version2,2023.2.3,MacIntel,55.55555556,526.543,527.543,,,,,,,,,,,,,,,,,,,,,,,,,,527.543,528.343,m,1,0.779,,528.343,528.343,,0,269,269,83,1,84,şafak,616,27.9886,521,0.057,5,harmonic,1.8,4.446981175,m,w,,,,,,,
,,,,,,,,,,,281442,,001,2024-02-15_17h04.29.058,VH_new_version2,2023.2.3,MacIntel,55.55555556,528.344,529.343,,,,,,,,,,,,,,,,,,,,,,,,,,529.343,529.976,m,1,0.613,,529.976,529.977,,0,270,270,128,1,129,merkez,1445,65.6551,1255,0.1372,6,harmonic,1.8,4.817268467,m,w,,,,,,,
,,,,,,,,,,,281442,,001,2024-02-15_17h04.29.058,VH_new_version2,2023.2.3,MacIntel,55.55555556,529.977,530.976,,,,,,,,,,,,,,,,,,,,,,,,,,530.976,531.626,z,1,0.636,,531.626,531.626,,0,271,271,169,1,170,senez,,,,,5,harmonic,1.65,,z,nw,,,,,,,
,,,,,,,,,,,281442,,001,2024-02-15_17h04.29.058,VH_new_version2,2023.2.3,MacIntel,55.55555556,531.627,532.626,,,,,,,,,,,,,,,,,,,,,,,,,,532.626,533.343,z,1,0.696,,533.343,533.343,,0,272,272,159,1,160,daro,,,,,4,harmonic,1.7,,z,nw,,,,,,,
,,,,,,,,,,,281442,,001,2024-02-15_17h04.29.058,VH_new_version2,2023.2.3,MacIntel,55.55555556,533.344,534.343,,,,,,,,,,,,,,,,,,,,,,,,,,534.343,534.976,z,1,0.612,,534.976,534.976,,0,273,273,258,1,259,ihati,,,,,5,notharmonic,1.95,,z,nw,,,,,,,
,,,,,,,,,,,281442,,001,2024-02-15_17h04.29.058,VH_new_version2,2023.2.3,MacIntel,55.55555556,534.977,535.976,,,,,,,,,,,,,,,,,,,,,,,,,,535.977,536.66,z,1,0.669,,536.66,536.66,,0,274,274,273,1,274,kalkeş,,,,,6,notharmonic,1.85,,z,nw,,,,,,,
,,,,,,,,,,,281442,,001,2024-02-15_17h04.29.058,VH_new_version2,2023.2.3,MacIntel,55.55555556,536.66,537.66,,,,,,,,,,,,,,,,,,,,,,,,,,537.66,538.01,z,0,0.329,,538.01,538.01,,0,275,275,67,1,68,sosyal,5290,240.3566,4372,0.4779,6,harmonic,1.85,5.380856052,m,w,,,,,,,
,,,,,,,,,,,281442,,001,2024-02-15_17h04.29.058,VH_new_version2,2023.2.3,MacIntel,55.55555556,538.01,539.01,,,,,,,,,,,,,,,,,,,,,,,,,,539.01,539.393,m,1,0.369,,539.393,539.393,,0,276,276,72,1,73,uğur,787,35.7582,666,0.0728,4,harmonic,1.6,4.553375649,m,w,,,,,,,
,,,,,,,,,,,281442,,001,2024-02-15_17h04.29.058,VH_new_version2,2023.2.3,MacIntel,55.55555556,539.394,540.394,,,,,,,,,,,,,,,,,,,,,,,,,,540.394,540.993,z,1,0.581,,540.993,540.994,,0,277,277,247,1,248,fiyan,,,,,5,notharmonic,1.6,,z,nw,,,,,,,
,,,,,,,,,,,281442,,001,2024-02-15_17h04.29.058,VH_new_version2,2023.2.3,MacIntel,55.55555556,540.994,541.993,,,,,,,,,,,,,,,,,,,,,,,,,,541.993,542.643,z,1,0.631,,542.643,542.644,,0,278,278,272,1,273,takime,,,,,6,notharmonic,1.5,,z,nw,,,,,,,
,,,,,,,,,,,281442,,001,2024-02-15_17h04.29.058,VH_new_version2,2023.2.3,MacIntel,55.55555556,542.644,543.644,,,,,,,,,,,,,,,,,,,,,,,,,,543.644,544.293,z,1,0.629,,544.293,544.294,,0,279,279,199,1,200,bartam,,,,,6,harmonic,1.85,,z,nw,,,,,,,
,,,,,,,,,,,281442,,001,2024-02-15_17h04.29.058,VH_new_version2,2023.2.3,MacIntel,55.55555556,544.294,545.294,,,,,,,,,,,,,,,,,,,,,,,,,,545.294,545.76,z,0,0.446,,545.76,545.76,,0,280,280,76,1,77,koltuk,559,25.3987,476,0.052,6,harmonic,1.75,4.404811488,m,w,,,,,,,
,,,,,,,,,,,281442,,001,2024-02-15_17h04.29.058,VH_new_version2,2023.2.3,MacIntel,55.55555556,545.761,546.76,,,,,,,,,,,,,,,,,,,,,,,,,,546.76,547.226,m,1,0.452,,547.226,547.226,,0,281,281,82,1,83,oyun,4926,223.8179,3995,0.4367,4,harmonic,1,5.349894817,m,w,,,,,,,
,,,,,,,,,,,281442,,001,2024-02-15_17h04.29.058,VH_new_version2,2023.2.3,MacIntel,55.55555556,547.227,548.227,,,,,,,,,,,,,,,,,,,,,,,,,,548.227,549.044,z,1,0.797,,549.044,549.044,,0,282,282,263,1,264,magina,,,,,6,notharmonic,1.9,,z,nw,,,,,,,
,,,,,,,,,,,281442,,001,2024-02-15_17h04.29.058,VH_new_version2,2023.2.3,MacIntel,55.55555556,549.044,550.044,,,,,,,,,,,,,,,,,,,,,,,,,,550.044,550.527,m,1,0.463,,550.527,566.361,space,0,283,283,6,1,7,avuç,729,33.1229,659,0.072,4,harmonic,1.85,4.520128353,m,w,15.822,,,,,,
,,,,,,,,,,,281442,,001,2024-02-15_17h04.29.058,VH_new_version2,2023.2.3,MacIntel,55.55555556,,,,,,,,,,,,,,,,,,,,,,,,,,,,,,,,,,,,,,,,,,,,,,,,,,,,,,,,566.362,567.895,space,1.513,