welcome.started,welcome.stopped,key_resp_welc.keys,key_resp_welc.rt,key_resp_welc.duration,trials_2.thisRepN,trials_2.thisTrialN,trials_2.thisN,trials_2.thisIndex,trials_2.ran,Introduction,participant,Email Adresiniz,session,date,expName,psychopyVersion,OS,frameRate,fix.started,fix.stopped,Studypractice.started,Studypractice.stopped,key_resp_p.keys,key_resp_p.corr,key_resp_p.rt,key_resp_p.duration,rt,corr,FB.started,FB.stopped,trials.thisRepN,trials.thisTrialN,trials.thisN,trials.thisIndex,trials.ran,item_nr_p,target_p,isHarmonic_p,target_cond_p,CorrAns_p,inst2.started,inst2.stopped,key_resp_xx.keys,key_resp_xx.rt,key_resp_xx.duration,TestTrial.started,TestTrial.stopped,key_respTest.keys,key_respTest.corr,key_respTest.rt,key_respTest.duration,Pause.started,Pause.stopped,key_resp_pause.keys,trials_3.thisRepN,trials_3.thisTrialN,trials_3.thisN,trials_3.thisIndex,trials_3.ran,item_nr,target,BlogFreq,BlogFreqPm,BlogCD,BlogCDPc,WordLength,isHarmonic,old20,Zipf,CorrAns,word_cond,key_resp_pause.rt,key_resp_pause.duration,Bye.started,Bye.stopped,key_resp_bye.keys,key_resp_bye.rt,key_resp_bye.duration
0.0218,0.8205,space,0.7754,,0,0,0,0,1,"Deneye hoş geldiniz,

Devam etmek için BOŞLUK tuşuna basınız.",321468,,001,2024-02-16_17h39.09.530,VH_new_version2,2023.2.3,Win32,60.24096386,,,,,,,,,,,,,,,,,,,,,,,,,,,,,,,,,,,,,,,,,,,,,,,,,,,,,,,,,,,,
0.8217,1.3094,space,0.466,,0,1,1,1,1,"Bu çalışma Valencia Üniversitesi kapsamında yürütülmektedir. Deneydeki göreviniz, ekrana çıkacak Türkçe sözcüklerin kelime olup olmadığını belirlemenizdir. Eğer sözcük gerçek bir kelime ise ""m"" tuşuna, değil ise ""z"" tuşuna basınız.   

Devam etmek için BOŞLUK tuşuna basınız.",321468,,001,2024-02-16_17h39.09.530,VH_new_version2,2023.2.3,Win32,60.24096386,,,,,,,,,,,,,,,,,,,,,,,,,,,,,,,,,,,,,,,,,,,,,,,,,,,,,,,,,,,,
1.3097,1.637,space,0.3071,,0,2,2,2,1,"Her sözcük için en fazla iki saniyede cevap vermeniz beklenmektedir. Aksi takdirde deney bir sonraki sözcük ile devam eder. 
Bu çalışmada oldukça hızlı ve doğru cevaplama yapmanız beklenmektedir.

Devam etmek için BOŞLUK tuşuna basınız.",321468,,001,2024-02-16_17h39.09.530,VH_new_version2,2023.2.3,Win32,60.24096386,,,,,,,,,,,,,,,,,,,,,,,,,,,,,,,,,,,,,,,,,,,,,,,,,,,,,,,,,,,,
1.6376,1.8702,space,0.2016,,0,3,3,3,1,"Çalışmaya başlamadan önce ufak bir pratik yer almaktadır.
Kelimedir: ""m""
Kelime değildir: ""z""

Pratik teste başlamak için BOŞLUK tuşuna basınız. ",321468,,001,2024-02-16_17h39.09.530,VH_new_version2,2023.2.3,Win32,60.24096386,,,,,,,,,,,,,,,,,,,,,,,,,,,,,,,,,,,,,,,,,,,,,,,,,,,,,,,,,,,,
,,,,,,,,,,,321468,,001,2024-02-16_17h39.09.530,VH_new_version2,2023.2.3,Win32,60.24096386,1.8771,2.8713,2.8718,5.5267,m,1,2.6334,,2.6334,1,5.5269,6.521,0,0,0,3,1,4,sevgi,harmonic,word,m,,,,,,,,,,,,,,,,,,,,,,,,,,,,,,,,,,,,,,
,,,,,,,,,,,321468,,001,2024-02-16_17h39.09.530,VH_new_version2,2023.2.3,Win32,60.24096386,6.5214,7.5106,7.5107,8.1047,m,1,0.568,,0.568,1,8.1047,9.1047,0,1,1,1,1,2,veri,harmonic,word,m,,,,,,,,,,,,,,,,,,,,,,,,,,,,,,,,,,,,,,
,,,,,,,,,,,321468,,001,2024-02-16_17h39.09.530,VH_new_version2,2023.2.3,Win32,60.24096386,9.1049,10.1055,10.1055,10.6051,z,1,0.4691,,0.4691,1,10.6051,11.6057,0,2,2,19,1,20,mımal,harmonic,nw,z,,,,,,,,,,,,,,,,,,,,,,,,,,,,,,,,,,,,,,
,,,,,,,,,,,321468,,001,2024-02-16_17h39.09.530,VH_new_version2,2023.2.3,Win32,60.24096386,11.6061,12.6054,12.6054,13.3724,m,1,0.7336,,0.7336,1,13.3725,14.3617,0,3,3,6,1,7,sebep,harmonic,word,m,,,,,,,,,,,,,,,,,,,,,,,,,,,,,,,,,,,,,,
,,,,,,,,,,,321468,,001,2024-02-16_17h39.09.530,VH_new_version2,2023.2.3,Win32,60.24096386,14.3619,15.3557,15.3558,16.0727,m,1,0.6899,,0.6899,1,16.0728,17.0615,0,4,4,11,1,12,teslim,harmonic,word,m,,,,,,,,,,,,,,,,,,,,,,,,,,,,,,,,,,,,,,
,,,,,,,,,,,321468,,001,2024-02-16_17h39.09.530,VH_new_version2,2023.2.3,Win32,60.24096386,17.0617,18.0563,18.0563,18.8063,z,1,0.726,,0.726,1,18.8063,19.8066,0,5,5,20,1,21,yoğuk,harmonic,nw,z,,,,,,,,,,,,,,,,,,,,,,,,,,,,,,,,,,,,,,
,,,,,,,,,,,321468,,001,2024-02-16_17h39.09.530,VH_new_version2,2023.2.3,Win32,60.24096386,19.8073,20.8065,20.8066,21.44,z,1,0.6011,,0.6011,1,21.44,22.4469,0,6,6,22,1,23,gizım,notharmonic,nw,z,,,,,,,,,,,,,,,,,,,,,,,,,,,,,,,,,,,,,,
,,,,,,,,,,,321468,,001,2024-02-16_17h39.09.530,VH_new_version2,2023.2.3,Win32,60.24096386,22.447,23.4463,23.4463,24.0737,m,1,0.6056,,0.6056,1,24.0737,25.0738,0,7,7,8,1,9,bilim,harmonic,word,m,,,,,,,,,,,,,,,,,,,,,,,,,,,,,,,,,,,,,,
,,,,,,,,,,,321468,,001,2024-02-16_17h39.09.530,VH_new_version2,2023.2.3,Win32,60.24096386,25.074,26.0741,26.0741,27.4743,m,1,1.3679,,1.3679,1,27.4743,28.4797,0,8,8,7,1,8,oran,harmonic,word,m,,,,,,,,,,,,,,,,,,,,,,,,,,,,,,,,,,,,,,
,,,,,,,,,,,321468,,001,2024-02-16_17h39.09.530,VH_new_version2,2023.2.3,Win32,60.24096386,28.48,29.4804,29.4804,30.3635,z,1,0.8672,,0.8672,1,30.3635,31.3583,0,9,9,13,1,14,orat,harmonic,nw,z,,,,,,,,,,,,,,,,,,,,,,,,,,,,,,,,,,,,,,
,,,,,,,,,,,321468,,001,2024-02-16_17h39.09.530,VH_new_version2,2023.2.3,Win32,60.24096386,31.3588,32.3584,32.3584,37.3759,z,1,4.9859,,4.9859,1,37.3759,38.376,0,10,10,18,1,19,pimer,harmonic,nw,z,,,,,,,,,,,,,,,,,,,,,,,,,,,,,,,,,,,,,,
,,,,,,,,,,,321468,,001,2024-02-16_17h39.09.530,VH_new_version2,2023.2.3,Win32,60.24096386,38.3764,39.3767,39.3768,40.464,z,1,1.0657,,1.0657,1,40.464,41.4606,0,11,11,17,1,18,pilar,notharmonic,nw,z,,,,,,,,,,,,,,,,,,,,,,,,,,,,,,,,,,,,,,
,,,,,,,,,,,321468,,001,2024-02-16_17h39.09.530,VH_new_version2,2023.2.3,Win32,60.24096386,41.4608,42.4608,42.4608,43.2666,z,0,0.784,,0.784,0,43.2666,44.2665,0,12,12,0,1,1,hazır,harmonic,word,m,,,,,,,,,,,,,,,,,,,,,,,,,,,,,,,,,,,,,,
,,,,,,,,,,,321468,,001,2024-02-16_17h39.09.530,VH_new_version2,2023.2.3,Win32,60.24096386,44.2669,45.2603,45.2603,47.7782,m,1,2.4838,,2.4838,1,47.7783,48.7838,0,13,13,10,1,11,nefret,harmonic,word,m,,,,,,,,,,,,,,,,,,,,,,,,,,,,,,,,,,,,,,
,,,,,,,,,,,321468,,001,2024-02-16_17h39.09.530,VH_new_version2,2023.2.3,Win32,60.24096386,48.784,49.7783,49.7783,50.6446,z,1,0.8433,,0.8433,1,50.6447,51.6454,0,14,14,14,1,15,mahne,notharmonic,nw,z,,,,,,,,,,,,,,,,,,,,,,,,,,,,,,,,,,,,,,
,,,,,,,,,,,321468,,001,2024-02-16_17h39.09.530,VH_new_version2,2023.2.3,Win32,60.24096386,51.6456,52.6455,52.6455,53.2791,z,1,0.608,,0.608,1,53.2791,54.2793,0,15,15,23,1,24,zarim,notharmonic,nw,z,,,,,,,,,,,,,,,,,,,,,,,,,,,,,,,,,,,,,,
,,,,,,,,,,,321468,,001,2024-02-16_17h39.09.530,VH_new_version2,2023.2.3,Win32,60.24096386,54.2796,55.2794,55.2794,56.0786,z,1,0.777,,0.777,1,56.0786,57.0793,0,16,16,12,1,13,tahip,notharmonic,nw,z,,,,,,,,,,,,,,,,,,,,,,,,,,,,,,,,,,,,,,
,,,,,,,,,,,321468,,001,2024-02-16_17h39.09.530,VH_new_version2,2023.2.3,Win32,60.24096386,57.0795,58.0798,58.0799,58.9133,z,1,0.8012,,0.8012,1,58.9133,59.9135,0,17,17,21,1,22,güçli,harmonic,nw,z,,,,,,,,,,,,,,,,,,,,,,,,,,,,,,,,,,,,,,
,,,,,,,,,,,321468,,001,2024-02-16_17h39.09.530,VH_new_version2,2023.2.3,Win32,60.24096386,59.9137,60.9138,60.9138,61.713,z,1,0.7718,,0.7718,1,61.713,62.7024,0,18,18,16,1,17,ihlot,notharmonic,nw,z,,,,,,,,,,,,,,,,,,,,,,,,,,,,,,,,,,,,,,
,,,,,,,,,,,321468,,001,2024-02-16_17h39.09.530,VH_new_version2,2023.2.3,Win32,60.24096386,62.7026,63.697,63.697,64.3505,z,0,0.6308,,0.6308,0,64.3505,65.3474,0,19,19,9,1,10,zarar,harmonic,word,m,,,,,,,,,,,,,,,,,,,,,,,,,,,,,,,,,,,,,,
,,,,,,,,,,,321468,,001,2024-02-16_17h39.09.530,VH_new_version2,2023.2.3,Win32,60.24096386,65.3475,66.3475,66.3476,67.0137,z,0,0.6425,,0.6425,0,67.0137,68.0139,0,20,20,5,1,6,gizli,harmonic,word,m,,,,,,,,,,,,,,,,,,,,,,,,,,,,,,,,,,,,,,
,,,,,,,,,,,321468,,001,2024-02-16_17h39.09.530,VH_new_version2,2023.2.3,Win32,60.24096386,68.0141,69.0148,69.0148,69.6809,m,1,0.6333,,0.6333,1,69.6809,70.682,0,21,21,2,1,3,yardım,harmonic,word,m,,,,,,,,,,,,,,,,,,,,,,,,,,,,,,,,,,,,,,
,,,,,,,,,,,321468,,001,2024-02-16_17h39.09.530,VH_new_version2,2023.2.3,Win32,60.24096386,70.6822,71.6818,71.6818,72.1811,m,1,0.4768,,0.4768,1,72.1811,73.1819,0,22,22,4,1,5,soğuk,harmonic,word,m,,,,,,,,,,,,,,,,,,,,,,,,,,,,,,,,,,,,,,
,,,,,,,,,,,321468,,001,2024-02-16_17h39.09.530,VH_new_version2,2023.2.3,Win32,60.24096386,73.1822,74.182,74.182,74.715,z,1,0.5001,,0.5001,1,74.715,75.7153,0,23,23,15,1,16,geki,harmonic,nw,z,,,,,,,,,,,,,,,,,,,,,,,,,,,,,,,,,,,,,,
,,,,,,,,,,,321468,,001,2024-02-16_17h39.09.530,VH_new_version2,2023.2.3,Win32,60.24096386,,,,,,,,,,,,,,,,,,,,,,,75.7163,77.1557,space,1.417,,,,,,,,,,,,,,,,,,,,,,,,,,,,,,,,,,
,,,,,,,,,,,321468,,001,2024-02-16_17h39.09.530,VH_new_version2,2023.2.3,Win32,60.24096386,77.1822,78.1662,,,,,,,,,,,,,,,,,,,,,,,,,,78.1664,78.9338,z,1,0.7492,,78.9339,78.9345,,0,0,0,197,1,198,zemkin,,,,,6,harmonic,1.85,,z,nw,,,,,,,
,,,,,,,,,,,321468,,001,2024-02-16_17h39.09.530,VH_new_version2,2023.2.3,Win32,60.24096386,78.9349,79.9329,,,,,,,,,,,,,,,,,,,,,,,,,,79.9329,80.7,m,1,0.7489,,80.7001,80.7002,,0,1,1,11,1,12,öykü,958,43.5277,849,0.0928,4,harmonic,1.9,4.63876572,m,w,,,,,,,
,,,,,,,,,,,321468,,001,2024-02-16_17h39.09.530,VH_new_version2,2023.2.3,Win32,60.24096386,80.7005,81.7003,,,,,,,,,,,,,,,,,,,,,,,,,,81.7004,82.5496,m,1,0.8419,,82.5496,82.5497,,0,2,2,46,1,47,hayat,7922,359.9443,7314,0.7996,5,harmonic,1.35,5.556235301,m,w,,,,,,,
,,,,,,,,,,,321468,,001,2024-02-16_17h39.09.530,VH_new_version2,2023.2.3,Win32,60.24096386,82.55,83.5502,,,,,,,,,,,,,,,,,,,,,,,,,,83.5503,84.1007,z,1,0.5325,,84.1007,84.1007,,0,3,3,280,1,281,icarar,,,,,6,notharmonic,2,,z,nw,,,,,,,
,,,,,,,,,,,321468,,001,2024-02-16_17h39.09.530,VH_new_version2,2023.2.3,Win32,60.24096386,84.1009,85.1006,,,,,,,,,,,,,,,,,,,,,,,,,,85.1007,85.6341,m,1,0.5159,,85.6342,85.6343,,0,4,4,33,1,34,sayfa,1655,75.1966,1502,0.1642,5,harmonic,1.45,4.876198204,m,w,,,,,,,
,,,,,,,,,,,321468,,001,2024-02-16_17h39.09.530,VH_new_version2,2023.2.3,Win32,60.24096386,85.6346,86.6344,,,,,,,,,,,,,,,,,,,,,,,,,,86.6344,87.2844,m,1,0.6338,,87.2845,87.2846,,0,5,5,118,1,119,fırsat,1952,88.6911,1863,0.2037,6,harmonic,1.85,4.947880041,m,w,,,,,,,
,,,,,,,,,,,321468,,001,2024-02-16_17h39.09.530,VH_new_version2,2023.2.3,Win32,60.24096386,87.2849,88.2843,,,,,,,,,,,,,,,,,,,,,,,,,,88.2844,88.918,m,1,0.6209,,88.918,88.9181,,0,6,6,102,1,103,toplum,2562,116.4071,2249,0.2459,6,harmonic,1.65,5.06597947,m,w,,,,,,,
,,,,,,,,,,,321468,,001,2024-02-16_17h39.09.530,VH_new_version2,2023.2.3,Win32,60.24096386,88.9184,89.918,,,,,,,,,,,,,,,,,,,,,,,,,,89.9181,90.5174,m,1,0.5886,,90.5174,90.5175,,0,7,7,8,1,9,ağız,824,37.4393,758,0.0829,4,harmonic,1.2,4.57332772,m,w,,,,,,,
,,,,,,,,,,,321468,,001,2024-02-16_17h39.09.530,VH_new_version2,2023.2.3,Win32,60.24096386,90.5176,91.5183,,,,,,,,,,,,,,,,,,,,,,,,,,91.5184,92.1016,z,1,0.5639,,92.1016,92.1017,,0,8,8,237,1,238,masem,,,,,5,notharmonic,1.7,,z,nw,,,,,,,
,,,,,,,,,,,321468,,001,2024-02-16_17h39.09.530,VH_new_version2,2023.2.3,Win32,60.24096386,92.1019,93.1019,,,,,,,,,,,,,,,,,,,,,,,,,,93.102,93.7348,m,1,0.6214,,93.7348,93.7349,,0,9,9,48,1,49,çocuk,10612,482.1672,8979,0.9816,5,harmonic,1.75,5.683197664,m,w,,,,,,,
,,,,,,,,,,,321468,,001,2024-02-16_17h39.09.530,VH_new_version2,2023.2.3,Win32,60.24096386,93.7352,94.7349,,,,,,,,,,,,,,,,,,,,,,,,,,94.7349,95.4689,z,1,0.7144,,95.469,95.469,,0,10,10,283,1,284,dimdat,,,,,6,notharmonic,2.05,,z,nw,,,,,,,
,,,,,,,,,,,321468,,001,2024-02-16_17h39.09.530,VH_new_version2,2023.2.3,Win32,60.24096386,95.4694,96.4691,,,,,,,,,,,,,,,,,,,,,,,,,,96.4691,97.8353,z,1,1.3504,,97.8353,97.8354,,0,11,11,226,1,227,şüda,,,,,4,notharmonic,1.9,,z,nw,,,,,,,
,,,,,,,,,,,321468,,001,2024-02-16_17h39.09.530,VH_new_version2,2023.2.3,Win32,60.24096386,97.8357,98.8355,,,,,,,,,,,,,,,,,,,,,,,,,,98.8355,99.8188,m,1,0.9758,,99.8188,99.8189,,0,12,12,111,1,112,balık,2189,99.4595,1817,0.1986,5,harmonic,1,4.997646272,m,w,,,,,,,
,,,,,,,,,,,321468,,001,2024-02-16_17h39.09.530,VH_new_version2,2023.2.3,Win32,60.24096386,99.8191,100.8199,,,,,,,,,,,,,,,,,,,,,,,,,,100.82,101.403,m,1,0.566,,101.403,101.4032,,0,13,13,3,1,4,otuz,583,26.4892,556,0.0608,4,harmonic,1.45,4.423068842,m,w,,,,,,,
,,,,,,,,,,,321468,,001,2024-02-16_17h39.09.530,VH_new_version2,2023.2.3,Win32,60.24096386,101.4035,102.4035,,,,,,,,,,,,,,,,,,,,,,,,,,102.4035,103.203,z,1,0.7884,,103.203,103.203,,0,14,14,174,1,175,güzeh,,,,,5,harmonic,1.85,,z,nw,,,,,,,
,,,,,,,,,,,321468,,001,2024-02-16_17h39.09.530,VH_new_version2,2023.2.3,Win32,60.24096386,103.2032,104.2036,,,,,,,,,,,,,,,,,,,,,,,,,,104.2037,104.8869,z,1,0.6748,,104.887,104.887,,0,15,15,206,1,207,teşcik,,,,,6,harmonic,1.9,,z,nw,,,,,,,
,,,,,,,,,,,321468,,001,2024-02-16_17h39.09.530,VH_new_version2,2023.2.3,Win32,60.24096386,104.8873,105.8864,,,,,,,,,,,,,,,,,,,,,,,,,,105.8864,106.37,m,1,0.4666,,106.3701,106.3701,,0,16,16,85,1,86,güneş,4371,198.6009,3610,0.3946,5,harmonic,1.7,5.297981212,m,w,,,,,,,
,,,,,,,,,,,321468,,001,2024-02-16_17h39.09.530,VH_new_version2,2023.2.3,Win32,60.24096386,106.3703,107.3707,,,,,,,,,,,,,,,,,,,,,,,,,,107.3708,108.0376,z,1,0.6475,,108.0376,108.0376,,0,17,17,179,1,180,şünle,,,,,5,harmonic,1.75,,z,nw,,,,,,,
,,,,,,,,,,,321468,,001,2024-02-16_17h39.09.530,VH_new_version2,2023.2.3,Win32,60.24096386,108.0379,109.0376,,,,,,,,,,,,,,,,,,,,,,,,,,109.0376,109.6375,m,1,0.5811,,109.6377,109.6377,,0,18,18,22,1,23,özel,9726,441.9109,8559,0.9357,4,harmonic,1.35,5.645334714,m,w,,,,,,,
,,,,,,,,,,,321468,,001,2024-02-16_17h39.09.530,VH_new_version2,2023.2.3,Win32,60.24096386,109.6381,110.6379,,,,,,,,,,,,,,,,,,,,,,,,,,110.638,111.2045,z,1,0.5576,,111.2045,111.2046,,0,19,19,155,1,156,megi,,,,,4,harmonic,1.8,,z,nw,,,,,,,
,,,,,,,,,,,321468,,001,2024-02-16_17h39.09.530,VH_new_version2,2023.2.3,Win32,60.24096386,111.2049,112.2049,,,,,,,,,,,,,,,,,,,,,,,,,,112.2049,112.855,m,1,0.6313,,112.855,112.8552,,0,20,20,124,1,125,sultan,1756,79.7857,1368,0.1496,6,harmonic,1.55,4.90192506,m,w,,,,,,,
,,,,,,,,,,,321468,,001,2024-02-16_17h39.09.530,VH_new_version2,2023.2.3,Win32,60.24096386,112.8554,113.8552,,,,,,,,,,,,,,,,,,,,,,,,,,113.8552,114.6218,z,1,0.7569,,114.6218,114.6219,,0,21,21,182,1,183,tesil,,,,,5,harmonic,1.45,,z,nw,,,,,,,
,,,,,,,,,,,321468,,001,2024-02-16_17h39.09.530,VH_new_version2,2023.2.3,Win32,60.24096386,114.6221,115.6219,,,,,,,,,,,,,,,,,,,,,,,,,,115.6219,116.1546,m,1,0.5248,,116.1546,116.1547,,0,22,22,93,1,94,olay,3415,155.1641,3179,0.3475,4,harmonic,1.5,5.190791247,m,w,,,,,,,
,,,,,,,,,,,321468,,001,2024-02-16_17h39.09.530,VH_new_version2,2023.2.3,Win32,60.24096386,116.1548,117.1549,,,,,,,,,,,,,,,,,,,,,,,,,,117.155,117.7724,m,1,0.5988,,117.7725,117.7725,,0,23,23,60,1,61,nefret,2429,110.3641,2115,0.2312,6,harmonic,1.8,5.042827826,m,w,,,,,,,
,,,,,,,,,,,321468,,001,2024-02-16_17h39.09.530,VH_new_version2,2023.2.3,Win32,60.24096386,117.7728,118.7724,,,,,,,,,,,,,,,,,,,,,,,,,,118.7724,119.506,z,1,0.7133,,119.506,119.5061,,0,24,24,176,1,177,çırna,,,,,5,harmonic,1.85,,z,nw,,,,,,,
,,,,,,,,,,,321468,,001,2024-02-16_17h39.09.530,VH_new_version2,2023.2.3,Win32,60.24096386,119.5063,120.506,,,,,,,,,,,,,,,,,,,,,,,,,,120.506,121.0559,m,1,0.5324,,121.0561,121.0561,,0,25,25,90,1,91,insan,3684,167.3864,3486,0.3811,5,harmonic,1.55,5.223720169,m,w,,,,,,,
,,,,,,,,,,,321468,,001,2024-02-16_17h39.09.530,VH_new_version2,2023.2.3,Win32,60.24096386,121.0564,122.0556,,,,,,,,,,,,,,,,,,,,,,,,,,122.0556,122.5896,m,1,0.522,,122.5896,122.5896,,0,26,26,52,1,53,buğday,746,33.8953,623,0.0681,6,harmonic,1.9,4.530139482,m,w,,,,,,,
,,,,,,,,,,,321468,,001,2024-02-16_17h39.09.530,VH_new_version2,2023.2.3,Win32,60.24096386,122.5899,123.59,,,,,,,,,,,,,,,,,,,,,,,,,,123.59,124.0902,m,1,0.4849,,124.0902,124.0903,,0,27,27,128,1,129,merkez,1445,65.6551,1255,0.1372,6,harmonic,1.8,4.817268467,m,w,,,,,,,
,,,,,,,,,,,321468,,001,2024-02-16_17h39.09.530,VH_new_version2,2023.2.3,Win32,60.24096386,124.0907,125.0905,,,,,,,,,,,,,,,,,,,,,,,,,,125.0905,125.8904,m,1,0.7844,,125.8904,125.8904,,0,28,28,80,1,81,ahlak,641,29.1245,543,0.0594,5,harmonic,1.35,4.464258478,m,w,,,,,,,
,,,,,,,,,,,321468,,001,2024-02-16_17h39.09.530,VH_new_version2,2023.2.3,Win32,60.24096386,125.8907,126.8906,,,,,,,,,,,,,,,,,,,,,,,,,,126.8906,127.624,m,1,0.715,,127.624,127.624,,0,29,29,67,1,68,sosyal,5290,240.3566,4372,0.4779,6,harmonic,1.85,5.380856052,m,w,,,,,,,
,,,,,,,,,,,321468,,001,2024-02-16_17h39.09.530,VH_new_version2,2023.2.3,Win32,60.24096386,127.6244,128.6239,,,,,,,,,,,,,,,,,,,,,,,,,,128.624,129.2742,z,1,0.6388,,129.2743,129.2743,,0,30,30,158,1,159,uzot,,,,,4,harmonic,1.9,,z,nw,,,,,,,
,,,,,,,,,,,321468,,001,2024-02-16_17h39.09.530,VH_new_version2,2023.2.3,Win32,60.24096386,129.2746,130.2736,,,,,,,,,,,,,,,,,,,,,,,,,,130.2736,131.0244,z,1,0.738,,131.0245,131.0245,,0,31,31,247,1,248,fiyan,,,,,5,notharmonic,1.6,,z,nw,,,,,,,
,,,,,,,,,,,321468,,001,2024-02-16_17h39.09.530,VH_new_version2,2023.2.3,Win32,60.24096386,131.0248,132.0247,,,,,,,,,,,,,,,,,,,,,,,,,,132.0248,132.8415,z,1,0.8034,,132.8415,132.8416,,0,32,32,143,1,144,uçek,,,,,4,harmonic,1.85,,z,nw,,,,,,,
,,,,,,,,,,,321468,,001,2024-02-16_17h39.09.530,VH_new_version2,2023.2.3,Win32,60.24096386,132.8419,133.8418,,,,,,,,,,,,,,,,,,,,,,,,,,133.8418,134.5916,z,1,0.7406,,134.5916,134.5917,,0,33,33,245,1,246,gaset,,,,,5,notharmonic,1.85,,z,nw,,,,,,,
,,,,,,,,,,,321468,,001,2024-02-16_17h39.09.530,VH_new_version2,2023.2.3,Win32,60.24096386,134.592,135.5911,,,,,,,,,,,,,,,,,,,,,,,,,,135.5911,136.4421,z,1,0.8387,,136.4421,136.4422,,0,34,34,263,1,264,magina,,,,,6,notharmonic,1.9,,z,nw,,,,,,,
,,,,,,,,,,,321468,,001,2024-02-16_17h39.09.530,VH_new_version2,2023.2.3,Win32,60.24096386,136.4425,137.4422,,,,,,,,,,,,,,,,,,,,,,,,,,137.4422,138.2088,m,1,0.757,,138.2088,138.209,,0,35,35,50,1,51,kurşun,604,27.4434,551,0.0602,6,harmonic,1.55,4.438437916,m,w,,,,,,,
,,,,,,,,,,,321468,,001,2024-02-16_17h39.09.530,VH_new_version2,2023.2.3,Win32,60.24096386,138.2092,139.209,,,,,,,,,,,,,,,,,,,,,,,,,,139.2091,139.9419,z,1,0.7167,,139.9419,139.9421,,0,36,36,219,1,220,anel,,,,,4,notharmonic,1.7,,z,nw,,,,,,,
,,,,,,,,,,,321468,,001,2024-02-16_17h39.09.530,VH_new_version2,2023.2.3,Win32,60.24096386,139.9424,140.9425,,,,,,,,,,,,,,,,,,,,,,,,,,140.9425,141.493,m,1,0.5316,,141.493,141.4931,,0,37,37,5,1,6,üzüm,716,32.5322,588,0.0643,4,harmonic,1.45,4.512313434,m,w,,,,,,,
,,,,,,,,,,,321468,,001,2024-02-16_17h39.09.530,VH_new_version2,2023.2.3,Win32,60.24096386,141.4933,142.493,,,,,,,,,,,,,,,,,,,,,,,,,,142.493,143.2091,z,1,0.6986,,143.2091,143.2092,,0,38,38,168,1,169,bovon,,,,,5,harmonic,2,,z,nw,,,,,,,
,,,,,,,,,,,321468,,001,2024-02-16_17h39.09.530,VH_new_version2,2023.2.3,Win32,60.24096386,143.2095,144.2097,,,,,,,,,,,,,,,,,,,,,,,,,,144.2097,144.8433,z,1,0.6148,,144.8434,144.8434,,0,39,39,186,1,187,erbik,,,,,5,harmonic,1.75,,z,nw,,,,,,,
,,,,,,,,,,,321468,,001,2024-02-16_17h39.09.530,VH_new_version2,2023.2.3,Win32,60.24096386,144.8437,145.8436,,,,,,,,,,,,,,,,,,,,,,,,,,145.8436,146.4435,m,1,0.5806,,146.4436,146.4436,,0,40,40,69,1,70,yüksek,7909,359.3536,7119,0.7783,6,harmonic,1.7,5.555522,m,w,,,,,,,
,,,,,,,,,,,321468,,001,2024-02-16_17h39.09.530,VH_new_version2,2023.2.3,Win32,60.24096386,146.4439,147.4438,,,,,,,,,,,,,,,,,,,,,,,,,,147.4439,148.0939,m,1,0.6323,,148.094,148.0941,,0,41,41,74,1,75,çatı,469,21.3095,379,0.0414,4,harmonic,1,4.32857326,m,w,,,,,,,
,,,,,,,,,,,321468,,001,2024-02-16_17h39.09.530,VH_new_version2,2023.2.3,Win32,60.24096386,148.0943,149.0942,,,,,,,,,,,,,,,,,,,,,,,,,,149.0942,149.5938,m,1,0.4873,,149.5938,149.5938,,0,42,42,57,1,58,bayram,1948,88.5094,1648,0.1802,6,harmonic,1.85,4.946989397,m,w,,,,,,,
,,,,,,,,,,,321468,,001,2024-02-16_17h39.09.530,VH_new_version2,2023.2.3,Win32,60.24096386,149.594,150.5941,,,,,,,,,,,,,,,,,,,,,,,,,,150.5941,151.2769,z,1,0.6749,,151.2769,151.2769,,0,43,43,246,1,247,masil,,,,,5,notharmonic,1.7,,z,nw,,,,,,,
,,,,,,,,,,,321468,,001,2024-02-16_17h39.09.530,VH_new_version2,2023.2.3,Win32,60.24096386,151.2771,152.2777,,,,,,,,,,,,,,,,,,,,,,,,,,152.2777,152.8613,m,1,0.5649,,152.8613,152.8614,,0,44,44,16,1,17,umut,1988,90.3268,1818,0.1987,4,harmonic,1.55,4.955816625,m,w,,,,,,,
,,,,,,,,,,,321468,,001,2024-02-16_17h39.09.530,VH_new_version2,2023.2.3,Win32,60.24096386,152.8617,153.861,,,,,,,,,,,,,,,,,,,,,,,,,,153.861,154.4441,m,1,0.5745,,154.4441,154.4441,,0,45,45,134,1,135,araç,1182,53.7054,1050,0.1148,4,harmonic,1.25,4.730017956,m,w,,,,,,,
,,,,,,,,,,,321468,,001,2024-02-16_17h39.09.530,VH_new_version2,2023.2.3,Win32,60.24096386,154.4443,155.4447,,,,,,,,,,,,,,,,,,,,,,,,,,155.4447,156.1284,z,1,0.6687,,156.1284,156.1284,,0,46,46,153,1,154,uyko,,,,,4,harmonic,1.95,,z,nw,,,,,,,
,,,,,,,,,,,321468,,001,2024-02-16_17h39.09.530,VH_new_version2,2023.2.3,Win32,60.24096386,156.1288,157.1286,,,,,,,,,,,,,,,,,,,,,,,,,,157.1286,157.7113,m,1,0.5761,,157.7113,157.7114,,0,47,47,75,1,76,dergi,657,29.8515,592,0.0647,5,harmonic,1.3,4.474966159,m,w,,,,,,,
,,,,,,,,,,,321468,,001,2024-02-16_17h39.09.530,VH_new_version2,2023.2.3,Win32,60.24096386,157.7115,158.712,,,,,,,,,,,,,,,,,,,,,,,,,,158.712,159.4951,z,1,0.7752,,159.4951,159.4951,,0,48,48,278,1,279,avalün,,,,,6,notharmonic,2.2,,z,nw,,,,,,,
,,,,,,,,,,,321468,,001,2024-02-16_17h39.09.530,VH_new_version2,2023.2.3,Win32,60.24096386,159.4953,160.495,,,,,,,,,,,,,,,,,,,,,,,,,,160.4951,161.1622,m,1,0.6523,,161.1622,161.1623,,0,49,49,92,1,93,yarın,3440,156.3,3222,0.3522,5,harmonic,1,5.193958978,m,w,,,,,,,
,,,,,,,,,,,321468,,001,2024-02-16_17h39.09.530,VH_new_version2,2023.2.3,Win32,60.24096386,161.1625,162.1627,,,,,,,,,,,,,,,,,,,,,,,,,,162.1628,163.2124,z,1,1.0406,,163.2124,163.2124,,0,50,50,192,1,193,kumgun,,,,,6,harmonic,1.85,,z,nw,,,,,,,
,,,,,,,,,,,321468,,001,2024-02-16_17h39.09.530,VH_new_version2,2023.2.3,Win32,60.24096386,163.2127,164.2122,,,,,,,,,,,,,,,,,,,,,,,,,,164.2122,164.8626,z,1,0.6313,,164.8626,164.8626,,0,51,51,270,1,271,meşkup,,,,,6,notharmonic,1.95,,z,nw,,,,,,,
,,,,,,,,,,,321468,,001,2024-02-16_17h39.09.530,VH_new_version2,2023.2.3,Win32,60.24096386,164.8628,165.8632,,,,,,,,,,,,,,,,,,,,,,,,,,165.8632,166.5626,m,1,0.6813,,166.5626,166.5627,,0,52,52,6,1,7,avuç,729,33.1229,659,0.072,4,harmonic,1.85,4.520128353,m,w,,,,,,,
,,,,,,,,,,,321468,,001,2024-02-16_17h39.09.530,VH_new_version2,2023.2.3,Win32,60.24096386,166.563,167.5636,,,,,,,,,,,,,,,,,,,,,,,,,,167.5636,168.2137,z,1,0.6305,,168.2137,168.2138,,0,53,53,234,1,235,ated,,,,,4,notharmonic,1.8,,z,nw,,,,,,,
,,,,,,,,,,,321468,,001,2024-02-16_17h39.09.530,VH_new_version2,2023.2.3,Win32,60.24096386,168.2141,169.2135,,,,,,,,,,,,,,,,,,,,,,,,,,169.2135,170.0798,z,1,0.8587,,170.0798,170.0799,,0,54,54,204,1,205,kürfür,,,,,6,harmonic,1.95,,z,nw,,,,,,,
,,,,,,,,,,,321468,,001,2024-02-16_17h39.09.530,VH_new_version2,2023.2.3,Win32,60.24096386,170.08,171.0808,,,,,,,,,,,,,,,,,,,,,,,,,,171.0808,171.6809,m,1,0.5843,,171.6809,171.6809,,0,55,55,97,1,98,nefes,2871,130.4469,2553,0.2791,5,harmonic,1.8,5.115433763,m,w,,,,,,,
,,,,,,,,,,,321468,,001,2024-02-16_17h39.09.530,VH_new_version2,2023.2.3,Win32,60.24096386,171.6812,172.6811,,,,,,,,,,,,,,,,,,,,,,,,,,172.6811,173.197,m,1,0.5035,,173.197,173.1971,,0,56,56,137,1,138,mutfak,1110,50.434,1032,0.1128,6,harmonic,1.95,4.702723414,m,w,,,,,,,
,,,,,,,,,,,321468,,001,2024-02-16_17h39.09.530,VH_new_version2,2023.2.3,Win32,60.24096386,173.1973,174.1977,,,,,,,,,,,,,,,,,,,,,,,,,,174.1978,174.8481,z,1,0.638,,174.8481,174.8481,,0,57,57,216,1,217,same,,,,,4,notharmonic,1.6,,z,nw,,,,,,,
,,,,,,,,,,,321468,,001,2024-02-16_17h39.09.530,VH_new_version2,2023.2.3,Win32,60.24096386,174.8484,175.8481,,,,,,,,,,,,,,,,,,,,,,,,,,175.8482,176.8642,m,1,1.0049,,176.8642,176.8644,,0,58,58,89,1,90,sonuç,3768,171.203,3626,0.3964,5,harmonic,1.8,5.233511371,m,w,,,,,,,
,,,,,,,,,,,321468,,001,2024-02-16_17h39.09.530,VH_new_version2,2023.2.3,Win32,60.24096386,176.8647,177.8648,,,,,,,,,,,,,,,,,,,,,,,,,,177.8648,178.4318,z,1,0.5513,,178.4318,178.4319,,0,59,59,196,1,197,etçime,,,,,6,harmonic,1.9,,z,nw,,,,,,,
,,,,,,,,,,,321468,,001,2024-02-16_17h39.09.530,VH_new_version2,2023.2.3,Win32,60.24096386,178.4323,179.432,,,,,,,,,,,,,,,,,,,,,,,,,,179.4321,180.1487,z,1,0.699,,180.1488,180.1488,,0,60,60,262,1,263,barali,,,,,6,notharmonic,1.95,,z,nw,,,,,,,
,,,,,,,,,,,321468,,001,2024-02-16_17h39.09.530,VH_new_version2,2023.2.3,Win32,60.24096386,180.1491,181.1489,,,,,,,,,,,,,,,,,,,,,,,,,,181.1489,181.6822,m,1,0.5132,,181.6822,181.6823,,0,61,61,32,1,33,güney,1639,74.4697,1439,0.1573,5,harmonic,1.65,4.871979604,m,w,,,,,,,
,,,,,,,,,,,321468,,001,2024-02-16_17h39.09.530,VH_new_version2,2023.2.3,Win32,60.24096386,181.6826,182.6826,,,,,,,,,,,,,,,,,,,,,,,,,,182.6826,183.3156,m,1,0.6153,,183.3157,183.3158,,0,62,62,59,1,60,zengin,2193,99.6412,2015,0.2203,6,harmonic,1.65,4.998438949,m,w,,,,,,,
,,,,,,,,,,,321468,,001,2024-02-16_17h39.09.530,VH_new_version2,2023.2.3,Win32,60.24096386,183.3162,184.3159,,,,,,,,,,,,,,,,,,,,,,,,,,184.3159,184.7993,m,1,0.4722,,184.7993,184.7993,,0,63,63,12,1,13,ağaç,1245,56.5679,1082,0.1183,4,harmonic,1.6,4.752570056,m,w,,,,,,,
,,,,,,,,,,,321468,,001,2024-02-16_17h39.09.530,VH_new_version2,2023.2.3,Win32,60.24096386,184.7995,185.7997,,,,,,,,,,,,,,,,,,,,,,,,,,185.7997,186.5657,m,1,0.7489,,186.5657,186.5658,,0,64,64,62,1,63,kültür,2566,116.5889,2206,0.2412,6,harmonic,1.55,5.066657205,m,w,,,,,,,
,,,,,,,,,,,321468,,001,2024-02-16_17h39.09.530,VH_new_version2,2023.2.3,Win32,60.24096386,186.566,187.5659,,,,,,,,,,,,,,,,,,,,,,,,,,187.566,188.2502,m,1,0.6711,,188.2502,188.2503,,0,65,65,9,1,10,uçak,894,40.6198,752,0.0822,4,harmonic,1.4,4.608737781,m,w,,,,,,,
,,,,,,,,,,,321468,,001,2024-02-16_17h39.09.530,VH_new_version2,2023.2.3,Win32,60.24096386,188.2505,189.2503,,,,,,,,,,,,,,,,,,,,,,,,,,189.2503,190.0166,z,1,0.7507,,190.0167,190.0168,,0,66,66,163,1,164,küvü,,,,,4,harmonic,1.7,,z,nw,,,,,,,
,,,,,,,,,,,321468,,001,2024-02-16_17h39.09.530,VH_new_version2,2023.2.3,Win32,60.24096386,190.017,191.017,,,,,,,,,,,,,,,,,,,,,,,,,,191.0171,192.2833,m,1,1.2526,,192.2833,192.2833,,0,67,67,31,1,32,pembe,1549,70.3804,1327,0.1451,5,harmonic,2,4.847451731,m,w,,,,,,,
,,,,,,,,,,,321468,,001,2024-02-16_17h39.09.530,VH_new_version2,2023.2.3,Win32,60.24096386,192.2837,193.2842,,,,,,,,,,,,,,,,,,,,,,,,,,193.2842,194.1009,m,1,0.8048,,194.101,194.101,,0,68,68,66,1,67,tercih,4577,207.9607,4282,0.4681,6,harmonic,1.7,5.317981271,m,w,,,,,,,
,,,,,,,,,,,321468,,001,2024-02-16_17h39.09.530,VH_new_version2,2023.2.3,Win32,60.24096386,194.1013,195.101,,,,,,,,,,,,,,,,,,,,,,,,,,195.1011,195.6012,m,1,0.4815,,195.6013,195.6013,,0,69,69,71,1,72,boya,918,41.7103,799,0.0873,4,harmonic,1,4.620243314,m,w,,,,,,,
,,,,,,,,,,,321468,,001,2024-02-16_17h39.09.530,VH_new_version2,2023.2.3,Win32,60.24096386,195.6016,196.6006,,,,,,,,,,,,,,,,,,,,,,,,,,196.6006,197.2681,z,1,0.6545,,197.2682,199.0017,space,0,70,70,195,1,196,çoflak,,,,,6,harmonic,2,,z,nw,1.7175,,,,,,
,,,,,,,,,,,321468,,001,2024-02-16_17h39.09.530,VH_new_version2,2023.2.3,Win32,60.24096386,199.0083,200.002,,,,,,,,,,,,,,,,,,,,,,,,,,200.002,200.5187,m,1,0.4973,,200.5188,200.5189,,0,71,71,101,1,102,okul,2685,121.9958,2381,0.2603,4,harmonic,1.35,5.086344879,m,w,,,,,,,
,,,,,,,,,,,321468,,001,2024-02-16_17h39.09.530,VH_new_version2,2023.2.3,Win32,60.24096386,200.5192,201.5188,,,,,,,,,,,,,,,,,,,,,,,,,,201.5188,202.0684,m,1,0.5386,,202.0684,202.0684,,0,72,72,98,1,99,bilim,2828,128.4931,2382,0.2604,5,harmonic,1,5.108879807,m,w,,,,,,,
,,,,,,,,,,,321468,,001,2024-02-16_17h39.09.530,VH_new_version2,2023.2.3,Win32,60.24096386,202.0687,203.069,,,,,,,,,,,,,,,,,,,,,,,,,,203.069,203.6525,z,1,0.5673,,203.6526,203.6527,,0,73,73,147,1,148,üyöm,,,,,4,harmonic,1.95,,z,nw,,,,,,,
,,,,,,,,,,,321468,,001,2024-02-16_17h39.09.530,VH_new_version2,2023.2.3,Win32,60.24096386,203.653,204.6527,,,,,,,,,,,,,,,,,,,,,,,,,,204.6528,205.2358,z,1,0.5744,,205.2358,205.2358,,0,74,74,252,1,253,canit,,,,,5,notharmonic,1.8,,z,nw,,,,,,,
,,,,,,,,,,,321468,,001,2024-02-16_17h39.09.530,VH_new_version2,2023.2.3,Win32,60.24096386,205.2361,206.2362,,,,,,,,,,,,,,,,,,,,,,,,,,206.2362,206.8198,z,1,0.5667,,206.8198,206.8198,,0,75,75,244,1,245,kimık,,,,,5,notharmonic,2,,z,nw,,,,,,,
,,,,,,,,,,,321468,,001,2024-02-16_17h39.09.530,VH_new_version2,2023.2.3,Win32,60.24096386,206.8202,207.8195,,,,,,,,,,,,,,,,,,,,,,,,,,207.8195,208.3199,m,1,0.4832,,208.3199,208.3199,,0,76,76,119,1,120,cuma,1941,88.1913,1774,0.1939,4,harmonic,1.3,4.945425744,m,w,,,,,,,
,,,,,,,,,,,321468,,001,2024-02-16_17h39.09.530,VH_new_version2,2023.2.3,Win32,60.24096386,208.3202,209.3194,,,,,,,,,,,,,,,,,,,,,,,,,,209.3194,209.8864,z,1,0.5476,,209.8865,209.8865,,0,77,77,243,1,244,kuyef,,,,,5,notharmonic,2.3,,z,nw,,,,,,,
,,,,,,,,,,,321468,,001,2024-02-16_17h39.09.530,VH_new_version2,2023.2.3,Win32,60.24096386,209.8868,210.8866,,,,,,,,,,,,,,,,,,,,,,,,,,210.8867,211.4203,m,1,0.5236,,211.4203,211.4203,,0,78,78,140,1,141,kimlik,867,39.393,726,0.0794,6,harmonic,1.7,4.595419056,m,w,,,,,,,
,,,,,,,,,,,321468,,001,2024-02-16_17h39.09.530,VH_new_version2,2023.2.3,Win32,60.24096386,211.4206,212.421,,,,,,,,,,,,,,,,,,,,,,,,,,212.421,212.9371,m,1,0.4965,,212.9371,212.9371,,0,79,79,91,1,92,yeşil,3445,156.5271,2946,0.3221,5,harmonic,1.8,5.194589539,m,w,,,,,,,
,,,,,,,,,,,321468,,001,2024-02-16_17h39.09.530,VH_new_version2,2023.2.3,Win32,60.24096386,212.9374,213.9371,,,,,,,,,,,,,,,,,,,,,,,,,,213.9371,214.4701,z,1,0.5206,,214.4701,214.4702,,0,80,80,225,1,226,elda,,,,,4,notharmonic,1.6,,z,nw,,,,,,,
,,,,,,,,,,,321468,,001,2024-02-16_17h39.09.530,VH_new_version2,2023.2.3,Win32,60.24096386,214.4703,215.471,,,,,,,,,,,,,,,,,,,,,,,,,,215.4711,215.9876,m,1,0.497,,215.9876,215.9876,,0,81,81,94,1,95,bebek,3301,149.9843,2794,0.3054,5,harmonic,1.6,5.176045801,m,w,,,,,,,
,,,,,,,,,,,321468,,001,2024-02-16_17h39.09.530,VH_new_version2,2023.2.3,Win32,60.24096386,215.9878,216.9875,,,,,,,,,,,,,,,,,,,,,,,,,,216.9875,217.5045,m,1,0.5074,,217.5045,217.5045,,0,82,82,100,1,101,ekmek,2734,124.2221,2318,0.2534,5,harmonic,1.3,5.094198867,m,w,,,,,,,
,,,,,,,,,,,321468,,001,2024-02-16_17h39.09.530,VH_new_version2,2023.2.3,Win32,60.24096386,217.5048,218.5047,,,,,,,,,,,,,,,,,,,,,,,,,,218.5047,218.988,m,1,0.4729,,218.9881,218.9882,,0,83,83,63,1,64,hizmet,3023,137.3531,2689,0.294,6,harmonic,1.75,5.137838466,m,w,,,,,,,
,,,,,,,,,,,321468,,001,2024-02-16_17h39.09.530,VH_new_version2,2023.2.3,Win32,60.24096386,218.9884,219.9882,,,,,,,,,,,,,,,,,,,,,,,,,,219.9882,220.6044,z,1,0.5998,,220.6044,220.6045,,0,84,84,235,1,236,mate,,,,,4,notharmonic,1.65,,z,nw,,,,,,,
,,,,,,,,,,,321468,,001,2024-02-16_17h39.09.530,VH_new_version2,2023.2.3,Win32,60.24096386,220.6048,221.6053,,,,,,,,,,,,,,,,,,,,,,,,,,221.6053,222.0888,m,1,0.4703,,222.0888,222.0889,,0,85,85,83,1,84,şafak,616,27.9886,521,0.057,5,harmonic,1.8,4.446981175,m,w,,,,,,,
,,,,,,,,,,,321468,,001,2024-02-16_17h39.09.530,VH_new_version2,2023.2.3,Win32,60.24096386,222.0891,223.0888,,,,,,,,,,,,,,,,,,,,,,,,,,223.0888,223.6049,m,1,0.5072,,223.605,223.6051,,0,86,86,65,1,66,destek,3328,151.2111,3065,0.3351,6,harmonic,1.85,5.179583673,m,w,,,,,,,
,,,,,,,,,,,321468,,001,2024-02-16_17h39.09.530,VH_new_version2,2023.2.3,Win32,60.24096386,223.6053,224.6053,,,,,,,,,,,,,,,,,,,,,,,,,,224.6054,225.1391,m,1,0.5189,,225.1391,225.1391,,0,87,87,30,1,31,pamuk,937,42.5736,826,0.0903,5,harmonic,1.9,4.629140375,m,w,,,,,,,
,,,,,,,,,,,321468,,001,2024-02-16_17h39.09.530,VH_new_version2,2023.2.3,Win32,60.24096386,225.1395,226.1393,,,,,,,,,,,,,,,,,,,,,,,,,,226.1393,226.6558,m,1,0.5025,,226.6558,226.6558,,0,88,88,41,1,42,hayal,4498,204.3713,4079,0.4459,5,harmonic,1.45,5.310419907,m,w,,,,,,,
,,,,,,,,,,,321468,,001,2024-02-16_17h39.09.530,VH_new_version2,2023.2.3,Win32,60.24096386,226.6562,227.6562,,,,,,,,,,,,,,,,,,,,,,,,,,227.6562,228.2229,z,1,0.5514,,228.2229,228.223,,0,89,89,154,1,155,afap,,,,,4,harmonic,1.7,,z,nw,,,,,,,
,,,,,,,,,,,321468,,001,2024-02-16_17h39.09.530,VH_new_version2,2023.2.3,Win32,60.24096386,228.2233,229.2232,,,,,,,,,,,,,,,,,,,,,,,,,,229.2232,229.7725,z,1,0.5319,,229.7726,229.7726,,0,90,90,167,1,168,ontan,,,,,5,harmonic,1.6,,z,nw,,,,,,,
,,,,,,,,,,,321468,,001,2024-02-16_17h39.09.530,VH_new_version2,2023.2.3,Win32,60.24096386,229.7728,230.7731,,,,,,,,,,,,,,,,,,,,,,,,,,230.7731,231.3394,z,1,0.5541,,231.3394,231.3394,,0,91,91,221,1,222,mane,,,,,4,notharmonic,1.4,,z,nw,,,,,,,
,,,,,,,,,,,321468,,001,2024-02-16_17h39.09.530,VH_new_version2,2023.2.3,Win32,60.24096386,231.3395,232.3403,,,,,,,,,,,,,,,,,,,,,,,,,,232.3404,232.8229,m,1,0.4745,,232.8229,232.823,,0,92,92,99,1,100,altı,2782,126.403,2571,0.2811,4,harmonic,1,5.101757381,m,w,,,,,,,
,,,,,,,,,,,321468,,001,2024-02-16_17h39.09.530,VH_new_version2,2023.2.3,Win32,60.24096386,232.8232,233.8239,,,,,,,,,,,,,,,,,,,,,,,,,,233.8239,234.3407,m,1,0.4999,,234.3407,234.3409,,0,93,93,20,1,21,süre,8679,394.3393,8119,0.8876,4,harmonic,1,5.595870061,m,w,,,,,,,
,,,,,,,,,,,321468,,001,2024-02-16_17h39.09.530,VH_new_version2,2023.2.3,Win32,60.24096386,234.341,235.3407,,,,,,,,,,,,,,,,,,,,,,,,,,235.3408,235.8242,m,1,0.472,,235.8242,235.8243,,0,94,94,139,1,140,teklif,913,41.4831,848,0.0927,6,harmonic,1.7,4.617871203,m,w,,,,,,,
,,,,,,,,,,,321468,,001,2024-02-16_17h39.09.530,VH_new_version2,2023.2.3,Win32,60.24096386,235.8246,236.8236,,,,,,,,,,,,,,,,,,,,,,,,,,236.8236,237.3242,m,1,0.4808,,237.3242,237.3243,,0,95,95,115,1,116,doğu,2105,95.6429,1823,0.1993,4,harmonic,1.05,4.980652736,m,w,,,,,,,
,,,,,,,,,,,321468,,001,2024-02-16_17h39.09.530,VH_new_version2,2023.2.3,Win32,60.24096386,237.3246,238.3245,,,,,,,,,,,,,,,,,,,,,,,,,,238.3246,238.924,z,1,0.5909,,238.924,238.9241,,0,96,96,218,1,219,ecmu,,,,,4,notharmonic,2,,z,nw,,,,,,,
,,,,,,,,,,,321468,,001,2024-02-16_17h39.09.530,VH_new_version2,2023.2.3,Win32,60.24096386,238.9243,239.9248,,,,,,,,,,,,,,,,,,,,,,,,,,239.9248,240.4915,m,1,0.5479,,240.4915,240.4916,,0,97,97,138,1,139,ödül,1063,48.2985,926,0.1012,4,harmonic,1.7,4.683933643,m,w,,,,,,,
,,,,,,,,,,,321468,,001,2024-02-16_17h39.09.530,VH_new_version2,2023.2.3,Win32,60.24096386,240.492,241.4915,,,,,,,,,,,,,,,,,,,,,,,,,,241.4915,241.9747,m,1,0.4729,,241.9747,241.9747,,0,98,98,76,1,77,koltuk,559,25.3987,476,0.052,6,harmonic,1.75,4.404811488,m,w,,,,,,,
,,,,,,,,,,,321468,,001,2024-02-16_17h39.09.530,VH_new_version2,2023.2.3,Win32,60.24096386,241.975,242.9752,,,,,,,,,,,,,,,,,,,,,,,,,,242.9752,243.4579,m,1,0.4746,,243.4579,243.4579,,0,99,99,84,1,85,eğitim,4784,217.366,3846,0.4204,6,harmonic,1.5,5.337191613,m,w,,,,,,,
,,,,,,,,,,,321468,,001,2024-02-16_17h39.09.530,VH_new_version2,2023.2.3,Win32,60.24096386,243.4582,244.4581,,,,,,,,,,,,,,,,,,,,,,,,,,244.4581,245.075,z,1,0.6043,,245.075,245.0751,,0,100,100,271,1,272,yakele,,,,,6,notharmonic,2,,z,nw,,,,,,,
,,,,,,,,,,,321468,,001,2024-02-16_17h39.09.530,VH_new_version2,2023.2.3,Win32,60.24096386,245.0754,246.0751,,,,,,,,,,,,,,,,,,,,,,,,,,246.0751,246.5922,m,1,0.502,,246.5922,246.5923,,0,101,101,120,1,121,yedi,1880,85.4197,1729,0.189,4,harmonic,1,4.931558042,m,w,,,,,,,
,,,,,,,,,,,321468,,001,2024-02-16_17h39.09.530,VH_new_version2,2023.2.3,Win32,60.24096386,246.5927,247.5927,,,,,,,,,,,,,,,,,,,,,,,,,,247.5927,248.1425,z,1,0.532,,248.1426,248.1427,,0,102,102,261,1,262,eksan,,,,,5,notharmonic,1.7,,z,nw,,,,,,,
,,,,,,,,,,,321468,,001,2024-02-16_17h39.09.530,VH_new_version2,2023.2.3,Win32,60.24096386,248.143,249.1426,,,,,,,,,,,,,,,,,,,,,,,,,,249.1426,249.5755,m,1,0.4146,,249.5756,249.5756,,0,103,103,18,1,19,ülke,3121,141.8059,2801,0.3062,4,harmonic,1.65,5.151694301,m,w,,,,,,,
,,,,,,,,,,,321468,,001,2024-02-16_17h39.09.530,VH_new_version2,2023.2.3,Win32,60.24096386,249.5758,250.5756,,,,,,,,,,,,,,,,,,,,,,,,,,250.5756,251.1258,z,1,0.5435,,251.1258,251.1258,,0,104,104,208,1,209,terbiy,,,,,6,harmonic,1.9,,z,nw,,,,,,,
,,,,,,,,,,,321468,,001,2024-02-16_17h39.09.530,VH_new_version2,2023.2.3,Win32,60.24096386,251.126,252.1264,,,,,,,,,,,,,,,,,,,,,,,,,,252.1265,252.7435,z,1,0.5982,,252.7435,252.7436,,0,105,105,277,1,278,şeylam,,,,,6,notharmonic,2,,z,nw,,,,,,,
,,,,,,,,,,,321468,,001,2024-02-16_17h39.09.530,VH_new_version2,2023.2.3,Win32,60.24096386,252.7439,253.7437,,,,,,,,,,,,,,,,,,,,,,,,,,253.7437,254.2769,m,1,0.516,,254.2769,254.2769,,0,106,106,136,1,137,tebrik,1117,50.7521,1102,0.1205,6,harmonic,1.85,4.705454017,m,w,,,,,,,
,,,,,,,,,,,321468,,001,2024-02-16_17h39.09.530,VH_new_version2,2023.2.3,Win32,60.24096386,254.2773,255.277,,,,,,,,,,,,,,,,,,,,,,,,,,255.277,255.793,z,1,0.509,,255.7931,255.7931,,0,107,107,156,1,157,obık,,,,,4,harmonic,1.95,,z,nw,,,,,,,
,,,,,,,,,,,321468,,001,2024-02-16_17h39.09.530,VH_new_version2,2023.2.3,Win32,60.24096386,255.7934,256.794,,,,,,,,,,,,,,,,,,,,,,,,,,256.794,257.3101,m,1,0.5056,,257.3102,257.3102,,0,108,108,61,1,62,yağmur,2491,113.1812,2156,0.2357,6,harmonic,1.9,5.053774294,m,w,,,,,,,
,,,,,,,,,,,321468,,001,2024-02-16_17h39.09.530,VH_new_version2,2023.2.3,Win32,60.24096386,257.3106,258.3103,,,,,,,,,,,,,,,,,,,,,,,,,,258.3103,259.0603,z,1,0.735,,259.0603,259.0604,,0,109,109,214,1,215,dera,,,,,4,notharmonic,1.2,,z,nw,,,,,,,
,,,,,,,,,,,321468,,001,2024-02-16_17h39.09.530,VH_new_version2,2023.2.3,Win32,60.24096386,259.0606,260.0605,,,,,,,,,,,,,,,,,,,,,,,,,,260.0605,260.6107,z,1,0.5316,,260.6108,260.6109,,0,110,110,241,1,242,akter,,,,,5,notharmonic,1.8,,z,nw,,,,,,,
,,,,,,,,,,,321468,,001,2024-02-16_17h39.09.530,VH_new_version2,2023.2.3,Win32,60.24096386,260.6112,261.6108,,,,,,,,,,,,,,,,,,,,,,,,,,261.6109,262.0776,m,1,0.4474,,262.0776,262.0776,,0,111,111,122,1,123,kapı,1792,81.4214,1566,0.1712,4,harmonic,1,4.910738566,m,w,,,,,,,
,,,,,,,,,,,321468,,001,2024-02-16_17h39.09.530,VH_new_version2,2023.2.3,Win32,60.24096386,262.0779,263.0776,,,,,,,,,,,,,,,,,,,,,,,,,,263.0776,264.8112,m,1,1.7197,,264.8112,264.8114,,0,112,112,130,1,131,başarı,1398,63.5196,1300,0.1421,6,harmonic,1.2,4.802907755,m,w,,,,,,,
,,,,,,,,,,,321468,,001,2024-02-16_17h39.09.530,VH_new_version2,2023.2.3,Win32,60.24096386,264.8193,265.8114,,,,,,,,,,,,,,,,,,,,,,,,,,265.8114,266.3953,m,1,0.5674,,266.3953,266.3953,,0,113,113,38,1,39,fikir,2552,115.9528,2413,0.2638,5,harmonic,1.9,5.06428124,m,w,,,,,,,
,,,,,,,,,,,321468,,001,2024-02-16_17h39.09.530,VH_new_version2,2023.2.3,Win32,60.24096386,266.3956,267.395,,,,,,,,,,,,,,,,,,,,,,,,,,267.395,267.9789,z,1,0.5693,,267.9789,267.9789,,0,114,114,199,1,200,bartam,,,,,6,harmonic,1.85,,z,nw,,,,,,,
,,,,,,,,,,,321468,,001,2024-02-16_17h39.09.530,VH_new_version2,2023.2.3,Win32,60.24096386,267.9792,268.9791,,,,,,,,,,,,,,,,,,,,,,,,,,268.9792,269.5294,m,1,0.5316,,269.5295,269.5296,,0,115,115,10,1,11,eser,958,43.5277,892,0.0975,4,harmonic,1,4.63876572,m,w,,,,,,,
,,,,,,,,,,,321468,,001,2024-02-16_17h39.09.530,VH_new_version2,2023.2.3,Win32,60.24096386,269.5298,270.5295,,,,,,,,,,,,,,,,,,,,,,,,,,270.5295,271.0796,z,1,0.532,,271.0796,271.0796,,0,116,116,148,1,149,aşıç,,,,,4,harmonic,1.65,,z,nw,,,,,,,
,,,,,,,,,,,321468,,001,2024-02-16_17h39.09.530,VH_new_version2,2023.2.3,Win32,60.24096386,271.08,272.0791,,,,,,,,,,,,,,,,,,,,,,,,,,272.0791,272.6959,z,1,0.5989,,272.6959,272.696,,0,117,117,240,1,241,makek,,,,,5,notharmonic,1.9,,z,nw,,,,,,,
,,,,,,,,,,,321468,,001,2024-02-16_17h39.09.530,VH_new_version2,2023.2.3,Win32,60.24096386,272.6962,273.6959,,,,,,,,,,,,,,,,,,,,,,,,,,273.6959,274.2793,z,1,0.5698,,274.2793,274.2794,,0,118,118,260,1,261,dülda,,,,,5,notharmonic,1.95,,z,nw,,,,,,,
,,,,,,,,,,,321468,,001,2024-02-16_17h39.09.530,VH_new_version2,2023.2.3,Win32,60.24096386,274.2795,275.2796,,,,,,,,,,,,,,,,,,,,,,,,,,275.2796,276.1796,z,1,0.8808,,276.1796,276.1797,,0,119,119,151,1,152,uban,,,,,4,harmonic,1.35,,z,nw,,,,,,,
,,,,,,,,,,,321468,,001,2024-02-16_17h39.09.530,VH_new_version2,2023.2.3,Win32,60.24096386,276.1799,277.1799,,,,,,,,,,,,,,,,,,,,,,,,,,277.1799,277.8967,z,1,0.707,,277.8967,277.8967,,0,120,120,165,1,166,eyel,,,,,4,harmonic,1.65,,z,nw,,,,,,,
,,,,,,,,,,,321468,,001,2024-02-16_17h39.09.530,VH_new_version2,2023.2.3,Win32,60.24096386,277.897,278.8968,,,,,,,,,,,,,,,,,,,,,,,,,,278.8968,279.6136,m,1,0.7024,,279.6136,279.6136,,0,121,121,114,1,115,ayak,2143,97.3694,1931,0.2111,4,harmonic,1,4.988422494,m,w,,,,,,,
,,,,,,,,,,,321468,,001,2024-02-16_17h39.09.530,VH_new_version2,2023.2.3,Win32,60.24096386,279.6139,280.6137,,,,,,,,,,,,,,,,,,,,,,,,,,280.6137,281.2639,z,1,0.6368,,281.2639,281.264,,0,122,122,258,1,259,ihati,,,,,5,notharmonic,1.95,,z,nw,,,,,,,
,,,,,,,,,,,321468,,001,2024-02-16_17h39.09.530,VH_new_version2,2023.2.3,Win32,60.24096386,281.2643,282.2639,,,,,,,,,,,,,,,,,,,,,,,,,,282.2639,282.8809,z,1,0.6042,,282.8809,282.8809,,0,123,123,160,1,161,ünte,,,,,4,harmonic,1.65,,z,nw,,,,,,,
,,,,,,,,,,,321468,,001,2024-02-16_17h39.09.530,VH_new_version2,2023.2.3,Win32,60.24096386,282.8812,283.8809,,,,,,,,,,,,,,,,,,,,,,,,,,283.881,284.4651,z,1,0.5652,,284.4651,284.4652,,0,124,124,268,1,269,mucepi,,,,,6,notharmonic,2.85,,z,nw,,,,,,,
,,,,,,,,,,,321468,,001,2024-02-16_17h39.09.530,VH_new_version2,2023.2.3,Win32,60.24096386,284.4654,285.4652,,,,,,,,,,,,,,,,,,,,,,,,,,285.4653,286.0148,m,1,0.5307,,286.0148,286.0149,,0,125,125,25,1,26,orman,819,37.2121,705,0.0771,5,harmonic,1.3,4.570684179,m,w,,,,,,,
,,,,,,,,,,,321468,,001,2024-02-16_17h39.09.530,VH_new_version2,2023.2.3,Win32,60.24096386,286.0152,287.0148,,,,,,,,,,,,,,,,,,,,,,,,,,287.0148,287.5653,m,1,0.536,,287.5653,287.5654,,0,126,126,42,1,43,şeker,4708,213.9128,4170,0.4559,5,harmonic,1.6,5.330236772,m,w,,,,,,,
,,,,,,,,,,,321468,,001,2024-02-16_17h39.09.530,VH_new_version2,2023.2.3,Win32,60.24096386,287.5657,288.5652,,,,,,,,,,,,,,,,,,,,,,,,,,288.5652,289.2815,z,1,0.6975,,289.2817,289.2817,,0,127,127,273,1,274,kalkeş,,,,,6,notharmonic,1.85,,z,nw,,,,,,,
,,,,,,,,,,,321468,,001,2024-02-16_17h39.09.530,VH_new_version2,2023.2.3,Win32,60.24096386,289.2819,290.2822,,,,,,,,,,,,,,,,,,,,,,,,,,290.2822,291.0154,z,1,0.7263,,291.0154,291.0155,,0,128,128,175,1,176,sakça,,,,,5,harmonic,1.55,,z,nw,,,,,,,
,,,,,,,,,,,321468,,001,2024-02-16_17h39.09.530,VH_new_version2,2023.2.3,Win32,60.24096386,291.0156,292.0155,,,,,,,,,,,,,,,,,,,,,,,,,,292.0155,292.7156,z,1,0.687,,292.7156,292.7156,,0,129,129,217,1,218,heka,,,,,4,notharmonic,1.75,,z,nw,,,,,,,
,,,,,,,,,,,321468,,001,2024-02-16_17h39.09.530,VH_new_version2,2023.2.3,Win32,60.24096386,292.7159,293.7164,,,,,,,,,,,,,,,,,,,,,,,,,,293.7164,294.283,z,1,0.5559,,294.283,294.2831,,0,130,130,276,1,277,hiyake,,,,,6,notharmonic,2.25,,z,nw,,,,,,,
,,,,,,,,,,,321468,,001,2024-02-16_17h39.09.530,VH_new_version2,2023.2.3,Win32,60.24096386,294.2834,295.2833,,,,,,,,,,,,,,,,,,,,,,,,,,295.2833,295.8835,z,1,0.587,,295.8835,295.8836,,0,131,131,257,1,258,seran,,,,,5,notharmonic,1.35,,z,nw,,,,,,,
,,,,,,,,,,,321468,,001,2024-02-16_17h39.09.530,VH_new_version2,2023.2.3,Win32,60.24096386,295.8839,296.8836,,,,,,,,,,,,,,,,,,,,,,,,,,296.8837,297.5167,m,1,0.6169,,297.5167,297.5168,,0,132,132,95,1,96,sanat,3121,141.8059,2485,0.2717,5,harmonic,1.4,5.151694301,m,w,,,,,,,
,,,,,,,,,,,321468,,001,2024-02-16_17h39.09.530,VH_new_version2,2023.2.3,Win32,60.24096386,297.5171,298.5169,,,,,,,,,,,,,,,,,,,,,,,,,,298.5169,300.0008,z,1,1.4677,,300.0008,300.0009,,0,133,133,181,1,182,masus,,,,,5,harmonic,1.7,,z,nw,,,,,,,
,,,,,,,,,,,321468,,001,2024-02-16_17h39.09.530,VH_new_version2,2023.2.3,Win32,60.24096386,300.0012,301.0008,,,,,,,,,,,,,,,,,,,,,,,,,,301.0008,301.7842,m,1,0.7696,,301.7842,301.7843,,0,134,134,105,1,106,hasta,2431,110.455,2140,0.2339,5,harmonic,1,5.04318538,m,w,,,,,,,
,,,,,,,,,,,321468,,001,2024-02-16_17h39.09.530,VH_new_version2,2023.2.3,Win32,60.24096386,301.7845,302.7846,,,,,,,,,,,,,,,,,,,,,,,,,,302.7846,303.4013,z,1,0.5983,,303.4013,303.4014,,0,135,135,162,1,163,möre,,,,,4,harmonic,1.65,,z,nw,,,,,,,
,,,,,,,,,,,321468,,001,2024-02-16_17h39.09.530,VH_new_version2,2023.2.3,Win32,60.24096386,303.4017,304.4015,,,,,,,,,,,,,,,,,,,,,,,,,,304.4015,305.2175,z,1,0.7984,,305.2175,305.2175,,0,136,136,183,1,184,çapal,,,,,5,harmonic,1.6,,z,nw,,,,,,,
,,,,,,,,,,,321468,,001,2024-02-16_17h39.09.530,VH_new_version2,2023.2.3,Win32,60.24096386,305.2177,306.2186,,,,,,,,,,,,,,,,,,,,,,,,,,306.2186,306.7518,m,1,0.5179,,306.7518,306.7518,,0,137,137,58,1,59,toprak,1989,90.3723,1762,0.1926,6,harmonic,1.9,4.956035335,m,w,,,,,,,
,,,,,,,,,,,321468,,001,2024-02-16_17h39.09.530,VH_new_version2,2023.2.3,Win32,60.24096386,306.7521,307.7516,,,,,,,,,,,,,,,,,,,,,,,,,,307.7517,308.3347,m,1,0.5653,,308.3347,308.3348,,0,138,138,53,1,54,çıplak,819,37.2121,766,0.0837,6,harmonic,2,4.570684179,m,w,,,,,,,
,,,,,,,,,,,321468,,001,2024-02-16_17h39.09.530,VH_new_version2,2023.2.3,Win32,60.24096386,308.3351,309.3348,,,,,,,,,,,,,,,,,,,,,,,,,,309.3349,309.9524,z,1,0.5989,,309.9525,309.9525,,0,139,139,166,1,167,dokoş,,,,,5,harmonic,2,,z,nw,,,,,,,
,,,,,,,,,,,321468,,001,2024-02-16_17h39.09.530,VH_new_version2,2023.2.3,Win32,60.24096386,309.9527,310.9522,,,,,,,,,,,,,,,,,,,,,,,,,,310.9523,311.4024,m,1,0.4401,,311.4024,311.4025,,0,140,140,45,1,46,akşam,7480,339.8615,6833,0.747,5,harmonic,1.6,5.53130197,m,w,,,,,,,
,,,,,,,,,,,321468,,001,2024-02-16_17h39.09.530,VH_new_version2,2023.2.3,Win32,60.24096386,311.4028,312.4027,,,,,,,,,,,,,,,,,,,,,,,,,,312.4028,312.9354,m,1,0.5172,,312.9354,314.4524,space,0,141,141,49,1,50,çeyrek,540,24.5355,477,0.0521,6,harmonic,1.9,4.389794913,m,w,1.5009,,,,,,
,,,,,,,,,,,321468,,001,2024-02-16_17h39.09.530,VH_new_version2,2023.2.3,Win32,60.24096386,314.4588,315.4524,,,,,,,,,,,,,,,,,,,,,,,,,,315.4524,316.0863,z,1,0.6156,,316.0864,316.0864,,0,142,142,209,1,210,soğkal,,,,,6,harmonic,2.1,,z,nw,,,,,,,
,,,,,,,,,,,321468,,001,2024-02-16_17h39.09.530,VH_new_version2,2023.2.3,Win32,60.24096386,316.0867,317.0862,,,,,,,,,,,,,,,,,,,,,,,,,,317.0862,317.6203,m,1,0.5227,,317.6204,317.6204,,0,143,143,127,1,128,kaynak,1577,71.6526,1481,0.1619,6,harmonic,1.4,4.855231954,m,w,,,,,,,
,,,,,,,,,,,321468,,001,2024-02-16_17h39.09.530,VH_new_version2,2023.2.3,Win32,60.24096386,317.6206,318.6203,,,,,,,,,,,,,,,,,,,,,,,,,,318.6203,319.1368,m,1,0.5036,,319.1368,319.1369,,0,144,144,109,1,110,ürün,2268,103.0489,1954,0.2136,4,harmonic,1.1,5.01304336,m,w,,,,,,,
,,,,,,,,,,,321468,,001,2024-02-16_17h39.09.530,VH_new_version2,2023.2.3,Win32,60.24096386,319.1372,320.137,,,,,,,,,,,,,,,,,,,,,,,,,,320.1371,320.6041,m,1,0.4512,,320.6041,320.6042,,0,145,145,19,1,20,baba,3645,165.6143,3131,0.3423,4,harmonic,1,5.219097833,m,w,,,,,,,
,,,,,,,,,,,321468,,001,2024-02-16_17h39.09.530,VH_new_version2,2023.2.3,Win32,60.24096386,320.6044,321.6043,,,,,,,,,,,,,,,,,,,,,,,,,,321.6043,322.1871,m,1,0.5711,,322.1871,322.1872,,0,146,146,88,1,89,yorum,3801,172.7024,3473,0.3797,5,harmonic,1.1,5.237298373,m,w,,,,,,,
,,,,,,,,,,,321468,,001,2024-02-16_17h39.09.530,VH_new_version2,2023.2.3,Win32,60.24096386,322.1873,323.1876,,,,,,,,,,,,,,,,,,,,,,,,,,323.1876,323.6377,m,1,0.4305,,323.6377,323.6378,,0,147,147,29,1,30,şarap,926,42.0738,787,0.086,5,harmonic,1.9,4.624011738,m,w,,,,,,,
,,,,,,,,,,,321468,,001,2024-02-16_17h39.09.530,VH_new_version2,2023.2.3,Win32,60.24096386,323.638,324.6379,,,,,,,,,,,,,,,,,,,,,,,,,,324.638,325.154,z,1,0.5007,,325.154,325.1541,,0,148,148,169,1,170,senez,,,,,5,harmonic,1.65,,z,nw,,,,,,,
,,,,,,,,,,,321468,,001,2024-02-16_17h39.09.530,VH_new_version2,2023.2.3,Win32,60.24096386,325.1543,326.1542,,,,,,,,,,,,,,,,,,,,,,,,,,326.1542,326.6208,m,1,0.4573,,326.6208,326.6208,,0,149,149,17,1,18,sarı,2072,94.1435,1838,0.2009,4,harmonic,1,4.97379034,m,w,,,,,,,
,,,,,,,,,,,321468,,001,2024-02-16_17h39.09.530,VH_new_version2,2023.2.3,Win32,60.24096386,326.6211,327.6217,,,,,,,,,,,,,,,,,,,,,,,,,,327.6217,328.2216,z,1,0.5861,,328.2217,328.2217,,0,150,150,185,1,186,birpi,,,,,5,harmonic,1.75,,z,nw,,,,,,,
,,,,,,,,,,,321468,,001,2024-02-16_17h39.09.530,VH_new_version2,2023.2.3,Win32,60.24096386,328.2221,329.222,,,,,,,,,,,,,,,,,,,,,,,,,,329.222,329.7721,m,1,0.5299,,329.7721,329.7721,,0,151,151,78,1,79,şişe,478,21.7184,440,0.0481,4,harmonic,1.05,4.336827828,m,w,,,,,,,
,,,,,,,,,,,321468,,001,2024-02-16_17h39.09.530,VH_new_version2,2023.2.3,Win32,60.24096386,329.7725,330.7724,,,,,,,,,,,,,,,,,,,,,,,,,,330.7724,331.3554,z,1,0.5643,,331.3555,331.3555,,0,152,152,146,1,147,öğne,,,,,4,harmonic,1.7,,z,nw,,,,,,,
,,,,,,,,,,,321468,,001,2024-02-16_17h39.09.530,VH_new_version2,2023.2.3,Win32,60.24096386,331.3558,332.3552,,,,,,,,,,,,,,,,,,,,,,,,,,332.3552,332.8552,m,1,0.491,,332.8552,332.8553,,0,153,153,107,1,108,isim,2366,107.5017,2163,0.2365,4,harmonic,1,5.031415332,m,w,,,,,,,
,,,,,,,,,,,321468,,001,2024-02-16_17h39.09.530,VH_new_version2,2023.2.3,Win32,60.24096386,332.8555,333.8552,,,,,,,,,,,,,,,,,,,,,,,,,,333.8552,334.456,z,1,0.5898,,334.456,334.456,,0,154,154,227,1,228,esta,,,,,4,notharmonic,1.7,,z,nw,,,,,,,
,,,,,,,,,,,321468,,001,2024-02-16_17h39.09.530,VH_new_version2,2023.2.3,Win32,60.24096386,334.4564,335.4557,,,,,,,,,,,,,,,,,,,,,,,,,,335.4557,336.0897,z,1,0.6213,,336.0898,336.0898,,0,155,155,253,1,254,mafke,,,,,5,notharmonic,1.9,,z,nw,,,,,,,
,,,,,,,,,,,321468,,001,2024-02-16_17h39.09.530,VH_new_version2,2023.2.3,Win32,60.24096386,336.09,337.0898,,,,,,,,,,,,,,,,,,,,,,,,,,337.0899,337.7233,z,1,0.6159,,337.7233,337.7233,,0,156,156,149,1,150,irgi,,,,,4,harmonic,1.8,,z,nw,,,,,,,
,,,,,,,,,,,321468,,001,2024-02-16_17h39.09.530,VH_new_version2,2023.2.3,Win32,60.24096386,337.7237,338.7235,,,,,,,,,,,,,,,,,,,,,,,,,,338.7235,339.3902,m,1,0.6507,,339.3902,339.3903,,0,157,157,121,1,122,usta,1823,82.8299,1478,0.1616,4,harmonic,1.5,4.918187137,m,w,,,,,,,
,,,,,,,,,,,321468,,001,2024-02-16_17h39.09.530,VH_new_version2,2023.2.3,Win32,60.24096386,339.3906,340.3904,,,,,,,,,,,,,,,,,,,,,,,,,,340.3905,340.8905,m,1,0.4864,,340.8905,340.8905,,0,158,158,72,1,73,uğur,787,35.7582,666,0.0728,4,harmonic,1.6,4.553375649,m,w,,,,,,,
,,,,,,,,,,,321468,,001,2024-02-16_17h39.09.530,VH_new_version2,2023.2.3,Win32,60.24096386,340.8908,341.8906,,,,,,,,,,,,,,,,,,,,,,,,,,341.8906,342.4905,z,1,0.5834,,342.4905,342.4905,,0,159,159,248,1,249,talif,,,,,5,notharmonic,1.5,,z,nw,,,,,,,
,,,,,,,,,,,321468,,001,2024-02-16_17h39.09.530,VH_new_version2,2023.2.3,Win32,60.24096386,342.4909,343.4908,,,,,,,,,,,,,,,,,,,,,,,,,,343.4908,344.3411,z,1,0.8357,,344.3411,344.3412,,0,160,160,161,1,162,mağa,,,,,4,harmonic,1.15,,z,nw,,,,,,,
,,,,,,,,,,,321468,,001,2024-02-16_17h39.09.530,VH_new_version2,2023.2.3,Win32,60.24096386,344.3414,345.3409,,,,,,,,,,,,,,,,,,,,,,,,,,345.3409,345.8747,m,1,0.5201,,345.8747,345.8747,,0,161,161,70,1,71,gerçek,8983,408.1519,8058,0.8809,6,harmonic,1.7,5.610821823,m,w,,,,,,,
,,,,,,,,,,,321468,,001,2024-02-16_17h39.09.530,VH_new_version2,2023.2.3,Win32,60.24096386,345.875,346.8748,,,,,,,,,,,,,,,,,,,,,,,,,,346.8748,347.3412,m,1,0.4541,,347.3412,347.3413,,0,162,162,123,1,124,yıldız,1775,80.649,1532,0.1675,6,harmonic,1.6,4.906598987,m,w,,,,,,,
,,,,,,,,,,,321468,,001,2024-02-16_17h39.09.530,VH_new_version2,2023.2.3,Win32,60.24096386,347.3416,348.3416,,,,,,,,,,,,,,,,,,,,,,,,,,348.3416,348.8918,z,1,0.5329,,348.8918,348.8919,,0,163,163,232,1,233,leda,,,,,4,notharmonic,1.6,,z,nw,,,,,,,
,,,,,,,,,,,321468,,001,2024-02-16_17h39.09.530,VH_new_version2,2023.2.3,Win32,60.24096386,348.8921,349.892,,,,,,,,,,,,,,,,,,,,,,,,,,349.892,350.4085,m,1,0.4968,,350.4086,350.4086,,0,164,164,15,1,16,ışık,1814,82.421,1635,0.1787,4,harmonic,1.6,4.916037879,m,w,,,,,,,
,,,,,,,,,,,321468,,001,2024-02-16_17h39.09.530,VH_new_version2,2023.2.3,Win32,60.24096386,350.409,351.4086,,,,,,,,,,,,,,,,,,,,,,,,,,351.4086,351.9422,m,1,0.5215,,351.9422,351.9422,,0,165,165,47,1,48,yemek,9626,437.3673,8311,0.9086,5,harmonic,1.35,5.64084631,m,w,,,,,,,
,,,,,,,,,,,321468,,001,2024-02-16_17h39.09.530,VH_new_version2,2023.2.3,Win32,60.24096386,351.9425,352.9424,,,,,,,,,,,,,,,,,,,,,,,,,,352.9424,353.4925,z,1,0.5325,,353.4925,353.4926,,0,166,166,236,1,237,alte,,,,,4,notharmonic,1.7,,z,nw,,,,,,,
,,,,,,,,,,,321468,,001,2024-02-16_17h39.09.530,VH_new_version2,2023.2.3,Win32,60.24096386,353.4928,354.4925,,,,,,,,,,,,,,,,,,,,,,,,,,354.4926,355.0753,m,1,0.5736,,355.0754,355.0754,,0,167,167,117,1,118,çiçek,2071,94.098,1772,0.1937,5,harmonic,1.95,4.973580393,m,w,,,,,,,
,,,,,,,,,,,321468,,001,2024-02-16_17h39.09.530,VH_new_version2,2023.2.3,Win32,60.24096386,355.0756,356.0753,,,,,,,,,,,,,,,,,,,,,,,,,,356.0753,356.6429,z,1,0.5486,,356.6429,356.643,,0,168,168,164,1,165,üdel,,,,,4,harmonic,1.95,,z,nw,,,,,,,
,,,,,,,,,,,321468,,001,2024-02-16_17h39.09.530,VH_new_version2,2023.2.3,Win32,60.24096386,356.6433,357.643,,,,,,,,,,,,,,,,,,,,,,,,,,357.6431,358.2098,m,1,0.5479,,358.2098,358.2098,,0,169,169,110,1,111,akıl,2208,100.3228,2004,0.2191,4,harmonic,1,5.001399645,m,w,,,,,,,
,,,,,,,,,,,321468,,001,2024-02-16_17h39.09.530,VH_new_version2,2023.2.3,Win32,60.24096386,358.2102,359.21,,,,,,,,,,,,,,,,,,,,,,,,,,359.21,359.9936,m,1,0.7634,,359.9936,359.9937,,0,170,170,26,1,27,boyun,843,38.3026,777,0.0849,5,harmonic,1.05,4.583228255,m,w,,,,,,,
,,,,,,,,,,,321468,,001,2024-02-16_17h39.09.530,VH_new_version2,2023.2.3,Win32,60.24096386,359.9939,360.9937,,,,,,,,,,,,,,,,,,,,,,,,,,360.9938,361.5097,z,1,0.4983,,361.5097,361.5098,,0,171,171,229,1,230,irar,,,,,4,notharmonic,1.65,,z,nw,,,,,,,
,,,,,,,,,,,321468,,001,2024-02-16_17h39.09.530,VH_new_version2,2023.2.3,Win32,60.24096386,361.51,362.5105,,,,,,,,,,,,,,,,,,,,,,,,,,362.5106,363.1106,z,1,0.5833,,363.1107,363.1107,,0,172,172,159,1,160,daro,,,,,4,harmonic,1.7,,z,nw,,,,,,,
,,,,,,,,,,,321468,,001,2024-02-16_17h39.09.530,VH_new_version2,2023.2.3,Win32,60.24096386,363.1109,364.1108,,,,,,,,,,,,,,,,,,,,,,,,,,364.1108,364.6274,z,1,0.4988,,364.6274,364.6275,,0,173,173,239,1,240,kanel,,,,,5,notharmonic,1.9,,z,nw,,,,,,,
,,,,,,,,,,,321468,,001,2024-02-16_17h39.09.530,VH_new_version2,2023.2.3,Win32,60.24096386,364.6277,365.6275,,,,,,,,,,,,,,,,,,,,,,,,,,365.6275,366.211,z,1,0.5643,,366.211,366.211,,0,174,174,223,1,224,mame,,,,,4,notharmonic,1.65,,z,nw,,,,,,,
,,,,,,,,,,,321468,,001,2024-02-16_17h39.09.530,VH_new_version2,2023.2.3,Win32,60.24096386,366.2113,367.2112,,,,,,,,,,,,,,,,,,,,,,,,,,367.2112,367.9447,z,1,0.7169,,367.9447,367.9448,,0,175,175,274,1,275,çanese,,,,,6,notharmonic,2,,z,nw,,,,,,,
,,,,,,,,,,,321468,,001,2024-02-16_17h39.09.530,VH_new_version2,2023.2.3,Win32,60.24096386,367.9452,368.9447,,,,,,,,,,,,,,,,,,,,,,,,,,368.9447,369.5117,z,1,0.5477,,369.5117,369.5117,,0,176,176,266,1,267,ebvace,,,,,6,notharmonic,2.95,,z,nw,,,,,,,
,,,,,,,,,,,321468,,001,2024-02-16_17h39.09.530,VH_new_version2,2023.2.3,Win32,60.24096386,369.5119,370.5116,,,,,,,,,,,,,,,,,,,,,,,,,,370.5117,371.1285,z,1,0.5983,,371.1285,371.1285,,0,177,177,212,1,213,yeryek,,,,,6,harmonic,1.9,,z,nw,,,,,,,
,,,,,,,,,,,321468,,001,2024-02-16_17h39.09.530,VH_new_version2,2023.2.3,Win32,60.24096386,371.1289,372.1286,,,,,,,,,,,,,,,,,,,,,,,,,,372.1286,372.7449,m,1,0.6043,,372.7449,372.745,,0,178,178,116,1,117,nokta,2085,94.7341,1939,0.212,5,harmonic,1.5,4.976506334,m,w,,,,,,,
,,,,,,,,,,,321468,,001,2024-02-16_17h39.09.530,VH_new_version2,2023.2.3,Win32,60.24096386,372.7453,373.7453,,,,,,,,,,,,,,,,,,,,,,,,,,373.7453,374.3458,z,1,0.5846,,374.3458,374.3458,,0,179,179,203,1,204,yağcır,,,,,6,harmonic,1.9,,z,nw,,,,,,,
,,,,,,,,,,,321468,,001,2024-02-16_17h39.09.530,VH_new_version2,2023.2.3,Win32,60.24096386,374.3461,375.3457,,,,,,,,,,,,,,,,,,,,,,,,,,375.3457,376.0624,z,1,0.7072,,376.0624,376.0624,,0,180,180,259,1,260,kiyaf,,,,,5,notharmonic,1.95,,z,nw,,,,,,,
,,,,,,,,,,,321468,,001,2024-02-16_17h39.09.530,VH_new_version2,2023.2.3,Win32,60.24096386,376.0627,377.0621,,,,,,,,,,,,,,,,,,,,,,,,,,377.0621,377.7129,z,1,0.6407,,377.7129,377.713,,0,181,181,207,1,208,dendek,,,,,6,harmonic,1.8,,z,nw,,,,,,,
,,,,,,,,,,,321468,,001,2024-02-16_17h39.09.530,VH_new_version2,2023.2.3,Win32,60.24096386,377.7132,378.7129,,,,,,,,,,,,,,,,,,,,,,,,,,378.7129,379.3462,z,1,0.6142,,379.3462,379.3463,,0,182,182,184,1,185,nekir,,,,,5,harmonic,1.6,,z,nw,,,,,,,
,,,,,,,,,,,321468,,001,2024-02-16_17h39.09.530,VH_new_version2,2023.2.3,Win32,60.24096386,379.3465,380.3461,,,,,,,,,,,,,,,,,,,,,,,,,,380.3461,380.9964,z,1,0.638,,380.9964,380.9965,,0,183,183,279,1,280,tevaha,,,,,6,notharmonic,2,,z,nw,,,,,,,
,,,,,,,,,,,321468,,001,2024-02-16_17h39.09.530,VH_new_version2,2023.2.3,Win32,60.24096386,380.9968,381.9965,,,,,,,,,,,,,,,,,,,,,,,,,,381.9966,382.5467,z,1,0.5342,,382.5467,382.5467,,0,184,184,281,1,282,tashin,,,,,6,notharmonic,1.85,,z,nw,,,,,,,
,,,,,,,,,,,321468,,001,2024-02-16_17h39.09.530,VH_new_version2,2023.2.3,Win32,60.24096386,382.547,383.5468,,,,,,,,,,,,,,,,,,,,,,,,,,383.5468,384.363,z,1,0.8088,,384.3631,384.3631,,0,185,185,198,1,199,tenlek,,,,,6,harmonic,1.85,,z,nw,,,,,,,
,,,,,,,,,,,321468,,001,2024-02-16_17h39.09.530,VH_new_version2,2023.2.3,Win32,60.24096386,384.3635,385.3633,,,,,,,,,,,,,,,,,,,,,,,,,,385.3633,385.9966,m,1,0.6155,,385.9966,385.9967,,0,186,186,79,1,80,erik,376,17.0839,335,0.0366,4,harmonic,1,4.232587021,m,w,,,,,,,
,,,,,,,,,,,321468,,001,2024-02-16_17h39.09.530,VH_new_version2,2023.2.3,Win32,60.24096386,385.9969,386.9969,,,,,,,,,,,,,,,,,,,,,,,,,,386.997,387.5636,m,1,0.547,,387.5636,387.5637,,0,187,187,35,1,36,araba,1704,77.423,1485,0.1623,5,harmonic,1,4.888869995,m,w,,,,,,,
,,,,,,,,,,,321468,,001,2024-02-16_17h39.09.530,VH_new_version2,2023.2.3,Win32,60.24096386,387.5639,388.5645,,,,,,,,,,,,,,,,,,,,,,,,,,388.5645,389.3146,z,1,0.7371,,389.3147,389.3147,,0,188,188,202,1,203,cehret,,,,,6,harmonic,1.85,,z,nw,,,,,,,
,,,,,,,,,,,321468,,001,2024-02-16_17h39.09.530,VH_new_version2,2023.2.3,Win32,60.24096386,389.3151,390.3148,,,,,,,,,,,,,,,,,,,,,,,,,,390.3148,391.1485,z,1,0.8143,,391.1485,391.1488,,0,189,189,188,1,189,yahat,,,,,5,harmonic,1.8,,z,nw,,,,,,,
,,,,,,,,,,,321468,,001,2024-02-16_17h39.09.530,VH_new_version2,2023.2.3,Win32,60.24096386,391.149,392.1482,,,,,,,,,,,,,,,,,,,,,,,,,,392.1482,392.6483,m,1,0.4908,,392.6483,392.6483,,0,190,190,64,1,65,teknik,3297,149.8026,2798,0.3059,6,harmonic,1.9,5.175519351,m,w,,,,,,,
,,,,,,,,,,,321468,,001,2024-02-16_17h39.09.530,VH_new_version2,2023.2.3,Win32,60.24096386,392.6486,393.6488,,,,,,,,,,,,,,,,,,,,,,,,,,393.6488,394.3319,z,1,0.669,,394.3319,394.332,,0,191,191,250,1,251,hapef,,,,,5,notharmonic,1.95,,z,nw,,,,,,,
,,,,,,,,,,,321468,,001,2024-02-16_17h39.09.530,VH_new_version2,2023.2.3,Win32,60.24096386,394.3323,395.3325,,,,,,,,,,,,,,,,,,,,,,,,,,395.3325,395.8652,m,1,0.5139,,395.8652,395.8653,,0,192,192,44,1,45,erkek,6188,281.1582,5195,0.5679,5,harmonic,1.55,5.448950754,m,w,,,,,,,
,,,,,,,,,,,321468,,001,2024-02-16_17h39.09.530,VH_new_version2,2023.2.3,Win32,60.24096386,395.8655,396.8656,,,,,,,,,,,,,,,,,,,,,,,,,,396.8656,397.4493,z,1,0.5643,,397.4493,397.4494,,0,193,193,264,1,265,şingan,,,,,6,notharmonic,2.15,,z,nw,,,,,,,
,,,,,,,,,,,321468,,001,2024-02-16_17h39.09.530,VH_new_version2,2023.2.3,Win32,60.24096386,397.4496,398.4492,,,,,,,,,,,,,,,,,,,,,,,,,,398.4492,399.016,m,1,0.5468,,399.016,399.0161,,0,194,194,14,1,15,ocak,1685,76.5597,1548,0.1692,4,harmonic,1.9,4.884000223,m,w,,,,,,,
,,,,,,,,,,,321468,,001,2024-02-16_17h39.09.530,VH_new_version2,2023.2.3,Win32,60.24096386,399.0163,400.0161,,,,,,,,,,,,,,,,,,,,,,,,,,400.0161,400.5824,z,1,0.5576,,400.5824,400.5825,,0,195,195,256,1,257,betaş,,,,,5,notharmonic,1.85,,z,nw,,,,,,,
,,,,,,,,,,,321468,,001,2024-02-16_17h39.09.530,VH_new_version2,2023.2.3,Win32,60.24096386,400.5828,401.5833,,,,,,,,,,,,,,,,,,,,,,,,,,401.5833,402.0831,m,1,0.481,,402.0832,402.0832,,0,196,196,7,1,8,inci,757,34.3951,686,0.075,4,harmonic,1.05,4.536496576,m,w,,,,,,,
,,,,,,,,,,,321468,,001,2024-02-16_17h39.09.530,VH_new_version2,2023.2.3,Win32,60.24096386,402.0836,403.083,,,,,,,,,,,,,,,,,,,,,,,,,,403.083,403.6661,z,1,0.5654,,403.6661,403.6662,,0,197,197,224,1,225,faer,,,,,4,notharmonic,1.9,,z,nw,,,,,,,
,,,,,,,,,,,321468,,001,2024-02-16_17h39.09.530,VH_new_version2,2023.2.3,Win32,60.24096386,403.6664,404.6669,,,,,,,,,,,,,,,,,,,,,,,,,,404.6669,405.3669,z,1,0.6799,,405.3669,405.367,,0,198,198,265,1,266,terhan,,,,,6,notharmonic,1.95,,z,nw,,,,,,,
,,,,,,,,,,,321468,,001,2024-02-16_17h39.09.530,VH_new_version2,2023.2.3,Win32,60.24096386,405.3673,406.3673,,,,,,,,,,,,,,,,,,,,,,,,,,406.3673,406.9169,z,1,0.5417,,406.9169,406.9169,,0,199,199,170,1,171,telen,,,,,5,harmonic,1.15,,z,nw,,,,,,,
,,,,,,,,,,,321468,,001,2024-02-16_17h39.09.530,VH_new_version2,2023.2.3,Win32,60.24096386,406.9171,407.9175,,,,,,,,,,,,,,,,,,,,,,,,,,407.9175,408.4677,m,1,0.5339,,408.4677,408.4677,,0,200,200,51,1,52,yaprak,739,33.5772,678,0.0741,6,harmonic,1.7,4.526044478,m,w,,,,,,,
,,,,,,,,,,,321468,,001,2024-02-16_17h39.09.530,VH_new_version2,2023.2.3,Win32,60.24096386,408.468,409.4676,,,,,,,,,,,,,,,,,,,,,,,,,,409.4677,409.9839,m,1,0.505,,409.9839,409.984,,0,201,201,23,1,24,evet,12599,572.4486,11447,1.2514,4,harmonic,1.65,5.757736498,m,w,,,,,,,
,,,,,,,,,,,321468,,001,2024-02-16_17h39.09.530,VH_new_version2,2023.2.3,Win32,60.24096386,409.9843,410.9841,,,,,,,,,,,,,,,,,,,,,,,,,,410.9842,411.5514,z,1,0.557,,411.5514,411.5514,,0,202,202,242,1,243,sayke,,,,,5,notharmonic,1.9,,z,nw,,,,,,,
,,,,,,,,,,,321468,,001,2024-02-16_17h39.09.530,VH_new_version2,2023.2.3,Win32,60.24096386,411.5517,412.5517,,,,,,,,,,,,,,,,,,,,,,,,,,412.5518,413.035,m,1,0.4714,,413.0351,413.0351,,0,203,203,40,1,41,temel,4231,192.2399,3851,0.421,5,harmonic,1.55,5.283843532,m,w,,,,,,,
,,,,,,,,,,,321468,,001,2024-02-16_17h39.09.530,VH_new_version2,2023.2.3,Win32,60.24096386,413.0354,414.0352,,,,,,,,,,,,,,,,,,,,,,,,,,414.0352,414.5851,m,1,0.5305,,414.5852,414.5853,,0,204,204,126,1,127,millet,1658,75.3329,1508,0.1649,6,harmonic,1.7,4.876984686,m,w,,,,,,,
,,,,,,,,,,,321468,,001,2024-02-16_17h39.09.530,VH_new_version2,2023.2.3,Win32,60.24096386,414.5855,415.5847,,,,,,,,,,,,,,,,,,,,,,,,,,415.5847,416.1848,z,1,0.5909,,416.1849,416.1849,,0,205,205,255,1,256,resap,,,,,5,notharmonic,1.9,,z,nw,,,,,,,
,,,,,,,,,,,321468,,001,2024-02-16_17h39.09.530,VH_new_version2,2023.2.3,Win32,60.24096386,416.1851,417.1854,,,,,,,,,,,,,,,,,,,,,,,,,,417.1854,417.7026,m,1,0.4977,,417.7026,417.7028,,0,206,206,129,1,130,peynir,1421,64.5646,1248,0.1364,6,harmonic,1.9,4.809994465,m,w,,,,,,,
,,,,,,,,,,,321468,,001,2024-02-16_17h39.09.530,VH_new_version2,2023.2.3,Win32,60.24096386,417.703,418.7024,,,,,,,,,,,,,,,,,,,,,,,,,,418.7024,419.1858,m,1,0.4701,,419.1858,419.1858,,0,207,207,34,1,35,çorba,1674,76.0599,1513,0.1654,5,harmonic,1.75,4.88115575,m,w,,,,,,,
,,,,,,,,,,,321468,,001,2024-02-16_17h39.09.530,VH_new_version2,2023.2.3,Win32,60.24096386,419.1861,420.186,,,,,,,,,,,,,,,,,,,,,,,,,,420.186,420.6695,m,1,0.467,,420.6695,420.6695,,0,208,208,113,1,114,görev,2159,98.0964,1998,0.2184,5,harmonic,1.75,4.99165307,m,w,,,,,,,
,,,,,,,,,,,321468,,001,2024-02-16_17h39.09.530,VH_new_version2,2023.2.3,Win32,60.24096386,420.6699,421.6697,,,,,,,,,,,,,,,,,,,,,,,,,,421.6698,422.3032,z,1,0.6222,,422.3032,422.3033,,0,209,209,210,1,211,bellet,,,,,6,harmonic,1.65,,z,nw,,,,,,,
,,,,,,,,,,,321468,,001,2024-02-16_17h39.09.530,VH_new_version2,2023.2.3,Win32,60.24096386,422.3036,423.3034,,,,,,,,,,,,,,,,,,,,,,,,,,423.3034,423.9532,z,1,0.6401,,423.9533,423.9533,,0,210,210,205,1,206,hücmet,,,,,6,harmonic,1.85,,z,nw,,,,,,,
,,,,,,,,,,,321468,,001,2024-02-16_17h39.09.530,VH_new_version2,2023.2.3,Win32,60.24096386,423.9536,424.9528,,,,,,,,,,,,,,,,,,,,,,,,,,424.9528,425.5368,z,1,0.5639,,425.5369,425.537,,0,211,211,254,1,255,hadir,,,,,5,notharmonic,1.4,,z,nw,,,,,,,
,,,,,,,,,,,321468,,001,2024-02-16_17h39.09.530,VH_new_version2,2023.2.3,Win32,60.24096386,425.5373,426.5364,,,,,,,,,,,,,,,,,,,,,,,,,,426.5364,427.0699,z,1,0.5176,,427.0699,428.5375,space,0,212,212,251,1,252,madit,,,,,5,notharmonic,1.9,,z,nw,1.4565,,,,,,
,,,,,,,,,,,321468,,001,2024-02-16_17h39.09.530,VH_new_version2,2023.2.3,Win32,60.24096386,428.5438,429.5374,,,,,,,,,,,,,,,,,,,,,,,,,,429.5374,430.0874,m,1,0.5326,,430.0875,430.0876,,0,213,213,4,1,5,öfke,606,27.5342,542,0.0593,4,harmonic,1.85,4.439872463,m,w,,,,,,,
,,,,,,,,,,,321468,,001,2024-02-16_17h39.09.530,VH_new_version2,2023.2.3,Win32,60.24096386,430.0877,431.0876,,,,,,,,,,,,,,,,,,,,,,,,,,431.0876,431.5712,m,1,0.4656,,431.5712,431.5713,,0,214,214,141,1,142,fındık,865,39.3022,769,0.0841,6,harmonic,1.95,4.594416861,m,w,,,,,,,
,,,,,,,,,,,321468,,001,2024-02-16_17h39.09.530,VH_new_version2,2023.2.3,Win32,60.24096386,431.5716,432.5714,,,,,,,,,,,,,,,,,,,,,,,,,,432.5714,433.1042,z,1,0.5132,,433.1042,433.1042,,0,215,215,150,1,151,acuz,,,,,4,harmonic,1.65,,z,nw,,,,,,,
,,,,,,,,,,,321468,,001,2024-02-16_17h39.09.530,VH_new_version2,2023.2.3,Win32,60.24096386,433.1046,434.105,,,,,,,,,,,,,,,,,,,,,,,,,,434.1051,434.5716,m,1,0.4476,,434.5717,434.5717,,0,216,216,82,1,83,oyun,4926,223.8179,3995,0.4367,4,harmonic,1,5.349894817,m,w,,,,,,,
,,,,,,,,,,,321468,,001,2024-02-16_17h39.09.530,VH_new_version2,2023.2.3,Win32,60.24096386,434.5721,435.5718,,,,,,,,,,,,,,,,,,,,,,,,,,435.5718,436.2052,m,1,0.6213,,436.2052,436.2053,,0,217,217,103,1,104,resim,2506,113.8627,2188,0.2392,5,harmonic,1.4,5.056381478,m,w,,,,,,,
,,,,,,,,,,,321468,,001,2024-02-16_17h39.09.530,VH_new_version2,2023.2.3,Win32,60.24096386,436.2055,437.2052,,,,,,,,,,,,,,,,,,,,,,,,,,437.2052,437.6389,m,1,0.4172,,437.639,437.639,,0,218,218,21,1,22,kötü,9344,424.5543,8257,0.9027,4,harmonic,1.65,5.627933244,m,w,,,,,,,
,,,,,,,,,,,321468,,001,2024-02-16_17h39.09.530,VH_new_version2,2023.2.3,Win32,60.24096386,437.6392,438.6391,,,,,,,,,,,,,,,,,,,,,,,,,,438.6391,439.1221,m,1,0.4746,,439.1222,439.1222,,0,219,219,13,1,14,kedi,1646,74.7877,1394,0.1524,4,harmonic,1.1,4.873830177,m,w,,,,,,,
,,,,,,,,,,,321468,,001,2024-02-16_17h39.09.530,VH_new_version2,2023.2.3,Win32,60.24096386,439.1225,440.1226,,,,,,,,,,,,,,,,,,,,,,,,,,440.1227,440.6718,z,1,0.5425,,440.6718,440.6719,,0,220,220,233,1,234,eali,,,,,4,notharmonic,1,,z,nw,,,,,,,
,,,,,,,,,,,321468,,001,2024-02-16_17h39.09.530,VH_new_version2,2023.2.3,Win32,60.24096386,440.6721,441.6728,,,,,,,,,,,,,,,,,,,,,,,,,,441.6728,442.3229,z,1,0.6302,,442.323,442.3231,,0,221,221,152,1,153,ebür,,,,,4,harmonic,1.95,,z,nw,,,,,,,
,,,,,,,,,,,321468,,001,2024-02-16_17h39.09.530,VH_new_version2,2023.2.3,Win32,60.24096386,442.3233,443.3232,,,,,,,,,,,,,,,,,,,,,,,,,,443.3232,443.8063,m,1,0.4717,,443.8064,443.8064,,0,222,222,36,1,37,gönül,1786,81.1488,1676,0.1832,5,harmonic,1.8,4.909282102,m,w,,,,,,,
,,,,,,,,,,,321468,,001,2024-02-16_17h39.09.530,VH_new_version2,2023.2.3,Win32,60.24096386,443.8067,444.8059,,,,,,,,,,,,,,,,,,,,,,,,,,444.8059,445.34,z,1,0.5238,,445.34,445.3401,,0,223,223,231,1,232,babi,,,,,4,notharmonic,1.4,,z,nw,,,,,,,
,,,,,,,,,,,321468,,001,2024-02-16_17h39.09.530,VH_new_version2,2023.2.3,Win32,60.24096386,445.3404,446.3397,,,,,,,,,,,,,,,,,,,,,,,,,,446.3397,447.1404,z,1,0.7832,,447.1404,447.1405,,0,224,224,172,1,173,çatuk,,,,,5,harmonic,1.8,,z,nw,,,,,,,
,,,,,,,,,,,321468,,001,2024-02-16_17h39.09.530,VH_new_version2,2023.2.3,Win32,60.24096386,447.1408,448.1406,,,,,,,,,,,,,,,,,,,,,,,,,,448.1406,448.6731,z,1,0.5153,,448.6732,448.6732,,0,225,225,222,1,223,laze,,,,,4,notharmonic,1.7,,z,nw,,,,,,,
,,,,,,,,,,,321468,,001,2024-02-16_17h39.09.530,VH_new_version2,2023.2.3,Win32,60.24096386,448.6735,449.674,,,,,,,,,,,,,,,,,,,,,,,,,,449.674,450.1908,m,1,0.501,,450.1908,450.191,,0,226,226,86,1,87,takım,4370,198.5555,3726,0.4073,5,harmonic,1,5.297881922,m,w,,,,,,,
,,,,,,,,,,,321468,,001,2024-02-16_17h39.09.530,VH_new_version2,2023.2.3,Win32,60.24096386,450.1913,451.191,,,,,,,,,,,,,,,,,,,,,,,,,,451.191,451.7576,z,1,0.554,,451.7577,451.7578,,0,227,227,220,1,221,nica,,,,,4,notharmonic,1.75,,z,nw,,,,,,,
,,,,,,,,,,,321468,,001,2024-02-16_17h39.09.530,VH_new_version2,2023.2.3,Win32,60.24096386,451.7581,452.7578,,,,,,,,,,,,,,,,,,,,,,,,,,452.7578,453.3412,z,1,0.5695,,453.3412,453.3413,,0,228,228,171,1,172,faraç,,,,,5,harmonic,1.75,,z,nw,,,,,,,
,,,,,,,,,,,321468,,001,2024-02-16_17h39.09.530,VH_new_version2,2023.2.3,Win32,60.24096386,453.3417,454.3415,,,,,,,,,,,,,,,,,,,,,,,,,,454.3415,454.9241,m,1,0.5655,,454.9241,454.9243,,0,229,229,39,1,40,mayıs,2630,119.4968,2294,0.2508,5,harmonic,1.75,5.077356275,m,w,,,,,,,
,,,,,,,,,,,321468,,001,2024-02-16_17h39.09.530,VH_new_version2,2023.2.3,Win32,60.24096386,454.9244,455.925,,,,,,,,,,,,,,,,,,,,,,,,,,455.925,456.4249,z,1,0.4895,,456.4249,456.4249,,0,230,230,187,1,188,ahfam,,,,,5,harmonic,1.85,,z,nw,,,,,,,
,,,,,,,,,,,321468,,001,2024-02-16_17h39.09.530,VH_new_version2,2023.2.3,Win32,60.24096386,456.4252,457.4247,,,,,,,,,,,,,,,,,,,,,,,,,,457.4247,458.0752,z,1,0.6327,,458.0752,458.0752,,0,231,231,178,1,179,güzül,,,,,5,harmonic,1.65,,z,nw,,,,,,,
,,,,,,,,,,,321468,,001,2024-02-16_17h39.09.530,VH_new_version2,2023.2.3,Win32,60.24096386,458.0755,459.0754,,,,,,,,,,,,,,,,,,,,,,,,,,459.0754,459.7423,z,1,0.6468,,459.7423,459.7424,,0,232,232,272,1,273,takime,,,,,6,notharmonic,1.5,,z,nw,,,,,,,
,,,,,,,,,,,321468,,001,2024-02-16_17h39.09.530,VH_new_version2,2023.2.3,Win32,60.24096386,459.7427,460.7427,,,,,,,,,,,,,,,,,,,,,,,,,,460.7427,461.3584,m,1,0.6077,,461.3584,461.3585,,0,233,233,104,1,105,hediye,2501,113.6355,2224,0.2431,6,harmonic,1.7,5.055514027,m,w,,,,,,,
,,,,,,,,,,,321468,,001,2024-02-16_17h39.09.530,VH_new_version2,2023.2.3,Win32,60.24096386,461.3586,462.3593,,,,,,,,,,,,,,,,,,,,,,,,,,462.3593,462.9595,m,1,0.5885,,462.9595,462.9596,,0,234,234,135,1,136,gündüz,1167,53.0239,1088,0.1189,6,harmonic,1.6,4.724471668,m,w,,,,,,,
,,,,,,,,,,,321468,,001,2024-02-16_17h39.09.530,VH_new_version2,2023.2.3,Win32,60.24096386,462.9599,463.9596,,,,,,,,,,,,,,,,,,,,,,,,,,463.9596,464.6258,m,1,0.6542,,464.6258,464.6259,,0,235,235,56,1,57,meslek,1082,49.1618,976,0.1067,6,harmonic,1.9,4.691627776,m,w,,,,,,,
,,,,,,,,,,,321468,,001,2024-02-16_17h39.09.530,VH_new_version2,2023.2.3,Win32,60.24096386,464.6261,465.6258,,,,,,,,,,,,,,,,,,,,,,,,,,465.6258,466.376,z,1,0.7386,,466.376,466.376,,0,236,236,144,1,145,içke,,,,,4,harmonic,1.6,,z,nw,,,,,,,
,,,,,,,,,,,321468,,001,2024-02-16_17h39.09.530,VH_new_version2,2023.2.3,Win32,60.24096386,466.3764,467.3765,,,,,,,,,,,,,,,,,,,,,,,,,,467.3765,467.9603,m,1,0.5716,,467.9603,467.9605,,0,237,237,106,1,107,altın,2385,108.3649,2017,0.2205,5,harmonic,1,5.034888635,m,w,,,,,,,
,,,,,,,,,,,321468,,001,2024-02-16_17h39.09.530,VH_new_version2,2023.2.3,Win32,60.24096386,467.9608,468.9598,,,,,,,,,,,,,,,,,,,,,,,,,,468.9598,469.5939,m,1,0.6183,,469.594,469.594,,0,238,238,131,1,132,doğa,1381,62.7472,1180,0.129,4,harmonic,1,4.797594351,m,w,,,,,,,
,,,,,,,,,,,321468,,001,2024-02-16_17h39.09.530,VH_new_version2,2023.2.3,Win32,60.24096386,469.5942,470.594,,,,,,,,,,,,,,,,,,,,,,,,,,470.594,471.11,m,1,0.5081,,471.11,471.11,,0,239,239,24,1,25,dokuz,802,36.4397,646,0.0706,5,harmonic,1.55,4.561574793,m,w,,,,,,,
,,,,,,,,,,,321468,,001,2024-02-16_17h39.09.530,VH_new_version2,2023.2.3,Win32,60.24096386,471.1103,472.111,,,,,,,,,,,,,,,,,,,,,,,,,,472.111,472.6107,m,1,0.4882,,472.6107,472.6108,,0,240,240,54,1,55,elbise,883,40.12,786,0.0859,6,harmonic,1.9,4.603360924,m,w,,,,,,,
,,,,,,,,,,,321468,,001,2024-02-16_17h39.09.530,VH_new_version2,2023.2.3,Win32,60.24096386,472.6111,473.6113,,,,,,,,,,,,,,,,,,,,,,,,,,473.6113,474.1113,m,1,0.4809,,474.1114,474.1114,,0,241,241,2,1,3,iğne,515,23.3996,455,0.0497,4,harmonic,1.65,4.369208434,m,w,,,,,,,
,,,,,,,,,,,321468,,001,2024-02-16_17h39.09.530,VH_new_version2,2023.2.3,Win32,60.24096386,474.1117,475.1113,,,,,,,,,,,,,,,,,,,,,,,,,,475.1114,475.6447,z,1,0.5179,,475.6447,475.6448,,0,242,242,213,1,214,zale,,,,,4,notharmonic,1.55,,z,nw,,,,,,,
,,,,,,,,,,,321468,,001,2024-02-16_17h39.09.530,VH_new_version2,2023.2.3,Win32,60.24096386,475.6452,476.645,,,,,,,,,,,,,,,,,,,,,,,,,,476.645,477.2284,z,1,0.5637,,477.2284,477.2285,,0,243,243,190,1,191,gopuk,,,,,5,harmonic,1.85,,z,nw,,,,,,,
,,,,,,,,,,,321468,,001,2024-02-16_17h39.09.530,VH_new_version2,2023.2.3,Win32,60.24096386,477.2288,478.2285,,,,,,,,,,,,,,,,,,,,,,,,,,478.2285,478.7288,m,1,0.4814,,478.7289,478.729,,0,244,244,77,1,78,çanta,639,29.0336,551,0.0602,5,harmonic,1.6,4.462900889,m,w,,,,,,,
,,,,,,,,,,,321468,,001,2024-02-16_17h39.09.530,VH_new_version2,2023.2.3,Win32,60.24096386,478.7293,479.7287,,,,,,,,,,,,,,,,,,,,,,,,,,479.7287,480.2788,z,1,0.5297,,480.2788,480.2789,,0,245,245,275,1,276,teşbuz,,,,,6,notharmonic,2.75,,z,nw,,,,,,,
,,,,,,,,,,,321468,,001,2024-02-16_17h39.09.530,VH_new_version2,2023.2.3,Win32,60.24096386,480.2792,481.279,,,,,,,,,,,,,,,,,,,,,,,,,,481.279,481.9784,z,1,0.684,,481.9784,481.9785,,0,246,246,211,1,212,yıksık,,,,,6,harmonic,1.8,,z,nw,,,,,,,
,,,,,,,,,,,321468,,001,2024-02-16_17h39.09.530,VH_new_version2,2023.2.3,Win32,60.24096386,481.9786,482.9792,,,,,,,,,,,,,,,,,,,,,,,,,,482.9792,483.5623,z,1,0.5663,,483.5623,483.5623,,0,247,247,157,1,158,öşek,,,,,4,harmonic,1.7,,z,nw,,,,,,,
,,,,,,,,,,,321468,,001,2024-02-16_17h39.09.530,VH_new_version2,2023.2.3,Win32,60.24096386,483.5627,484.5628,,,,,,,,,,,,,,,,,,,,,,,,,,484.5628,485.1961,m,1,0.6151,,485.1962,485.1964,,0,248,248,1,1,2,ufuk,437,19.8555,403,0.0441,4,harmonic,1.85,4.297880828,m,w,,,,,,,
,,,,,,,,,,,321468,,001,2024-02-16_17h39.09.530,VH_new_version2,2023.2.3,Win32,60.24096386,485.1966,486.1957,,,,,,,,,,,,,,,,,,,,,,,,,,486.1957,486.7957,z,1,0.5817,,486.7958,486.7958,,0,249,249,200,1,201,tuzrak,,,,,6,harmonic,1.95,,z,nw,,,,,,,
,,,,,,,,,,,321468,,001,2024-02-16_17h39.09.530,VH_new_version2,2023.2.3,Win32,60.24096386,486.796,487.7967,,,,,,,,,,,,,,,,,,,,,,,,,,487.7967,488.3302,z,1,0.5185,,488.3302,488.3303,,0,250,250,267,1,268,tapare,,,,,6,notharmonic,1.95,,z,nw,,,,,,,
,,,,,,,,,,,321468,,001,2024-02-16_17h39.09.530,VH_new_version2,2023.2.3,Win32,60.24096386,488.3305,489.3302,,,,,,,,,,,,,,,,,,,,,,,,,,489.3302,489.8971,m,1,0.5501,,489.8971,489.8971,,0,251,251,96,1,97,şehir,2981,135.4448,2608,0.2851,5,harmonic,1.75,5.131762336,m,w,,,,,,,
,,,,,,,,,,,321468,,001,2024-02-16_17h39.09.530,VH_new_version2,2023.2.3,Win32,60.24096386,489.8974,490.8969,,,,,,,,,,,,,,,,,,,,,,,,,,490.8969,491.3306,m,1,0.4215,,491.3306,491.3306,,0,252,252,87,1,88,sevgi,3950,179.4723,3467,0.379,5,harmonic,1.65,5.253997428,m,w,,,,,,,
,,,,,,,,,,,321468,,001,2024-02-16_17h39.09.530,VH_new_version2,2023.2.3,Win32,60.24096386,491.3309,492.3309,,,,,,,,,,,,,,,,,,,,,,,,,,492.3309,492.8472,z,1,0.5005,,492.8472,492.8473,,0,253,253,228,1,229,idna,,,,,4,notharmonic,1.8,,z,nw,,,,,,,
,,,,,,,,,,,321468,,001,2024-02-16_17h39.09.530,VH_new_version2,2023.2.3,Win32,60.24096386,492.8476,493.8467,,,,,,,,,,,,,,,,,,,,,,,,,,493.8468,494.3477,m,1,0.4816,,494.3478,494.3479,,0,254,254,81,1,82,hava,4975,226.0443,4398,0.4808,4,harmonic,1,5.35419356,m,w,,,,,,,
,,,,,,,,,,,321468,,001,2024-02-16_17h39.09.530,VH_new_version2,2023.2.3,Win32,60.24096386,494.3481,495.3477,,,,,,,,,,,,,,,,,,,,,,,,,,495.3477,495.8977,z,1,0.5414,,495.8977,495.8979,,0,255,255,180,1,181,finer,,,,,5,harmonic,1.65,,z,nw,,,,,,,
,,,,,,,,,,,321468,,001,2024-02-16_17h39.09.530,VH_new_version2,2023.2.3,Win32,60.24096386,495.8981,496.8979,,,,,,,,,,,,,,,,,,,,,,,,,,496.8979,497.4649,z,1,0.5529,,497.4649,497.465,,0,256,256,201,1,202,lingin,,,,,6,harmonic,1.6,,z,nw,,,,,,,
,,,,,,,,,,,321468,,001,2024-02-16_17h39.09.530,VH_new_version2,2023.2.3,Win32,60.24096386,497.4652,498.4652,,,,,,,,,,,,,,,,,,,,,,,,,,498.4652,498.9482,z,1,0.4714,,498.9483,498.9483,,0,257,257,269,1,270,sakate,,,,,6,notharmonic,1.8,,z,nw,,,,,,,
,,,,,,,,,,,321468,,001,2024-02-16_17h39.09.530,VH_new_version2,2023.2.3,Win32,60.24096386,498.9487,499.9485,,,,,,,,,,,,,,,,,,,,,,,,,,499.9485,500.4487,m,1,0.4838,,500.4487,500.4487,,0,258,258,108,1,109,hayvan,2363,107.3653,1894,0.2071,6,harmonic,1.5,5.030863942,m,w,,,,,,,
,,,,,,,,,,,321468,,001,2024-02-16_17h39.09.530,VH_new_version2,2023.2.3,Win32,60.24096386,500.449,501.4488,,,,,,,,,,,,,,,,,,,,,,,,,,501.4488,502.0323,m,1,0.569,,502.0324,502.0325,,0,259,259,73,1,74,gemi,629,28.5793,544,0.0595,4,harmonic,1.1,4.456051587,m,w,,,,,,,
,,,,,,,,,,,321468,,001,2024-02-16_17h39.09.530,VH_new_version2,2023.2.3,Win32,60.24096386,502.0327,503.0325,,,,,,,,,,,,,,,,,,,,,,,,,,503.0325,503.5991,z,1,0.5507,,503.5992,503.5992,,0,260,260,282,1,283,daketi,,,,,6,notharmonic,1.8,,z,nw,,,,,,,
,,,,,,,,,,,321468,,001,2024-02-16_17h39.09.530,VH_new_version2,2023.2.3,Win32,60.24096386,503.5996,504.5992,,,,,,,,,,,,,,,,,,,,,,,,,,504.5993,505.1159,m,1,0.5089,,505.1159,505.116,,0,261,261,68,1,69,devlet,5766,261.9842,4854,0.5306,6,harmonic,1.65,5.4182751,m,w,,,,,,,
,,,,,,,,,,,321468,,001,2024-02-16_17h39.09.530,VH_new_version2,2023.2.3,Win32,60.24096386,505.1162,506.1156,,,,,,,,,,,,,,,,,,,,,,,,,,506.1157,506.6654,m,1,0.5332,,506.6655,506.6656,,0,262,262,132,1,133,abla,1287,58.4762,1156,0.1264,4,harmonic,1,4.766979143,m,w,,,,,,,
,,,,,,,,,,,321468,,001,2024-02-16_17h39.09.530,VH_new_version2,2023.2.3,Win32,60.24096386,506.6659,507.6657,,,,,,,,,,,,,,,,,,,,,,,,,,507.6657,508.2331,z,1,0.5584,,508.2331,508.2331,,0,263,263,173,1,174,pirbe,,,,,5,harmonic,1.9,,z,nw,,,,,,,
,,,,,,,,,,,321468,,001,2024-02-16_17h39.09.530,VH_new_version2,2023.2.3,Win32,60.24096386,508.2335,509.2334,,,,,,,,,,,,,,,,,,,,,,,,,,509.2334,509.8331,z,1,0.5835,,509.8331,509.8332,,0,264,264,177,1,178,akapı,,,,,5,harmonic,1.8,,z,nw,,,,,,,
,,,,,,,,,,,321468,,001,2024-02-16_17h39.09.530,VH_new_version2,2023.2.3,Win32,60.24096386,509.8334,510.8327,,,,,,,,,,,,,,,,,,,,,,,,,,510.8327,511.3829,z,1,0.54,,511.3829,511.3829,,0,265,265,230,1,231,asez,,,,,4,notharmonic,1.9,,z,nw,,,,,,,
,,,,,,,,,,,321468,,001,2024-02-16_17h39.09.530,VH_new_version2,2023.2.3,Win32,60.24096386,511.3833,512.3829,,,,,,,,,,,,,,,,,,,,,,,,,,512.3829,512.9005,m,1,0.4969,,512.9005,512.9007,,0,266,266,112,1,113,kelime,2185,99.2777,1971,0.2155,6,harmonic,1.25,4.996851707,m,w,,,,,,,
,,,,,,,,,,,321468,,001,2024-02-16_17h39.09.530,VH_new_version2,2023.2.3,Win32,60.24096386,512.901,513.9008,,,,,,,,,,,,,,,,,,,,,,,,,,513.9008,514.4343,z,1,0.5141,,514.4344,514.4344,,0,267,267,142,1,143,öbeh,,,,,4,harmonic,1.95,,z,nw,,,,,,,
,,,,,,,,,,,321468,,001,2024-02-16_17h39.09.530,VH_new_version2,2023.2.3,Win32,60.24096386,514.4346,515.4344,,,,,,,,,,,,,,,,,,,,,,,,,,515.4344,516.0171,z,1,0.5745,,516.0172,516.0172,,0,268,268,193,1,194,hatrak,,,,,6,harmonic,1.95,,z,nw,,,,,,,
,,,,,,,,,,,321468,,001,2024-02-16_17h39.09.530,VH_new_version2,2023.2.3,Win32,60.24096386,516.0175,517.0176,,,,,,,,,,,,,,,,,,,,,,,,,,517.0176,517.5014,z,1,0.4704,,517.5014,517.5015,,0,269,269,145,1,146,oyoz,,,,,4,harmonic,1.9,,z,nw,,,,,,,
,,,,,,,,,,,321468,,001,2024-02-16_17h39.09.530,VH_new_version2,2023.2.3,Win32,60.24096386,517.5017,518.5016,,,,,,,,,,,,,,,,,,,,,,,,,,518.5016,519.2009,z,1,0.6881,,519.2009,519.2009,,0,270,270,215,1,216,zali,,,,,4,notharmonic,1.25,,z,nw,,,,,,,
,,,,,,,,,,,321468,,001,2024-02-16_17h39.09.530,VH_new_version2,2023.2.3,Win32,60.24096386,519.2014,520.201,,,,,,,,,,,,,,,,,,,,,,,,,,520.201,520.8015,m,0,0.5919,,520.8015,520.8016,,0,271,271,194,1,195,bufsay,,,,,6,harmonic,2.6,,z,nw,,,,,,,
,,,,,,,,,,,321468,,001,2024-02-16_17h39.09.530,VH_new_version2,2023.2.3,Win32,60.24096386,520.8019,521.8019,,,,,,,,,,,,,,,,,,,,,,,,,,521.802,522.3354,m,1,0.5136,,522.3354,522.3355,,0,272,272,133,1,134,parmak,1268,57.6129,1165,0.1274,6,harmonic,1.75,4.760519736,m,w,,,,,,,
,,,,,,,,,,,321468,,001,2024-02-16_17h39.09.530,VH_new_version2,2023.2.3,Win32,60.24096386,522.3358,523.3355,,,,,,,,,,,,,,,,,,,,,,,,,,523.3355,523.9525,m,1,0.5975,,523.9525,523.9525,,0,273,273,28,1,29,melek,878,39.8928,773,0.0845,5,harmonic,1.1,4.60089452,m,w,,,,,,,
,,,,,,,,,,,321468,,001,2024-02-16_17h39.09.530,VH_new_version2,2023.2.3,Win32,60.24096386,523.9528,524.9525,,,,,,,,,,,,,,,,,,,,,,,,,,524.9526,525.4189,m,1,0.4481,,525.4189,525.419,,0,274,274,0,1,1,ödev,191,8.6783,175,0.0191,4,harmonic,1.6,3.938434659,m,w,,,,,,,
,,,,,,,,,,,321468,,001,2024-02-16_17h39.09.530,VH_new_version2,2023.2.3,Win32,60.24096386,525.4193,526.4188,,,,,,,,,,,,,,,,,,,,,,,,,,526.4189,526.9522,m,1,0.52,,526.9522,526.9522,,0,275,275,43,1,44,bilgi,5981,271.7529,5353,0.5852,5,harmonic,1.5,5.434174187,m,w,,,,,,,
,,,,,,,,,,,321468,,001,2024-02-16_17h39.09.530,VH_new_version2,2023.2.3,Win32,60.24096386,526.9524,527.9529,,,,,,,,,,,,,,,,,,,,,,,,,,527.9529,528.5528,z,1,0.5864,,528.5528,528.5529,,0,276,276,189,1,190,genek,,,,,5,harmonic,1.6,,z,nw,,,,,,,
,,,,,,,,,,,321468,,001,2024-02-16_17h39.09.530,VH_new_version2,2023.2.3,Win32,60.24096386,528.5531,529.553,,,,,,,,,,,,,,,,,,,,,,,,,,529.5531,530.2199,z,1,0.6481,,530.2199,530.2201,,0,277,277,238,1,239,labin,,,,,5,notharmonic,1.65,,z,nw,,,,,,,
,,,,,,,,,,,321468,,001,2024-02-16_17h39.09.530,VH_new_version2,2023.2.3,Win32,60.24096386,530.2204,531.2201,,,,,,,,,,,,,,,,,,,,,,,,,,531.2202,531.737,m,1,0.505,,531.737,531.737,,0,278,278,37,1,38,cümle,1911,86.8283,1765,0.193,5,harmonic,1.85,4.938661298,m,w,,,,,,,
,,,,,,,,,,,321468,,001,2024-02-16_17h39.09.530,VH_new_version2,2023.2.3,Win32,60.24096386,531.7372,532.737,,,,,,,,,,,,,,,,,,,,,,,,,,532.737,533.2201,m,1,0.4742,,533.2201,533.2202,,0,279,279,55,1,56,zeytin,904,41.0742,758,0.0829,6,harmonic,1.85,4.613569113,m,w,,,,,,,
,,,,,,,,,,,321468,,001,2024-02-16_17h39.09.530,VH_new_version2,2023.2.3,Win32,60.24096386,533.2205,534.2205,,,,,,,,,,,,,,,,,,,,,,,,,,534.2205,534.7206,z,1,0.4847,,534.7206,534.7208,,0,280,280,249,1,250,sisaj,,,,,5,notharmonic,2,,z,nw,,,,,,,
,,,,,,,,,,,321468,,001,2024-02-16_17h39.09.530,VH_new_version2,2023.2.3,Win32,60.24096386,534.721,535.7209,,,,,,,,,,,,,,,,,,,,,,,,,,535.7209,536.2372,z,1,0.508,,536.2373,536.2373,,0,281,281,191,1,192,pedrek,,,,,6,harmonic,2,,z,nw,,,,,,,
,,,,,,,,,,,321468,,001,2024-02-16_17h39.09.530,VH_new_version2,2023.2.3,Win32,60.24096386,536.2376,537.2377,,,,,,,,,,,,,,,,,,,,,,,,,,537.2378,537.7376,m,1,0.481,,537.7377,537.7377,,0,282,282,125,1,126,bardak,1728,78.5135,1569,0.1715,6,harmonic,1.6,4.894944338,m,w,,,,,,,
,,,,,,,,,,,321468,,001,2024-02-16_17h39.09.530,VH_new_version2,2023.2.3,Win32,60.24096386,537.738,538.7378,,,,,,,,,,,,,,,,,,,,,,,,,,538.7378,539.2211,m,1,0.4649,,539.2211,542.2218,space,0,283,283,27,1,28,sekiz,872,39.6202,803,0.0878,5,harmonic,1.45,4.597916663,m,w,2.9844,,,,,,
,,,,,,,,,,,321468,,001,2024-02-16_17h39.09.530,VH_new_version2,2023.2.3,Win32,60.24096386,,,,,,,,,,,,,,,,,,,,,,,,,,,,,,,,,,,,,,,,,,,,,,,,,,,,,,,,542.2285,546.823,space,4.5832,