welcome.started,welcome.stopped,key_resp_welc.keys,key_resp_welc.rt,key_resp_welc.duration,trials_2.thisRepN,trials_2.thisTrialN,trials_2.thisN,trials_2.thisIndex,trials_2.ran,Introduction,participant,Email Adresiniz,session,date,expName,psychopyVersion,OS,frameRate,fix.started,fix.stopped,Studypractice.started,Studypractice.stopped,key_resp_p.keys,key_resp_p.corr,key_resp_p.rt,key_resp_p.duration,rt,corr,FB.started,FB.stopped,trials.thisRepN,trials.thisTrialN,trials.thisN,trials.thisIndex,trials.ran,item_nr_p,target_p,isHarmonic_p,target_cond_p,CorrAns_p,inst2.started,inst2.stopped,key_resp_xx.keys,key_resp_xx.rt,key_resp_xx.duration,TestTrial.started,TestTrial.stopped,key_respTest.keys,key_respTest.corr,key_respTest.rt,key_respTest.duration,Pause.started,Pause.stopped,key_resp_pause.keys,trials_3.thisRepN,trials_3.thisTrialN,trials_3.thisN,trials_3.thisIndex,trials_3.ran,item_nr,target,BlogFreq,BlogFreqPm,BlogCD,BlogCDPc,WordLength,isHarmonic,old20,Zipf,CorrAns,word_cond,key_resp_pause.rt,key_resp_pause.duration,Bye.started,Bye.stopped,key_resp_bye.keys,key_resp_bye.rt,key_resp_bye.duration
0.0311,3.4268,space,3.3848,,0,0,0,0,1,"Deneye hoş geldiniz,

Devam etmek için BOŞLUK tuşuna basınız.",525303,,001,2024-02-16_21h37.26.045,VH_new_version2,2023.2.3,Win32,59.88023952,,,,,,,,,,,,,,,,,,,,,,,,,,,,,,,,,,,,,,,,,,,,,,,,,,,,,,,,,,,,
3.4283,10.7948,space,7.3543,,0,1,1,1,1,"Bu çalışma Valencia Üniversitesi kapsamında yürütülmektedir. Deneydeki göreviniz, ekrana çıkacak Türkçe sözcüklerin kelime olup olmadığını belirlemenizdir. Eğer sözcük gerçek bir kelime ise ""m"" tuşuna, değil ise ""z"" tuşuna basınız.   

Devam etmek için BOŞLUK tuşuna basınız.",525303,,001,2024-02-16_21h37.26.045,VH_new_version2,2023.2.3,Win32,59.88023952,,,,,,,,,,,,,,,,,,,,,,,,,,,,,,,,,,,,,,,,,,,,,,,,,,,,,,,,,,,,
10.8064,19.211,space,8.3947,,0,2,2,2,1,"Her sözcük için en fazla iki saniyede cevap vermeniz beklenmektedir. Aksi takdirde deney bir sonraki sözcük ile devam eder. 
Bu çalışmada oldukça hızlı ve doğru cevaplama yapmanız beklenmektedir.

Devam etmek için BOŞLUK tuşuna basınız.",525303,,001,2024-02-16_21h37.26.045,VH_new_version2,2023.2.3,Win32,59.88023952,,,,,,,,,,,,,,,,,,,,,,,,,,,,,,,,,,,,,,,,,,,,,,,,,,,,,,,,,,,,
19.2231,24.9095,space,5.6775,,0,3,3,3,1,"Çalışmaya başlamadan önce ufak bir pratik yer almaktadır.
Kelimedir: ""m""
Kelime değildir: ""z""

Pratik teste başlamak için BOŞLUK tuşuna basınız. ",525303,,001,2024-02-16_21h37.26.045,VH_new_version2,2023.2.3,Win32,59.88023952,,,,,,,,,,,,,,,,,,,,,,,,,,,,,,,,,,,,,,,,,,,,,,,,,,,,,,,,,,,,
,,,,,,,,,,,525303,,001,2024-02-16_21h37.26.045,VH_new_version2,2023.2.3,Win32,59.88023952,24.9362,25.9244,25.9245,26.2744,z,0,0.329,,0.329,0,26.2746,27.2742,0,0,0,6,1,7,sebep,harmonic,word,m,,,,,,,,,,,,,,,,,,,,,,,,,,,,,,,,,,,,,,
,,,,,,,,,,,525303,,001,2024-02-16_21h37.26.045,VH_new_version2,2023.2.3,Win32,59.88023952,27.2748,28.2738,28.2739,28.9739,m,0,0.6829,,0.6829,0,28.974,29.9737,0,1,1,22,1,23,gizım,notharmonic,nw,z,,,,,,,,,,,,,,,,,,,,,,,,,,,,,,,,,,,,,,
,,,,,,,,,,,525303,,001,2024-02-16_21h37.26.045,VH_new_version2,2023.2.3,Win32,59.88023952,29.9741,30.9737,30.9737,31.5403,m,1,0.5481,,0.5481,1,31.5403,32.5402,0,2,2,1,1,2,veri,harmonic,word,m,,,,,,,,,,,,,,,,,,,,,,,,,,,,,,,,,,,,,,
,,,,,,,,,,,525303,,001,2024-02-16_21h37.26.045,VH_new_version2,2023.2.3,Win32,59.88023952,32.5406,33.5402,33.5403,33.7235,z,0,0.1754,,0.1754,0,33.7235,34.7234,0,3,3,0,1,1,hazır,harmonic,word,m,,,,,,,,,,,,,,,,,,,,,,,,,,,,,,,,,,,,,,
,,,,,,,,,,,525303,,001,2024-02-16_21h37.26.045,VH_new_version2,2023.2.3,Win32,59.88023952,34.7238,35.7232,35.7232,36.2567,m,0,0.5138,,0.5138,0,36.2567,37.2565,0,4,4,20,1,21,yoğuk,harmonic,nw,z,,,,,,,,,,,,,,,,,,,,,,,,,,,,,,,,,,,,,,
,,,,,,,,,,,525303,,001,2024-02-16_21h37.26.045,VH_new_version2,2023.2.3,Win32,59.88023952,37.257,38.2565,38.2565,39.6729,z,1,1.4013,,1.4013,1,39.673,40.6731,0,5,5,15,1,16,geki,harmonic,nw,z,,,,,,,,,,,,,,,,,,,,,,,,,,,,,,,,,,,,,,
,,,,,,,,,,,525303,,001,2024-02-16_21h37.26.045,VH_new_version2,2023.2.3,Win32,59.88023952,40.6735,41.6728,41.6729,42.2728,m,1,0.594,,0.594,1,42.273,43.2729,0,6,6,7,1,8,oran,harmonic,word,m,,,,,,,,,,,,,,,,,,,,,,,,,,,,,,,,,,,,,,
,,,,,,,,,,,525303,,001,2024-02-16_21h37.26.045,VH_new_version2,2023.2.3,Win32,59.88023952,43.2732,44.2727,44.2727,45.0225,z,1,0.7392,,0.7392,1,45.0226,46.0225,0,7,7,13,1,14,orat,harmonic,nw,z,,,,,,,,,,,,,,,,,,,,,,,,,,,,,,,,,,,,,,
,,,,,,,,,,,525303,,001,2024-02-16_21h37.26.045,VH_new_version2,2023.2.3,Win32,59.88023952,46.0229,47.0225,47.0225,47.5224,m,1,0.4902,,0.4902,1,47.5224,48.5224,0,8,8,3,1,4,sevgi,harmonic,word,m,,,,,,,,,,,,,,,,,,,,,,,,,,,,,,,,,,,,,,
,,,,,,,,,,,525303,,001,2024-02-16_21h37.26.045,VH_new_version2,2023.2.3,Win32,59.88023952,48.5228,49.5223,49.5223,50.3721,z,1,0.8383,,0.8383,1,50.3721,51.3722,0,9,9,18,1,19,pimer,harmonic,nw,z,,,,,,,,,,,,,,,,,,,,,,,,,,,,,,,,,,,,,,
,,,,,,,,,,,525303,,001,2024-02-16_21h37.26.045,VH_new_version2,2023.2.3,Win32,59.88023952,51.3725,52.372,52.3721,52.8887,m,1,0.4996,,0.4996,1,52.8887,53.8886,0,10,10,4,1,5,soğuk,harmonic,word,m,,,,,,,,,,,,,,,,,,,,,,,,,,,,,,,,,,,,,,
,,,,,,,,,,,525303,,001,2024-02-16_21h37.26.045,VH_new_version2,2023.2.3,Win32,59.88023952,53.889,54.8885,54.8886,55.4051,m,1,0.5016,,0.5016,1,55.4051,56.4051,0,11,11,10,1,11,nefret,harmonic,word,m,,,,,,,,,,,,,,,,,,,,,,,,,,,,,,,,,,,,,,
,,,,,,,,,,,525303,,001,2024-02-16_21h37.26.045,VH_new_version2,2023.2.3,Win32,59.88023952,56.4055,57.405,57.405,57.855,m,1,0.4361,,0.4361,1,57.855,58.8549,0,12,12,5,1,6,gizli,harmonic,word,m,,,,,,,,,,,,,,,,,,,,,,,,,,,,,,,,,,,,,,
,,,,,,,,,,,525303,,001,2024-02-16_21h37.26.045,VH_new_version2,2023.2.3,Win32,59.88023952,58.8553,59.8549,59.8549,60.4713,z,1,0.6034,,0.6034,1,60.4713,61.4714,0,13,13,16,1,17,ihlot,notharmonic,nw,z,,,,,,,,,,,,,,,,,,,,,,,,,,,,,,,,,,,,,,
,,,,,,,,,,,525303,,001,2024-02-16_21h37.26.045,VH_new_version2,2023.2.3,Win32,59.88023952,61.4717,62.4713,62.4714,63.1379,m,0,0.6476,,0.6476,0,63.1379,64.1378,0,14,14,12,1,13,tahip,notharmonic,nw,z,,,,,,,,,,,,,,,,,,,,,,,,,,,,,,,,,,,,,,
,,,,,,,,,,,525303,,001,2024-02-16_21h37.26.045,VH_new_version2,2023.2.3,Win32,59.88023952,64.1383,65.1378,65.1378,65.871,z,1,0.717,,0.717,1,65.8711,66.871,0,15,15,17,1,18,pilar,notharmonic,nw,z,,,,,,,,,,,,,,,,,,,,,,,,,,,,,,,,,,,,,,
,,,,,,,,,,,525303,,001,2024-02-16_21h37.26.045,VH_new_version2,2023.2.3,Win32,59.88023952,66.8713,67.8711,67.8711,68.4375,m,1,0.5496,,0.5496,1,68.4375,69.4374,0,16,16,11,1,12,teslim,harmonic,word,m,,,,,,,,,,,,,,,,,,,,,,,,,,,,,,,,,,,,,,
,,,,,,,,,,,525303,,001,2024-02-16_21h37.26.045,VH_new_version2,2023.2.3,Win32,59.88023952,69.4378,70.4375,70.4375,70.9374,m,0,0.4804,,0.4804,0,70.9374,71.9372,0,17,17,21,1,22,güçli,harmonic,nw,z,,,,,,,,,,,,,,,,,,,,,,,,,,,,,,,,,,,,,,
,,,,,,,,,,,525303,,001,2024-02-16_21h37.26.045,VH_new_version2,2023.2.3,Win32,59.88023952,71.9375,72.9373,72.9373,73.5203,m,1,0.5682,,0.5682,1,73.5204,74.5203,0,18,18,2,1,3,yardım,harmonic,word,m,,,,,,,,,,,,,,,,,,,,,,,,,,,,,,,,,,,,,,
,,,,,,,,,,,525303,,001,2024-02-16_21h37.26.045,VH_new_version2,2023.2.3,Win32,59.88023952,74.5206,75.5203,75.5203,76.1535,z,1,0.6154,,0.6154,1,76.1536,77.1535,0,19,19,14,1,15,mahne,notharmonic,nw,z,,,,,,,,,,,,,,,,,,,,,,,,,,,,,,,,,,,,,,
,,,,,,,,,,,525303,,001,2024-02-16_21h37.26.045,VH_new_version2,2023.2.3,Win32,59.88023952,77.1539,78.1535,78.1535,78.77,m,1,0.6081,,0.6081,1,78.7701,79.77,0,20,20,9,1,10,zarar,harmonic,word,m,,,,,,,,,,,,,,,,,,,,,,,,,,,,,,,,,,,,,,
,,,,,,,,,,,525303,,001,2024-02-16_21h37.26.045,VH_new_version2,2023.2.3,Win32,59.88023952,79.7704,80.7699,80.7699,81.2698,m,0,0.481,,0.481,0,81.2698,82.2697,0,21,21,23,1,24,zarim,notharmonic,nw,z,,,,,,,,,,,,,,,,,,,,,,,,,,,,,,,,,,,,,,
,,,,,,,,,,,525303,,001,2024-02-16_21h37.26.045,VH_new_version2,2023.2.3,Win32,59.88023952,82.2701,83.2697,83.2697,83.7529,m,1,0.4735,,0.4735,1,83.753,84.753,0,22,22,8,1,9,bilim,harmonic,word,m,,,,,,,,,,,,,,,,,,,,,,,,,,,,,,,,,,,,,,
,,,,,,,,,,,525303,,001,2024-02-16_21h37.26.045,VH_new_version2,2023.2.3,Win32,59.88023952,84.7533,85.7528,85.7529,86.3027,z,1,0.5412,,0.5412,1,86.3028,87.3029,0,23,23,19,1,20,mımal,harmonic,nw,z,,,,,,,,,,,,,,,,,,,,,,,,,,,,,,,,,,,,,,
,,,,,,,,,,,525303,,001,2024-02-16_21h37.26.045,VH_new_version2,2023.2.3,Win32,59.88023952,,,,,,,,,,,,,,,,,,,,,,,87.3035,96.3528,space,9.0293,,,,,,,,,,,,,,,,,,,,,,,,,,,,,,,,,,
,,,,,,,,,,,525303,,001,2024-02-16_21h37.26.045,VH_new_version2,2023.2.3,Win32,59.88023952,96.4365,97.3687,,,,,,,,,,,,,,,,,,,,,,,,,,97.3689,97.8355,m,1,0.4444,,97.8357,97.8374,,0,0,0,84,1,85,eğitim,4784,217.366,3846,0.4204,6,harmonic,1.5,5.337191613,m,w,,,,,,,
,,,,,,,,,,,525303,,001,2024-02-16_21h37.26.045,VH_new_version2,2023.2.3,Win32,59.88023952,97.8379,98.8352,,,,,,,,,,,,,,,,,,,,,,,,,,98.8352,99.3685,m,0,0.5264,,99.3686,99.3686,,0,1,1,280,1,281,icarar,,,,,6,notharmonic,2,,z,nw,,,,,,,
,,,,,,,,,,,525303,,001,2024-02-16_21h37.26.045,VH_new_version2,2023.2.3,Win32,59.88023952,99.3691,100.3683,,,,,,,,,,,,,,,,,,,,,,,,,,100.3684,101.0517,z,1,0.6636,,101.0518,101.0519,,0,2,2,209,1,210,soğkal,,,,,6,harmonic,2.1,,z,nw,,,,,,,
,,,,,,,,,,,525303,,001,2024-02-16_21h37.26.045,VH_new_version2,2023.2.3,Win32,59.88023952,101.0523,102.0516,,,,,,,,,,,,,,,,,,,,,,,,,,102.0517,102.6182,m,1,0.5534,,102.6183,102.6183,,0,3,3,109,1,110,ürün,2268,103.0489,1954,0.2136,4,harmonic,1.1,5.01304336,m,w,,,,,,,
,,,,,,,,,,,525303,,001,2024-02-16_21h37.26.045,VH_new_version2,2023.2.3,Win32,59.88023952,102.6187,103.6182,,,,,,,,,,,,,,,,,,,,,,,,,,103.6182,104.1514,z,0,0.5185,,104.1515,104.1515,,0,4,4,18,1,19,ülke,3121,141.8059,2801,0.3062,4,harmonic,1.65,5.151694301,m,w,,,,,,,
,,,,,,,,,,,525303,,001,2024-02-16_21h37.26.045,VH_new_version2,2023.2.3,Win32,59.88023952,104.1518,105.1514,,,,,,,,,,,,,,,,,,,,,,,,,,105.1514,105.6014,m,1,0.4332,,105.6015,105.6016,,0,5,5,89,1,90,sonuç,3768,171.203,3626,0.3964,5,harmonic,1.8,5.233511371,m,w,,,,,,,
,,,,,,,,,,,525303,,001,2024-02-16_21h37.26.045,VH_new_version2,2023.2.3,Win32,59.88023952,105.602,106.6012,,,,,,,,,,,,,,,,,,,,,,,,,,106.6013,107.1346,m,1,0.5148,,107.1347,107.1348,,0,6,6,40,1,41,temel,4231,192.2399,3851,0.421,5,harmonic,1.55,5.283843532,m,w,,,,,,,
,,,,,,,,,,,525303,,001,2024-02-16_21h37.26.045,VH_new_version2,2023.2.3,Win32,59.88023952,107.1353,108.1345,,,,,,,,,,,,,,,,,,,,,,,,,,108.1346,108.6844,z,1,0.5384,,108.6844,108.6846,,0,7,7,198,1,199,tenlek,,,,,6,harmonic,1.85,,z,nw,,,,,,,
,,,,,,,,,,,525303,,001,2024-02-16_21h37.26.045,VH_new_version2,2023.2.3,Win32,59.88023952,108.6849,109.6844,,,,,,,,,,,,,,,,,,,,,,,,,,109.6844,110.2176,m,1,0.5207,,110.2176,110.2178,,0,8,8,85,1,86,güneş,4371,198.6009,3610,0.3946,5,harmonic,1.7,5.297981212,m,w,,,,,,,
,,,,,,,,,,,525303,,001,2024-02-16_21h37.26.045,VH_new_version2,2023.2.3,Win32,59.88023952,110.2181,111.2177,,,,,,,,,,,,,,,,,,,,,,,,,,111.2177,111.6843,m,1,0.4598,,111.6843,111.6844,,0,9,9,54,1,55,elbise,883,40.12,786,0.0859,6,harmonic,1.9,4.603360924,m,w,,,,,,,
,,,,,,,,,,,525303,,001,2024-02-16_21h37.26.045,VH_new_version2,2023.2.3,Win32,59.88023952,111.6847,112.6842,,,,,,,,,,,,,,,,,,,,,,,,,,112.6842,113.1847,z,1,0.4951,,113.1847,113.1847,,0,10,10,228,1,229,idna,,,,,4,notharmonic,1.8,,z,nw,,,,,,,
,,,,,,,,,,,525303,,001,2024-02-16_21h37.26.045,VH_new_version2,2023.2.3,Win32,59.88023952,113.1852,114.1841,,,,,,,,,,,,,,,,,,,,,,,,,,114.1841,114.5841,m,0,0.3935,,114.5841,114.5843,,0,11,11,223,1,224,mame,,,,,4,notharmonic,1.65,,z,nw,,,,,,,
,,,,,,,,,,,525303,,001,2024-02-16_21h37.26.045,VH_new_version2,2023.2.3,Win32,59.88023952,114.5846,115.584,,,,,,,,,,,,,,,,,,,,,,,,,,115.5841,116.1339,m,1,0.5313,,116.1339,116.1341,,0,12,12,78,1,79,şişe,478,21.7184,440,0.0481,4,harmonic,1.05,4.336827828,m,w,,,,,,,
,,,,,,,,,,,525303,,001,2024-02-16_21h37.26.045,VH_new_version2,2023.2.3,Win32,59.88023952,116.1344,117.1338,,,,,,,,,,,,,,,,,,,,,,,,,,117.1338,117.6171,z,1,0.4727,,117.6171,117.6173,,0,13,13,282,1,283,daketi,,,,,6,notharmonic,1.8,,z,nw,,,,,,,
,,,,,,,,,,,525303,,001,2024-02-16_21h37.26.045,VH_new_version2,2023.2.3,Win32,59.88023952,117.6176,118.617,,,,,,,,,,,,,,,,,,,,,,,,,,118.617,119.1337,m,1,0.4981,,119.1338,119.1338,,0,14,14,99,1,100,altı,2782,126.403,2571,0.2811,4,harmonic,1,5.101757381,m,w,,,,,,,
,,,,,,,,,,,525303,,001,2024-02-16_21h37.26.045,VH_new_version2,2023.2.3,Win32,59.88023952,119.1342,120.1336,,,,,,,,,,,,,,,,,,,,,,,,,,120.1336,120.7335,z,1,0.5847,,120.7335,120.7336,,0,15,15,278,1,279,avalün,,,,,6,notharmonic,2.2,,z,nw,,,,,,,
,,,,,,,,,,,525303,,001,2024-02-16_21h37.26.045,VH_new_version2,2023.2.3,Win32,59.88023952,120.734,121.7336,,,,,,,,,,,,,,,,,,,,,,,,,,121.7337,122.1834,m,1,0.4414,,122.1834,122.1835,,0,16,16,36,1,37,gönül,1786,81.1488,1676,0.1832,5,harmonic,1.8,4.909282102,m,w,,,,,,,
,,,,,,,,,,,525303,,001,2024-02-16_21h37.26.045,VH_new_version2,2023.2.3,Win32,59.88023952,122.1838,123.1834,,,,,,,,,,,,,,,,,,,,,,,,,,123.1834,123.5834,m,1,0.3816,,123.5835,123.5835,,0,17,17,59,1,60,zengin,2193,99.6412,2015,0.2203,6,harmonic,1.65,4.998438949,m,w,,,,,,,
,,,,,,,,,,,525303,,001,2024-02-16_21h37.26.045,VH_new_version2,2023.2.3,Win32,59.88023952,123.5839,124.5833,,,,,,,,,,,,,,,,,,,,,,,,,,124.5834,125.0833,z,0,0.4925,,125.0833,125.0834,,0,18,18,134,1,135,araç,1182,53.7054,1050,0.1148,4,harmonic,1.25,4.730017956,m,w,,,,,,,
,,,,,,,,,,,525303,,001,2024-02-16_21h37.26.045,VH_new_version2,2023.2.3,Win32,59.88023952,125.0837,126.0831,,,,,,,,,,,,,,,,,,,,,,,,,,126.0831,126.4999,m,1,0.3992,,126.4999,126.4999,,0,19,19,83,1,84,şafak,616,27.9886,521,0.057,5,harmonic,1.8,4.446981175,m,w,,,,,,,
,,,,,,,,,,,525303,,001,2024-02-16_21h37.26.045,VH_new_version2,2023.2.3,Win32,59.88023952,126.5003,127.4998,,,,,,,,,,,,,,,,,,,,,,,,,,127.4998,127.9829,m,1,0.473,,127.983,127.9831,,0,20,20,57,1,58,bayram,1948,88.5094,1648,0.1802,6,harmonic,1.85,4.946989397,m,w,,,,,,,
,,,,,,,,,,,525303,,001,2024-02-16_21h37.26.045,VH_new_version2,2023.2.3,Win32,59.88023952,127.9835,128.9829,,,,,,,,,,,,,,,,,,,,,,,,,,128.983,129.583,m,1,0.5925,,129.583,129.5831,,0,21,21,1,1,2,ufuk,437,19.8555,403,0.0441,4,harmonic,1.85,4.297880828,m,w,,,,,,,
,,,,,,,,,,,525303,,001,2024-02-16_21h37.26.045,VH_new_version2,2023.2.3,Win32,59.88023952,129.5836,130.5829,,,,,,,,,,,,,,,,,,,,,,,,,,130.5829,131.0993,z,1,0.5065,,131.0994,131.0994,,0,22,22,252,1,253,canit,,,,,5,notharmonic,1.8,,z,nw,,,,,,,
,,,,,,,,,,,525303,,001,2024-02-16_21h37.26.045,VH_new_version2,2023.2.3,Win32,59.88023952,131.0997,132.0994,,,,,,,,,,,,,,,,,,,,,,,,,,132.0995,132.7494,z,1,0.633,,132.7494,132.7495,,0,23,23,194,1,195,bufsay,,,,,6,harmonic,2.6,,z,nw,,,,,,,
,,,,,,,,,,,525303,,001,2024-02-16_21h37.26.045,VH_new_version2,2023.2.3,Win32,59.88023952,132.7498,133.7493,,,,,,,,,,,,,,,,,,,,,,,,,,133.7494,134.2327,m,1,0.4638,,134.2327,134.2328,,0,24,24,108,1,109,hayvan,2363,107.3653,1894,0.2071,6,harmonic,1.5,5.030863942,m,w,,,,,,,
,,,,,,,,,,,525303,,001,2024-02-16_21h37.26.045,VH_new_version2,2023.2.3,Win32,59.88023952,134.2334,135.2325,,,,,,,,,,,,,,,,,,,,,,,,,,135.2325,135.699,m,1,0.4586,,135.699,135.6991,,0,25,25,112,1,113,kelime,2185,99.2777,1971,0.2155,6,harmonic,1.25,4.996851707,m,w,,,,,,,
,,,,,,,,,,,525303,,001,2024-02-16_21h37.26.045,VH_new_version2,2023.2.3,Win32,59.88023952,135.6994,136.699,,,,,,,,,,,,,,,,,,,,,,,,,,136.6991,137.0656,m,0,0.357,,137.0657,137.0657,,0,26,26,177,1,178,akapı,,,,,5,harmonic,1.8,,z,nw,,,,,,,
,,,,,,,,,,,525303,,001,2024-02-16_21h37.26.045,VH_new_version2,2023.2.3,Win32,59.88023952,137.0662,138.0657,,,,,,,,,,,,,,,,,,,,,,,,,,138.0657,138.5823,m,1,0.4992,,138.5823,138.5825,,0,27,27,0,1,1,ödev,191,8.6783,175,0.0191,4,harmonic,1.6,3.938434659,m,w,,,,,,,
,,,,,,,,,,,525303,,001,2024-02-16_21h37.26.045,VH_new_version2,2023.2.3,Win32,59.88023952,138.5829,139.5822,,,,,,,,,,,,,,,,,,,,,,,,,,139.5822,140.1988,z,1,0.5983,,140.1988,140.1989,,0,28,28,283,1,284,dimdat,,,,,6,notharmonic,2.05,,z,nw,,,,,,,
,,,,,,,,,,,525303,,001,2024-02-16_21h37.26.045,VH_new_version2,2023.2.3,Win32,59.88023952,140.1993,141.1986,,,,,,,,,,,,,,,,,,,,,,,,,,141.1987,141.7154,m,0,0.4969,,141.7154,141.7155,,0,29,29,238,1,239,labin,,,,,5,notharmonic,1.65,,z,nw,,,,,,,
,,,,,,,,,,,525303,,001,2024-02-16_21h37.26.045,VH_new_version2,2023.2.3,Win32,59.88023952,141.7158,142.7152,,,,,,,,,,,,,,,,,,,,,,,,,,142.7152,143.5652,z,1,0.8379,,143.5653,143.5653,,0,30,30,275,1,276,teşbuz,,,,,6,notharmonic,2.75,,z,nw,,,,,,,
,,,,,,,,,,,525303,,001,2024-02-16_21h37.26.045,VH_new_version2,2023.2.3,Win32,59.88023952,143.5657,144.5651,,,,,,,,,,,,,,,,,,,,,,,,,,144.5652,145.3151,z,1,0.7327,,145.3151,145.3151,,0,31,31,279,1,280,tevaha,,,,,6,notharmonic,2,,z,nw,,,,,,,
,,,,,,,,,,,525303,,001,2024-02-16_21h37.26.045,VH_new_version2,2023.2.3,Win32,59.88023952,145.3157,146.3149,,,,,,,,,,,,,,,,,,,,,,,,,,146.315,146.8482,m,0,0.5228,,146.8482,146.8483,,0,32,32,221,1,222,mane,,,,,4,notharmonic,1.4,,z,nw,,,,,,,
,,,,,,,,,,,525303,,001,2024-02-16_21h37.26.045,VH_new_version2,2023.2.3,Win32,59.88023952,146.8486,147.8482,,,,,,,,,,,,,,,,,,,,,,,,,,147.8483,148.3982,m,1,0.5304,,148.3982,148.3982,,0,33,33,61,1,62,yağmur,2491,113.1812,2156,0.2357,6,harmonic,1.9,5.053774294,m,w,,,,,,,
,,,,,,,,,,,525303,,001,2024-02-16_21h37.26.045,VH_new_version2,2023.2.3,Win32,59.88023952,148.3987,149.3981,,,,,,,,,,,,,,,,,,,,,,,,,,149.3982,150.0314,m,1,0.6212,,150.0314,150.0315,,0,34,34,2,1,3,iğne,515,23.3996,455,0.0497,4,harmonic,1.65,4.369208434,m,w,,,,,,,
,,,,,,,,,,,525303,,001,2024-02-16_21h37.26.045,VH_new_version2,2023.2.3,Win32,59.88023952,150.032,151.0313,,,,,,,,,,,,,,,,,,,,,,,,,,151.0313,151.4813,m,1,0.4304,,151.4813,151.4814,,0,35,35,25,1,26,orman,819,37.2121,705,0.0771,5,harmonic,1.3,4.570684179,m,w,,,,,,,
,,,,,,,,,,,525303,,001,2024-02-16_21h37.26.045,VH_new_version2,2023.2.3,Win32,59.88023952,151.4818,152.4811,,,,,,,,,,,,,,,,,,,,,,,,,,152.4812,152.8978,m,1,0.3991,,152.8978,152.898,,0,36,36,96,1,97,şehir,2981,135.4448,2608,0.2851,5,harmonic,1.75,5.131762336,m,w,,,,,,,
,,,,,,,,,,,525303,,001,2024-02-16_21h37.26.045,VH_new_version2,2023.2.3,Win32,59.88023952,152.8983,153.8978,,,,,,,,,,,,,,,,,,,,,,,,,,153.8978,154.3642,m,1,0.453,,154.3643,154.3643,,0,37,37,93,1,94,olay,3415,155.1641,3179,0.3475,4,harmonic,1.5,5.190791247,m,w,,,,,,,
,,,,,,,,,,,525303,,001,2024-02-16_21h37.26.045,VH_new_version2,2023.2.3,Win32,59.88023952,154.3647,155.3643,,,,,,,,,,,,,,,,,,,,,,,,,,155.3643,155.7142,m,0,0.3372,,155.7142,155.7143,,0,38,38,261,1,262,eksan,,,,,5,notharmonic,1.7,,z,nw,,,,,,,
,,,,,,,,,,,525303,,001,2024-02-16_21h37.26.045,VH_new_version2,2023.2.3,Win32,59.88023952,155.7146,156.7141,,,,,,,,,,,,,,,,,,,,,,,,,,156.7143,157.5473,z,1,0.8208,,157.5473,157.5474,,0,39,39,176,1,177,çırna,,,,,5,harmonic,1.85,,z,nw,,,,,,,
,,,,,,,,,,,525303,,001,2024-02-16_21h37.26.045,VH_new_version2,2023.2.3,Win32,59.88023952,157.5478,158.5474,,,,,,,,,,,,,,,,,,,,,,,,,,158.5474,159.0306,m,0,0.4697,,159.0307,159.0308,,0,40,40,270,1,271,meşkup,,,,,6,notharmonic,1.95,,z,nw,,,,,,,
,,,,,,,,,,,525303,,001,2024-02-16_21h37.26.045,VH_new_version2,2023.2.3,Win32,59.88023952,159.0312,160.0309,,,,,,,,,,,,,,,,,,,,,,,,,,160.031,160.5304,m,1,0.4891,,160.5305,160.5305,,0,41,41,106,1,107,altın,2385,108.3649,2017,0.2205,5,harmonic,1,5.034888635,m,w,,,,,,,
,,,,,,,,,,,525303,,001,2024-02-16_21h37.26.045,VH_new_version2,2023.2.3,Win32,59.88023952,160.5309,161.5305,,,,,,,,,,,,,,,,,,,,,,,,,,161.5305,162.2138,z,1,0.6772,,162.2138,162.2138,,0,42,42,172,1,173,çatuk,,,,,5,harmonic,1.8,,z,nw,,,,,,,
,,,,,,,,,,,525303,,001,2024-02-16_21h37.26.045,VH_new_version2,2023.2.3,Win32,59.88023952,162.2142,163.2137,,,,,,,,,,,,,,,,,,,,,,,,,,163.2137,163.9636,z,1,0.7411,,163.9637,163.9637,,0,43,43,149,1,150,irgi,,,,,4,harmonic,1.8,,z,nw,,,,,,,
,,,,,,,,,,,525303,,001,2024-02-16_21h37.26.045,VH_new_version2,2023.2.3,Win32,59.88023952,163.964,164.9635,,,,,,,,,,,,,,,,,,,,,,,,,,164.9637,165.3967,m,1,0.4228,,165.3968,165.3969,,0,44,44,3,1,4,otuz,583,26.4892,556,0.0608,4,harmonic,1.45,4.423068842,m,w,,,,,,,
,,,,,,,,,,,525303,,001,2024-02-16_21h37.26.045,VH_new_version2,2023.2.3,Win32,59.88023952,165.3972,166.3968,,,,,,,,,,,,,,,,,,,,,,,,,,166.3968,166.8301,m,1,0.4265,,166.8301,166.8301,,0,45,45,43,1,44,bilgi,5981,271.7529,5353,0.5852,5,harmonic,1.5,5.434174187,m,w,,,,,,,
,,,,,,,,,,,525303,,001,2024-02-16_21h37.26.045,VH_new_version2,2023.2.3,Win32,59.88023952,166.8305,167.8301,,,,,,,,,,,,,,,,,,,,,,,,,,167.8301,168.3466,z,1,0.4991,,168.3467,168.3468,,0,46,46,159,1,160,daro,,,,,4,harmonic,1.7,,z,nw,,,,,,,
,,,,,,,,,,,525303,,001,2024-02-16_21h37.26.045,VH_new_version2,2023.2.3,Win32,59.88023952,168.3473,169.3465,,,,,,,,,,,,,,,,,,,,,,,,,,169.3465,170.3631,m,0,0.9974,,170.3632,170.3632,,0,47,47,215,1,216,zali,,,,,4,notharmonic,1.25,,z,nw,,,,,,,
,,,,,,,,,,,525303,,001,2024-02-16_21h37.26.045,VH_new_version2,2023.2.3,Win32,59.88023952,170.3635,171.3631,,,,,,,,,,,,,,,,,,,,,,,,,,171.3632,171.8463,z,0,0.4728,,171.8463,171.8464,,0,48,48,5,1,6,üzüm,716,32.5322,588,0.0643,4,harmonic,1.45,4.512313434,m,w,,,,,,,
,,,,,,,,,,,525303,,001,2024-02-16_21h37.26.045,VH_new_version2,2023.2.3,Win32,59.88023952,171.8467,172.8463,,,,,,,,,,,,,,,,,,,,,,,,,,172.8463,173.2963,m,1,0.4308,,173.2963,173.2963,,0,49,49,121,1,122,usta,1823,82.8299,1478,0.1616,4,harmonic,1.5,4.918187137,m,w,,,,,,,
,,,,,,,,,,,525303,,001,2024-02-16_21h37.26.045,VH_new_version2,2023.2.3,Win32,59.88023952,173.2967,174.2962,,,,,,,,,,,,,,,,,,,,,,,,,,174.2962,174.6628,m,0,0.3543,,174.6628,174.6629,,0,50,50,231,1,232,babi,,,,,4,notharmonic,1.4,,z,nw,,,,,,,
,,,,,,,,,,,525303,,001,2024-02-16_21h37.26.045,VH_new_version2,2023.2.3,Win32,59.88023952,174.6632,175.6628,,,,,,,,,,,,,,,,,,,,,,,,,,175.6628,177.0292,z,1,1.3516,,177.0293,177.0294,,0,51,51,267,1,268,tapare,,,,,6,notharmonic,1.95,,z,nw,,,,,,,
,,,,,,,,,,,525303,,001,2024-02-16_21h37.26.045,VH_new_version2,2023.2.3,Win32,59.88023952,177.0297,178.0292,,,,,,,,,,,,,,,,,,,,,,,,,,178.0293,178.7791,m,0,0.7393,,178.7791,178.7792,,0,52,52,273,1,274,kalkeş,,,,,6,notharmonic,1.85,,z,nw,,,,,,,
,,,,,,,,,,,525303,,001,2024-02-16_21h37.26.045,VH_new_version2,2023.2.3,Win32,59.88023952,178.7795,179.7791,,,,,,,,,,,,,,,,,,,,,,,,,,179.7791,180.529,z,1,0.7331,,180.5291,180.5292,,0,53,53,246,1,247,masil,,,,,5,notharmonic,1.7,,z,nw,,,,,,,
,,,,,,,,,,,525303,,001,2024-02-16_21h37.26.045,VH_new_version2,2023.2.3,Win32,59.88023952,180.5295,181.5291,,,,,,,,,,,,,,,,,,,,,,,,,,181.5291,182.0289,m,0,0.4881,,182.0289,182.029,,0,54,54,174,1,175,güzeh,,,,,5,harmonic,1.85,,z,nw,,,,,,,
,,,,,,,,,,,525303,,001,2024-02-16_21h37.26.045,VH_new_version2,2023.2.3,Win32,59.88023952,182.0293,183.0289,,,,,,,,,,,,,,,,,,,,,,,,,,183.0289,183.6788,m,1,0.6365,,183.6788,183.6789,,0,55,55,66,1,67,tercih,4577,207.9607,4282,0.4681,6,harmonic,1.7,5.317981271,m,w,,,,,,,
,,,,,,,,,,,525303,,001,2024-02-16_21h37.26.045,VH_new_version2,2023.2.3,Win32,59.88023952,183.6792,184.6787,,,,,,,,,,,,,,,,,,,,,,,,,,184.6787,185.5952,z,1,0.9076,,185.5952,185.5953,,0,56,56,197,1,198,zemkin,,,,,6,harmonic,1.85,,z,nw,,,,,,,
,,,,,,,,,,,525303,,001,2024-02-16_21h37.26.045,VH_new_version2,2023.2.3,Win32,59.88023952,185.5957,186.5952,,,,,,,,,,,,,,,,,,,,,,,,,,186.5953,187.1452,m,1,0.5411,,187.1452,187.1453,,0,57,57,119,1,120,cuma,1941,88.1913,1774,0.1939,4,harmonic,1.3,4.945425744,m,w,,,,,,,
,,,,,,,,,,,525303,,001,2024-02-16_21h37.26.045,VH_new_version2,2023.2.3,Win32,59.88023952,187.1457,188.1452,,,,,,,,,,,,,,,,,,,,,,,,,,188.1452,188.8286,m,1,0.6777,,188.8286,188.8287,,0,58,58,44,1,45,erkek,6188,281.1582,5195,0.5679,5,harmonic,1.55,5.448950754,m,w,,,,,,,
,,,,,,,,,,,525303,,001,2024-02-16_21h37.26.045,VH_new_version2,2023.2.3,Win32,59.88023952,188.829,189.8284,,,,,,,,,,,,,,,,,,,,,,,,,,189.8284,190.4284,z,1,0.5816,,190.4284,190.4285,,0,59,59,157,1,158,öşek,,,,,4,harmonic,1.7,,z,nw,,,,,,,
,,,,,,,,,,,525303,,001,2024-02-16_21h37.26.045,VH_new_version2,2023.2.3,Win32,59.88023952,190.429,191.4282,,,,,,,,,,,,,,,,,,,,,,,,,,191.4282,192.1281,z,1,0.6846,,192.1281,192.1282,,0,60,60,164,1,165,üdel,,,,,4,harmonic,1.95,,z,nw,,,,,,,
,,,,,,,,,,,525303,,001,2024-02-16_21h37.26.045,VH_new_version2,2023.2.3,Win32,59.88023952,192.1286,193.1281,,,,,,,,,,,,,,,,,,,,,,,,,,193.1281,193.6446,m,0,0.5061,,193.6447,193.6448,,0,61,61,227,1,228,esta,,,,,4,notharmonic,1.7,,z,nw,,,,,,,
,,,,,,,,,,,525303,,001,2024-02-16_21h37.26.045,VH_new_version2,2023.2.3,Win32,59.88023952,193.6451,194.6447,,,,,,,,,,,,,,,,,,,,,,,,,,194.6447,195.1779,m,1,0.5263,,195.178,195.178,,0,62,62,71,1,72,boya,918,41.7103,799,0.0873,4,harmonic,1,4.620243314,m,w,,,,,,,
,,,,,,,,,,,525303,,001,2024-02-16_21h37.26.045,VH_new_version2,2023.2.3,Win32,59.88023952,195.1784,196.1778,,,,,,,,,,,,,,,,,,,,,,,,,,196.1779,197.2278,z,1,1.0315,,197.2278,197.2279,,0,63,63,188,1,189,yahat,,,,,5,harmonic,1.8,,z,nw,,,,,,,
,,,,,,,,,,,525303,,001,2024-02-16_21h37.26.045,VH_new_version2,2023.2.3,Win32,59.88023952,197.2283,198.2278,,,,,,,,,,,,,,,,,,,,,,,,,,198.2278,199.111,z,1,0.8646,,199.111,199.1112,,0,64,64,241,1,242,akter,,,,,5,notharmonic,1.8,,z,nw,,,,,,,
,,,,,,,,,,,525303,,001,2024-02-16_21h37.26.045,VH_new_version2,2023.2.3,Win32,59.88023952,199.1116,200.111,,,,,,,,,,,,,,,,,,,,,,,,,,200.111,200.861,z,1,0.731,,200.861,200.861,,0,65,65,147,1,148,üyöm,,,,,4,harmonic,1.95,,z,nw,,,,,,,
,,,,,,,,,,,525303,,001,2024-02-16_21h37.26.045,VH_new_version2,2023.2.3,Win32,59.88023952,200.8614,201.8609,,,,,,,,,,,,,,,,,,,,,,,,,,201.8609,202.3608,m,1,0.4824,,202.3609,202.361,,0,66,66,68,1,69,devlet,5766,261.9842,4854,0.5306,6,harmonic,1.65,5.4182751,m,w,,,,,,,
,,,,,,,,,,,525303,,001,2024-02-16_21h37.26.045,VH_new_version2,2023.2.3,Win32,59.88023952,202.3615,203.3607,,,,,,,,,,,,,,,,,,,,,,,,,,203.3608,204.0939,z,1,0.714,,204.0941,204.0941,,0,67,67,204,1,205,kürfür,,,,,6,harmonic,1.95,,z,nw,,,,,,,
,,,,,,,,,,,525303,,001,2024-02-16_21h37.26.045,VH_new_version2,2023.2.3,Win32,59.88023952,204.0945,205.0938,,,,,,,,,,,,,,,,,,,,,,,,,,205.0938,205.6271,m,1,0.5208,,205.6271,205.6272,,0,68,68,13,1,14,kedi,1646,74.7877,1394,0.1524,4,harmonic,1.1,4.873830177,m,w,,,,,,,
,,,,,,,,,,,525303,,001,2024-02-16_21h37.26.045,VH_new_version2,2023.2.3,Win32,59.88023952,205.6274,206.6271,,,,,,,,,,,,,,,,,,,,,,,,,,206.6271,207.177,z,1,0.5353,,207.1771,207.1771,,0,69,69,237,1,238,masem,,,,,5,notharmonic,1.7,,z,nw,,,,,,,
,,,,,,,,,,,525303,,001,2024-02-16_21h37.26.045,VH_new_version2,2023.2.3,Win32,59.88023952,207.1774,208.177,,,,,,,,,,,,,,,,,,,,,,,,,,208.177,208.627,m,1,0.4319,,208.627,214.6766,space,0,70,70,97,1,98,nefes,2871,130.4469,2553,0.2791,5,harmonic,1.8,5.115433763,m,w,6.0337,,,,,,
,,,,,,,,,,,525303,,001,2024-02-16_21h37.26.045,VH_new_version2,2023.2.3,Win32,59.88023952,214.6894,215.6931,,,,,,,,,,,,,,,,,,,,,,,,,,215.6931,216.1098,m,1,0.4051,,216.1098,216.1099,,0,71,71,117,1,118,çiçek,2071,94.098,1772,0.1937,5,harmonic,1.95,4.973580393,m,w,,,,,,,
,,,,,,,,,,,525303,,001,2024-02-16_21h37.26.045,VH_new_version2,2023.2.3,Win32,59.88023952,216.1103,217.1096,,,,,,,,,,,,,,,,,,,,,,,,,,217.1097,217.6262,m,1,0.4996,,217.6263,217.6264,,0,72,72,65,1,66,destek,3328,151.2111,3065,0.3351,6,harmonic,1.85,5.179583673,m,w,,,,,,,
,,,,,,,,,,,525303,,001,2024-02-16_21h37.26.045,VH_new_version2,2023.2.3,Win32,59.88023952,217.6268,218.6262,,,,,,,,,,,,,,,,,,,,,,,,,,218.6263,219.0094,m,1,0.3703,,219.0094,219.0095,,0,73,73,115,1,116,doğu,2105,95.6429,1823,0.1993,4,harmonic,1.05,4.980652736,m,w,,,,,,,
,,,,,,,,,,,525303,,001,2024-02-16_21h37.26.045,VH_new_version2,2023.2.3,Win32,59.88023952,219.0099,220.0095,,,,,,,,,,,,,,,,,,,,,,,,,,220.0095,220.5928,z,1,0.5648,,220.5928,220.5929,,0,74,74,170,1,171,telen,,,,,5,harmonic,1.15,,z,nw,,,,,,,
,,,,,,,,,,,525303,,001,2024-02-16_21h37.26.045,VH_new_version2,2023.2.3,Win32,59.88023952,220.5932,221.5927,,,,,,,,,,,,,,,,,,,,,,,,,,221.5927,222.2592,m,0,0.6547,,222.2592,222.2593,,0,75,75,257,1,258,seran,,,,,5,notharmonic,1.35,,z,nw,,,,,,,
,,,,,,,,,,,525303,,001,2024-02-16_21h37.26.045,VH_new_version2,2023.2.3,Win32,59.88023952,222.2596,223.2591,,,,,,,,,,,,,,,,,,,,,,,,,,223.2592,223.7425,m,0,0.4665,,223.7425,223.7426,,0,76,76,143,1,144,uçek,,,,,4,harmonic,1.85,,z,nw,,,,,,,
,,,,,,,,,,,525303,,001,2024-02-16_21h37.26.045,VH_new_version2,2023.2.3,Win32,59.88023952,223.7429,224.7425,,,,,,,,,,,,,,,,,,,,,,,,,,224.7425,225.4756,z,1,0.7267,,225.4756,225.4758,,0,77,77,219,1,220,anel,,,,,4,notharmonic,1.7,,z,nw,,,,,,,
,,,,,,,,,,,525303,,001,2024-02-16_21h37.26.045,VH_new_version2,2023.2.3,Win32,59.88023952,225.4761,226.4755,,,,,,,,,,,,,,,,,,,,,,,,,,226.4755,227.0921,z,1,0.607,,227.0922,227.0923,,0,78,78,162,1,163,möre,,,,,4,harmonic,1.65,,z,nw,,,,,,,
,,,,,,,,,,,525303,,001,2024-02-16_21h37.26.045,VH_new_version2,2023.2.3,Win32,59.88023952,227.0926,228.0922,,,,,,,,,,,,,,,,,,,,,,,,,,228.0922,228.6255,m,1,0.5148,,228.6255,228.6256,,0,79,79,129,1,130,peynir,1421,64.5646,1248,0.1364,6,harmonic,1.9,4.809994465,m,w,,,,,,,
,,,,,,,,,,,525303,,001,2024-02-16_21h37.26.045,VH_new_version2,2023.2.3,Win32,59.88023952,228.626,229.6254,,,,,,,,,,,,,,,,,,,,,,,,,,229.6254,230.1253,m,0,0.4932,,230.1254,230.1254,,0,80,80,202,1,203,cehret,,,,,6,harmonic,1.85,,z,nw,,,,,,,
,,,,,,,,,,,525303,,001,2024-02-16_21h37.26.045,VH_new_version2,2023.2.3,Win32,59.88023952,230.1258,231.1253,,,,,,,,,,,,,,,,,,,,,,,,,,231.1253,231.892,z,1,0.7478,,231.892,231.8921,,0,81,81,160,1,161,ünte,,,,,4,harmonic,1.65,,z,nw,,,,,,,
,,,,,,,,,,,525303,,001,2024-02-16_21h37.26.045,VH_new_version2,2023.2.3,Win32,59.88023952,231.8924,232.8919,,,,,,,,,,,,,,,,,,,,,,,,,,232.892,233.5919,z,1,0.6937,,233.5919,233.592,,0,82,82,171,1,172,faraç,,,,,5,harmonic,1.75,,z,nw,,,,,,,
,,,,,,,,,,,525303,,001,2024-02-16_21h37.26.045,VH_new_version2,2023.2.3,Win32,59.88023952,233.5923,234.5917,,,,,,,,,,,,,,,,,,,,,,,,,,234.5918,235.0582,m,1,0.4512,,235.0584,235.0585,,0,83,83,114,1,115,ayak,2143,97.3694,1931,0.2111,4,harmonic,1,4.988422494,m,w,,,,,,,
,,,,,,,,,,,525303,,001,2024-02-16_21h37.26.045,VH_new_version2,2023.2.3,Win32,59.88023952,235.0588,236.0581,,,,,,,,,,,,,,,,,,,,,,,,,,236.0581,236.7248,z,1,0.6543,,236.7249,236.7249,,0,84,84,234,1,235,ated,,,,,4,notharmonic,1.8,,z,nw,,,,,,,
,,,,,,,,,,,525303,,001,2024-02-16_21h37.26.045,VH_new_version2,2023.2.3,Win32,59.88023952,236.7253,237.7247,,,,,,,,,,,,,,,,,,,,,,,,,,237.7248,238.2912,z,1,0.5581,,238.2913,238.2914,,0,85,85,196,1,197,etçime,,,,,6,harmonic,1.9,,z,nw,,,,,,,
,,,,,,,,,,,525303,,001,2024-02-16_21h37.26.045,VH_new_version2,2023.2.3,Win32,59.88023952,238.2918,239.2913,,,,,,,,,,,,,,,,,,,,,,,,,,239.2913,239.708,m,1,0.3998,,239.708,239.7081,,0,86,86,31,1,32,pembe,1549,70.3804,1327,0.1451,5,harmonic,2,4.847451731,m,w,,,,,,,
,,,,,,,,,,,525303,,001,2024-02-16_21h37.26.045,VH_new_version2,2023.2.3,Win32,59.88023952,239.7085,240.708,,,,,,,,,,,,,,,,,,,,,,,,,,240.708,241.3245,z,1,0.6067,,241.3245,241.3245,,0,87,87,145,1,146,oyoz,,,,,4,harmonic,1.9,,z,nw,,,,,,,
,,,,,,,,,,,525303,,001,2024-02-16_21h37.26.045,VH_new_version2,2023.2.3,Win32,59.88023952,241.3249,242.3244,,,,,,,,,,,,,,,,,,,,,,,,,,242.3246,243.0742,m,0,0.7402,,243.0743,243.0744,,0,88,88,263,1,264,magina,,,,,6,notharmonic,1.9,,z,nw,,,,,,,
,,,,,,,,,,,525303,,001,2024-02-16_21h37.26.045,VH_new_version2,2023.2.3,Win32,59.88023952,243.0748,244.0742,,,,,,,,,,,,,,,,,,,,,,,,,,244.0742,245.1074,m,0,1.0225,,245.1075,245.1075,,0,89,89,144,1,145,içke,,,,,4,harmonic,1.6,,z,nw,,,,,,,
,,,,,,,,,,,525303,,001,2024-02-16_21h37.26.045,VH_new_version2,2023.2.3,Win32,59.88023952,245.1079,246.1075,,,,,,,,,,,,,,,,,,,,,,,,,,246.1075,246.624,m,1,0.5086,,246.624,246.6241,,0,90,90,90,1,91,insan,3684,167.3864,3486,0.3811,5,harmonic,1.55,5.223720169,m,w,,,,,,,
,,,,,,,,,,,525303,,001,2024-02-16_21h37.26.045,VH_new_version2,2023.2.3,Win32,59.88023952,246.6244,247.6242,,,,,,,,,,,,,,,,,,,,,,,,,,247.6242,248.1907,z,1,0.5484,,248.1907,248.1908,,0,91,91,249,1,250,sisaj,,,,,5,notharmonic,2,,z,nw,,,,,,,
,,,,,,,,,,,525303,,001,2024-02-16_21h37.26.045,VH_new_version2,2023.2.3,Win32,59.88023952,248.1911,249.1906,,,,,,,,,,,,,,,,,,,,,,,,,,249.1906,249.7905,m,1,0.584,,249.7905,249.7906,,0,92,92,60,1,61,nefret,2429,110.3641,2115,0.2312,6,harmonic,1.8,5.042827826,m,w,,,,,,,
,,,,,,,,,,,525303,,001,2024-02-16_21h37.26.045,VH_new_version2,2023.2.3,Win32,59.88023952,249.7909,250.7905,,,,,,,,,,,,,,,,,,,,,,,,,,250.7905,251.6404,m,0,0.8307,,251.6405,251.6405,,0,93,93,226,1,227,şüda,,,,,4,notharmonic,1.9,,z,nw,,,,,,,
,,,,,,,,,,,525303,,001,2024-02-16_21h37.26.045,VH_new_version2,2023.2.3,Win32,59.88023952,251.6409,252.6403,,,,,,,,,,,,,,,,,,,,,,,,,,252.6403,253.1569,m,1,0.5023,,253.1569,253.157,,0,94,94,42,1,43,şeker,4708,213.9128,4170,0.4559,5,harmonic,1.6,5.330236772,m,w,,,,,,,
,,,,,,,,,,,525303,,001,2024-02-16_21h37.26.045,VH_new_version2,2023.2.3,Win32,59.88023952,253.1573,254.1568,,,,,,,,,,,,,,,,,,,,,,,,,,254.1568,254.6067,m,1,0.4373,,254.6068,254.6069,,0,95,95,26,1,27,boyun,843,38.3026,777,0.0849,5,harmonic,1.05,4.583228255,m,w,,,,,,,
,,,,,,,,,,,525303,,001,2024-02-16_21h37.26.045,VH_new_version2,2023.2.3,Win32,59.88023952,254.6072,255.6068,,,,,,,,,,,,,,,,,,,,,,,,,,255.6068,255.9233,m,1,0.3056,,255.9234,255.9235,,0,96,96,52,1,53,buğday,746,33.8953,623,0.0681,6,harmonic,1.9,4.530139482,m,w,,,,,,,
,,,,,,,,,,,525303,,001,2024-02-16_21h37.26.045,VH_new_version2,2023.2.3,Win32,59.88023952,255.9238,256.9234,,,,,,,,,,,,,,,,,,,,,,,,,,256.9234,257.3899,m,1,0.4525,,257.3899,257.39,,0,97,97,46,1,47,hayat,7922,359.9443,7314,0.7996,5,harmonic,1.35,5.556235301,m,w,,,,,,,
,,,,,,,,,,,525303,,001,2024-02-16_21h37.26.045,VH_new_version2,2023.2.3,Win32,59.88023952,257.3902,258.3899,,,,,,,,,,,,,,,,,,,,,,,,,,258.3899,258.7398,m,1,0.3329,,258.7399,258.74,,0,98,98,88,1,89,yorum,3801,172.7024,3473,0.3797,5,harmonic,1.1,5.237298373,m,w,,,,,,,
,,,,,,,,,,,525303,,001,2024-02-16_21h37.26.045,VH_new_version2,2023.2.3,Win32,59.88023952,258.7404,259.7399,,,,,,,,,,,,,,,,,,,,,,,,,,259.7399,260.3897,m,1,0.6399,,260.3897,260.3898,,0,99,99,80,1,81,ahlak,641,29.1245,543,0.0594,5,harmonic,1.35,4.464258478,m,w,,,,,,,
,,,,,,,,,,,525303,,001,2024-02-16_21h37.26.045,VH_new_version2,2023.2.3,Win32,59.88023952,260.3901,261.3896,,,,,,,,,,,,,,,,,,,,,,,,,,261.3896,261.7896,m,1,0.3805,,261.7897,261.7898,,0,100,100,29,1,30,şarap,926,42.0738,787,0.086,5,harmonic,1.9,4.624011738,m,w,,,,,,,
,,,,,,,,,,,525303,,001,2024-02-16_21h37.26.045,VH_new_version2,2023.2.3,Win32,59.88023952,261.7901,262.7896,,,,,,,,,,,,,,,,,,,,,,,,,,262.7896,263.1561,m,1,0.3559,,263.1561,263.1562,,0,101,101,37,1,38,cümle,1911,86.8283,1765,0.193,5,harmonic,1.85,4.938661298,m,w,,,,,,,
,,,,,,,,,,,525303,,001,2024-02-16_21h37.26.045,VH_new_version2,2023.2.3,Win32,59.88023952,263.1565,264.1561,,,,,,,,,,,,,,,,,,,,,,,,,,264.1562,264.6894,z,1,0.5259,,264.6894,264.6895,,0,102,102,186,1,187,erbik,,,,,5,harmonic,1.75,,z,nw,,,,,,,
,,,,,,,,,,,525303,,001,2024-02-16_21h37.26.045,VH_new_version2,2023.2.3,Win32,59.88023952,264.6898,265.6892,,,,,,,,,,,,,,,,,,,,,,,,,,265.6892,266.4558,z,1,0.7516,,266.4558,266.4559,,0,103,103,193,1,194,hatrak,,,,,6,harmonic,1.95,,z,nw,,,,,,,
,,,,,,,,,,,525303,,001,2024-02-16_21h37.26.045,VH_new_version2,2023.2.3,Win32,59.88023952,266.4563,267.4559,,,,,,,,,,,,,,,,,,,,,,,,,,267.4559,267.9224,m,1,0.4546,,267.9224,267.9225,,0,104,104,51,1,52,yaprak,739,33.5772,678,0.0741,6,harmonic,1.7,4.526044478,m,w,,,,,,,
,,,,,,,,,,,525303,,001,2024-02-16_21h37.26.045,VH_new_version2,2023.2.3,Win32,59.88023952,267.9228,268.9224,,,,,,,,,,,,,,,,,,,,,,,,,,268.9224,269.7723,m,0,0.8373,,269.7723,269.7724,,0,105,105,262,1,263,barali,,,,,6,notharmonic,1.95,,z,nw,,,,,,,
,,,,,,,,,,,525303,,001,2024-02-16_21h37.26.045,VH_new_version2,2023.2.3,Win32,59.88023952,269.7728,270.7723,,,,,,,,,,,,,,,,,,,,,,,,,,270.7723,271.5723,z,1,0.7842,,271.5723,271.5723,,0,106,106,142,1,143,öbeh,,,,,4,harmonic,1.95,,z,nw,,,,,,,
,,,,,,,,,,,525303,,001,2024-02-16_21h37.26.045,VH_new_version2,2023.2.3,Win32,59.88023952,271.5727,272.5722,,,,,,,,,,,,,,,,,,,,,,,,,,272.5722,273.0721,m,1,0.4922,,273.0722,273.0722,,0,107,107,73,1,74,gemi,629,28.5793,544,0.0595,4,harmonic,1.1,4.456051587,m,w,,,,,,,
,,,,,,,,,,,525303,,001,2024-02-16_21h37.26.045,VH_new_version2,2023.2.3,Win32,59.88023952,273.0725,274.072,,,,,,,,,,,,,,,,,,,,,,,,,,274.072,274.4054,m,1,0.3161,,274.4054,274.4054,,0,108,108,105,1,106,hasta,2431,110.455,2140,0.2339,5,harmonic,1,5.04318538,m,w,,,,,,,
,,,,,,,,,,,525303,,001,2024-02-16_21h37.26.045,VH_new_version2,2023.2.3,Win32,59.88023952,274.4057,275.4053,,,,,,,,,,,,,,,,,,,,,,,,,,275.4053,275.7053,m,1,0.2817,,275.7053,275.7054,,0,109,109,14,1,15,ocak,1685,76.5597,1548,0.1692,4,harmonic,1.9,4.884000223,m,w,,,,,,,
,,,,,,,,,,,525303,,001,2024-02-16_21h37.26.045,VH_new_version2,2023.2.3,Win32,59.88023952,275.7057,276.7051,,,,,,,,,,,,,,,,,,,,,,,,,,276.7052,276.9719,m,1,0.2596,,276.9719,276.972,,0,110,110,72,1,73,uğur,787,35.7582,666,0.0728,4,harmonic,1.6,4.553375649,m,w,,,,,,,
,,,,,,,,,,,525303,,001,2024-02-16_21h37.26.045,VH_new_version2,2023.2.3,Win32,59.88023952,276.9722,277.9717,,,,,,,,,,,,,,,,,,,,,,,,,,277.9717,278.2551,m,0,0.2646,,278.2551,278.2552,,0,111,111,211,1,212,yıksık,,,,,6,harmonic,1.8,,z,nw,,,,,,,
,,,,,,,,,,,525303,,001,2024-02-16_21h37.26.045,VH_new_version2,2023.2.3,Win32,59.88023952,278.2555,279.255,,,,,,,,,,,,,,,,,,,,,,,,,,279.2551,279.8383,z,1,0.5647,,279.8383,279.8385,,0,112,112,155,1,156,megi,,,,,4,harmonic,1.8,,z,nw,,,,,,,
,,,,,,,,,,,525303,,001,2024-02-16_21h37.26.045,VH_new_version2,2023.2.3,Win32,59.88023952,279.8389,280.8382,,,,,,,,,,,,,,,,,,,,,,,,,,280.8382,281.4214,z,1,0.5766,,281.4215,281.4215,,0,113,113,220,1,221,nica,,,,,4,notharmonic,1.75,,z,nw,,,,,,,
,,,,,,,,,,,525303,,001,2024-02-16_21h37.26.045,VH_new_version2,2023.2.3,Win32,59.88023952,281.422,282.4213,,,,,,,,,,,,,,,,,,,,,,,,,,282.4214,282.9214,m,1,0.4928,,282.9214,282.9215,,0,114,114,62,1,63,kültür,2566,116.5889,2206,0.2412,6,harmonic,1.55,5.066657205,m,w,,,,,,,
,,,,,,,,,,,525303,,001,2024-02-16_21h37.26.045,VH_new_version2,2023.2.3,Win32,59.88023952,282.9218,283.9214,,,,,,,,,,,,,,,,,,,,,,,,,,283.9214,284.2379,m,1,0.3107,,284.2379,284.238,,0,115,115,47,1,48,yemek,9626,437.3673,8311,0.9086,5,harmonic,1.35,5.64084631,m,w,,,,,,,
,,,,,,,,,,,525303,,001,2024-02-16_21h37.26.045,VH_new_version2,2023.2.3,Win32,59.88023952,284.2385,285.2379,,,,,,,,,,,,,,,,,,,,,,,,,,285.2379,285.7711,m,1,0.5204,,285.7712,285.7712,,0,116,116,27,1,28,sekiz,872,39.6202,803,0.0878,5,harmonic,1.45,4.597916663,m,w,,,,,,,
,,,,,,,,,,,525303,,001,2024-02-16_21h37.26.045,VH_new_version2,2023.2.3,Win32,59.88023952,285.7716,286.7711,,,,,,,,,,,,,,,,,,,,,,,,,,286.7711,287.2544,m,1,0.4688,,287.2544,287.2544,,0,117,117,7,1,8,inci,757,34.3951,686,0.075,4,harmonic,1.05,4.536496576,m,w,,,,,,,
,,,,,,,,,,,525303,,001,2024-02-16_21h37.26.045,VH_new_version2,2023.2.3,Win32,59.88023952,287.2547,288.2543,,,,,,,,,,,,,,,,,,,,,,,,,,288.2544,288.621,m,1,0.3605,,288.6211,288.6212,,0,118,118,12,1,13,ağaç,1245,56.5679,1082,0.1183,4,harmonic,1.6,4.752570056,m,w,,,,,,,
,,,,,,,,,,,525303,,001,2024-02-16_21h37.26.045,VH_new_version2,2023.2.3,Win32,59.88023952,288.6219,289.6209,,,,,,,,,,,,,,,,,,,,,,,,,,289.6209,290.0541,m,1,0.4175,,290.0542,290.0543,,0,119,119,21,1,22,kötü,9344,424.5543,8257,0.9027,4,harmonic,1.65,5.627933244,m,w,,,,,,,
,,,,,,,,,,,525303,,001,2024-02-16_21h37.26.045,VH_new_version2,2023.2.3,Win32,59.88023952,290.0546,291.0541,,,,,,,,,,,,,,,,,,,,,,,,,,291.0541,291.6874,m,0,0.6257,,291.6874,291.6875,,0,120,120,222,1,223,laze,,,,,4,notharmonic,1.7,,z,nw,,,,,,,
,,,,,,,,,,,525303,,001,2024-02-16_21h37.26.045,VH_new_version2,2023.2.3,Win32,59.88023952,291.6878,292.6873,,,,,,,,,,,,,,,,,,,,,,,,,,292.6873,293.2039,m,0,0.4983,,293.204,293.2041,,0,121,121,189,1,190,genek,,,,,5,harmonic,1.6,,z,nw,,,,,,,
,,,,,,,,,,,525303,,001,2024-02-16_21h37.26.045,VH_new_version2,2023.2.3,Win32,59.88023952,293.2045,294.2039,,,,,,,,,,,,,,,,,,,,,,,,,,294.2039,294.8204,m,1,0.6057,,294.8204,294.8206,,0,122,122,123,1,124,yıldız,1775,80.649,1532,0.1675,6,harmonic,1.6,4.906598987,m,w,,,,,,,
,,,,,,,,,,,525303,,001,2024-02-16_21h37.26.045,VH_new_version2,2023.2.3,Win32,59.88023952,294.821,295.8204,,,,,,,,,,,,,,,,,,,,,,,,,,295.8204,296.4369,z,1,0.6015,,296.437,296.4371,,0,123,123,229,1,230,irar,,,,,4,notharmonic,1.65,,z,nw,,,,,,,
,,,,,,,,,,,525303,,001,2024-02-16_21h37.26.045,VH_new_version2,2023.2.3,Win32,59.88023952,296.4373,297.437,,,,,,,,,,,,,,,,,,,,,,,,,,297.437,297.9868,m,1,0.5359,,297.9868,297.9869,,0,124,124,107,1,108,isim,2366,107.5017,2163,0.2365,4,harmonic,1,5.031415332,m,w,,,,,,,
,,,,,,,,,,,525303,,001,2024-02-16_21h37.26.045,VH_new_version2,2023.2.3,Win32,59.88023952,297.9873,298.9868,,,,,,,,,,,,,,,,,,,,,,,,,,298.9868,299.6533,z,1,0.6581,,299.6533,299.6534,,0,125,125,191,1,192,pedrek,,,,,6,harmonic,2,,z,nw,,,,,,,
,,,,,,,,,,,525303,,001,2024-02-16_21h37.26.045,VH_new_version2,2023.2.3,Win32,59.88023952,299.6537,300.6534,,,,,,,,,,,,,,,,,,,,,,,,,,300.6534,301.67,m,0,1.0031,,301.67,301.67,,0,126,126,245,1,246,gaset,,,,,5,notharmonic,1.85,,z,nw,,,,,,,
,,,,,,,,,,,525303,,001,2024-02-16_21h37.26.045,VH_new_version2,2023.2.3,Win32,59.88023952,301.6705,302.6699,,,,,,,,,,,,,,,,,,,,,,,,,,302.6699,303.17,m,1,0.4803,,303.17,303.1701,,0,127,127,110,1,111,akıl,2208,100.3228,2004,0.2191,4,harmonic,1,5.001399645,m,w,,,,,,,
,,,,,,,,,,,525303,,001,2024-02-16_21h37.26.045,VH_new_version2,2023.2.3,Win32,59.88023952,303.1704,304.1698,,,,,,,,,,,,,,,,,,,,,,,,,,304.1698,304.6197,m,1,0.4315,,304.6198,304.6198,,0,128,128,19,1,20,baba,3645,165.6143,3131,0.3423,4,harmonic,1,5.219097833,m,w,,,,,,,
,,,,,,,,,,,525303,,001,2024-02-16_21h37.26.045,VH_new_version2,2023.2.3,Win32,59.88023952,304.6202,305.6197,,,,,,,,,,,,,,,,,,,,,,,,,,305.6197,306.553,m,0,0.9148,,306.5531,306.5532,,0,129,129,206,1,207,teşcik,,,,,6,harmonic,1.9,,z,nw,,,,,,,
,,,,,,,,,,,525303,,001,2024-02-16_21h37.26.045,VH_new_version2,2023.2.3,Win32,59.88023952,306.5538,307.5529,,,,,,,,,,,,,,,,,,,,,,,,,,307.5529,307.9693,m,1,0.4063,,307.9694,307.9694,,0,130,130,11,1,12,öykü,958,43.5277,849,0.0928,4,harmonic,1.9,4.63876572,m,w,,,,,,,
,,,,,,,,,,,525303,,001,2024-02-16_21h37.26.045,VH_new_version2,2023.2.3,Win32,59.88023952,307.9698,308.9695,,,,,,,,,,,,,,,,,,,,,,,,,,308.9695,309.2861,m,1,0.3004,,309.2861,309.2862,,0,131,131,22,1,23,özel,9726,441.9109,8559,0.9357,4,harmonic,1.35,5.645334714,m,w,,,,,,,
,,,,,,,,,,,525303,,001,2024-02-16_21h37.26.045,VH_new_version2,2023.2.3,Win32,59.88023952,309.2866,310.2859,,,,,,,,,,,,,,,,,,,,,,,,,,310.2859,310.6025,m,0,0.3106,,310.6026,310.6027,,0,132,132,264,1,265,şingan,,,,,6,notharmonic,2.15,,z,nw,,,,,,,
,,,,,,,,,,,525303,,001,2024-02-16_21h37.26.045,VH_new_version2,2023.2.3,Win32,59.88023952,310.6031,311.6025,,,,,,,,,,,,,,,,,,,,,,,,,,311.6025,312.0691,m,1,0.4498,,312.0691,312.0692,,0,133,133,100,1,101,ekmek,2734,124.2221,2318,0.2534,5,harmonic,1.3,5.094198867,m,w,,,,,,,
,,,,,,,,,,,525303,,001,2024-02-16_21h37.26.045,VH_new_version2,2023.2.3,Win32,59.88023952,312.0696,313.0691,,,,,,,,,,,,,,,,,,,,,,,,,,313.0691,313.4191,m,0,0.331,,313.4191,313.4192,,0,134,134,254,1,255,hadir,,,,,5,notharmonic,1.4,,z,nw,,,,,,,
,,,,,,,,,,,525303,,001,2024-02-16_21h37.26.045,VH_new_version2,2023.2.3,Win32,59.88023952,313.4195,314.419,,,,,,,,,,,,,,,,,,,,,,,,,,314.4191,314.9856,m,1,0.5524,,314.9857,314.9857,,0,135,135,16,1,17,umut,1988,90.3268,1818,0.1987,4,harmonic,1.55,4.955816625,m,w,,,,,,,
,,,,,,,,,,,525303,,001,2024-02-16_21h37.26.045,VH_new_version2,2023.2.3,Win32,59.88023952,314.986,315.9856,,,,,,,,,,,,,,,,,,,,,,,,,,315.9856,316.5187,m,1,0.5252,,316.5187,316.5188,,0,136,136,141,1,142,fındık,865,39.3022,769,0.0841,6,harmonic,1.95,4.594416861,m,w,,,,,,,
,,,,,,,,,,,525303,,001,2024-02-16_21h37.26.045,VH_new_version2,2023.2.3,Win32,59.88023952,316.5192,317.5188,,,,,,,,,,,,,,,,,,,,,,,,,,317.5188,318.2519,z,1,0.7204,,318.252,318.2521,,0,137,137,192,1,193,kumgun,,,,,6,harmonic,1.85,,z,nw,,,,,,,
,,,,,,,,,,,525303,,001,2024-02-16_21h37.26.045,VH_new_version2,2023.2.3,Win32,59.88023952,318.2524,319.2519,,,,,,,,,,,,,,,,,,,,,,,,,,319.252,320.0187,z,1,0.7606,,320.0187,320.0188,,0,138,138,195,1,196,çoflak,,,,,6,harmonic,2,,z,nw,,,,,,,
,,,,,,,,,,,525303,,001,2024-02-16_21h37.26.045,VH_new_version2,2023.2.3,Win32,59.88023952,320.0192,321.0186,,,,,,,,,,,,,,,,,,,,,,,,,,321.0186,321.5017,m,1,0.4751,,321.5018,321.5018,,0,139,139,95,1,96,sanat,3121,141.8059,2485,0.2717,5,harmonic,1.4,5.151694301,m,w,,,,,,,
,,,,,,,,,,,525303,,001,2024-02-16_21h37.26.045,VH_new_version2,2023.2.3,Win32,59.88023952,321.5022,322.5018,,,,,,,,,,,,,,,,,,,,,,,,,,322.5018,323.4016,z,1,0.8804,,323.4017,323.4018,,0,140,140,272,1,273,takime,,,,,6,notharmonic,1.5,,z,nw,,,,,,,
,,,,,,,,,,,525303,,001,2024-02-16_21h37.26.045,VH_new_version2,2023.2.3,Win32,59.88023952,323.4021,324.4015,,,,,,,,,,,,,,,,,,,,,,,,,,324.4015,324.8515,m,1,0.4378,,324.8515,331.6844,space,0,141,141,118,1,119,fırsat,1952,88.6911,1863,0.2037,6,harmonic,1.85,4.947880041,m,w,6.822,,,,,,
,,,,,,,,,,,525303,,001,2024-02-16_21h37.26.045,VH_new_version2,2023.2.3,Win32,59.88023952,331.6968,332.701,,,,,,,,,,,,,,,,,,,,,,,,,,332.701,333.3176,m,0,0.6096,,333.3176,333.3178,,0,142,142,214,1,215,dera,,,,,4,notharmonic,1.2,,z,nw,,,,,,,
,,,,,,,,,,,525303,,001,2024-02-16_21h37.26.045,VH_new_version2,2023.2.3,Win32,59.88023952,333.3182,334.3175,,,,,,,,,,,,,,,,,,,,,,,,,,334.3175,334.8342,m,1,0.4986,,334.8342,334.8343,,0,143,143,48,1,49,çocuk,10612,482.1672,8979,0.9816,5,harmonic,1.75,5.683197664,m,w,,,,,,,
,,,,,,,,,,,525303,,001,2024-02-16_21h37.26.045,VH_new_version2,2023.2.3,Win32,59.88023952,334.8346,335.8341,,,,,,,,,,,,,,,,,,,,,,,,,,335.8341,336.3506,m,1,0.5003,,336.3507,336.3508,,0,144,144,53,1,54,çıplak,819,37.2121,766,0.0837,6,harmonic,2,4.570684179,m,w,,,,,,,
,,,,,,,,,,,525303,,001,2024-02-16_21h37.26.045,VH_new_version2,2023.2.3,Win32,59.88023952,336.3511,337.3507,,,,,,,,,,,,,,,,,,,,,,,,,,337.3507,338.0173,z,1,0.6487,,338.0173,338.0174,,0,145,145,153,1,154,uyko,,,,,4,harmonic,1.95,,z,nw,,,,,,,
,,,,,,,,,,,525303,,001,2024-02-16_21h37.26.045,VH_new_version2,2023.2.3,Win32,59.88023952,338.0178,339.0172,,,,,,,,,,,,,,,,,,,,,,,,,,339.0172,339.5837,m,1,0.5565,,339.5837,339.5838,,0,146,146,136,1,137,tebrik,1117,50.7521,1102,0.1205,6,harmonic,1.85,4.705454017,m,w,,,,,,,
,,,,,,,,,,,525303,,001,2024-02-16_21h37.26.045,VH_new_version2,2023.2.3,Win32,59.88023952,339.584,340.584,,,,,,,,,,,,,,,,,,,,,,,,,,340.5841,341.2174,z,1,0.6152,,341.2174,341.2175,,0,147,147,168,1,169,bovon,,,,,5,harmonic,2,,z,nw,,,,,,,
,,,,,,,,,,,525303,,001,2024-02-16_21h37.26.045,VH_new_version2,2023.2.3,Win32,59.88023952,341.218,342.217,,,,,,,,,,,,,,,,,,,,,,,,,,342.217,342.6668,m,1,0.4347,,342.6668,342.6669,,0,148,148,50,1,51,kurşun,604,27.4434,551,0.0602,6,harmonic,1.55,4.438437916,m,w,,,,,,,
,,,,,,,,,,,525303,,001,2024-02-16_21h37.26.045,VH_new_version2,2023.2.3,Win32,59.88023952,342.6674,343.6668,,,,,,,,,,,,,,,,,,,,,,,,,,343.6668,344.1001,m,0,0.4155,,344.1001,344.1002,,0,149,149,146,1,147,öğne,,,,,4,harmonic,1.7,,z,nw,,,,,,,
,,,,,,,,,,,525303,,001,2024-02-16_21h37.26.045,VH_new_version2,2023.2.3,Win32,59.88023952,344.1006,345.1,,,,,,,,,,,,,,,,,,,,,,,,,,345.1,345.6832,m,0,0.5723,,345.6833,345.6833,,0,150,150,213,1,214,zale,,,,,4,notharmonic,1.55,,z,nw,,,,,,,
,,,,,,,,,,,525303,,001,2024-02-16_21h37.26.045,VH_new_version2,2023.2.3,Win32,59.88023952,345.6836,346.6833,,,,,,,,,,,,,,,,,,,,,,,,,,346.6833,347.5664,z,1,0.8677,,347.5665,347.5665,,0,151,151,243,1,244,kuyef,,,,,5,notharmonic,2.3,,z,nw,,,,,,,
,,,,,,,,,,,525303,,001,2024-02-16_21h37.26.045,VH_new_version2,2023.2.3,Win32,59.88023952,347.5669,348.5664,,,,,,,,,,,,,,,,,,,,,,,,,,348.5665,349.233,z,1,0.651,,349.2331,349.2331,,0,152,152,166,1,167,dokoş,,,,,5,harmonic,2,,z,nw,,,,,,,
,,,,,,,,,,,525303,,001,2024-02-16_21h37.26.045,VH_new_version2,2023.2.3,Win32,59.88023952,349.2335,350.2329,,,,,,,,,,,,,,,,,,,,,,,,,,350.233,350.8162,z,1,0.5734,,350.8162,350.8163,,0,153,153,150,1,151,acuz,,,,,4,harmonic,1.65,,z,nw,,,,,,,
,,,,,,,,,,,525303,,001,2024-02-16_21h37.26.045,VH_new_version2,2023.2.3,Win32,59.88023952,350.8167,351.8162,,,,,,,,,,,,,,,,,,,,,,,,,,351.8164,352.6495,m,0,0.8167,,352.6495,352.6496,,0,154,154,181,1,182,masus,,,,,5,harmonic,1.7,,z,nw,,,,,,,
,,,,,,,,,,,525303,,001,2024-02-16_21h37.26.045,VH_new_version2,2023.2.3,Win32,59.88023952,352.6499,353.6494,,,,,,,,,,,,,,,,,,,,,,,,,,353.6494,354.2659,m,1,0.606,,354.266,354.266,,0,155,155,130,1,131,başarı,1398,63.5196,1300,0.1421,6,harmonic,1.2,4.802907755,m,w,,,,,,,
,,,,,,,,,,,525303,,001,2024-02-16_21h37.26.045,VH_new_version2,2023.2.3,Win32,59.88023952,354.2668,355.2659,,,,,,,,,,,,,,,,,,,,,,,,,,355.266,355.9158,z,1,0.6335,,355.9159,355.916,,0,156,156,232,1,233,leda,,,,,4,notharmonic,1.6,,z,nw,,,,,,,
,,,,,,,,,,,525303,,001,2024-02-16_21h37.26.045,VH_new_version2,2023.2.3,Win32,59.88023952,355.9163,356.9158,,,,,,,,,,,,,,,,,,,,,,,,,,356.9158,357.4658,m,1,0.5404,,357.4658,357.4658,,0,157,157,82,1,83,oyun,4926,223.8179,3995,0.4367,4,harmonic,1,5.349894817,m,w,,,,,,,
,,,,,,,,,,,525303,,001,2024-02-16_21h37.26.045,VH_new_version2,2023.2.3,Win32,59.88023952,357.4662,358.4657,,,,,,,,,,,,,,,,,,,,,,,,,,358.4657,358.9657,m,1,0.4908,,358.9657,358.9657,,0,158,158,140,1,141,kimlik,867,39.393,726,0.0794,6,harmonic,1.7,4.595419056,m,w,,,,,,,
,,,,,,,,,,,525303,,001,2024-02-16_21h37.26.045,VH_new_version2,2023.2.3,Win32,59.88023952,358.966,359.9656,,,,,,,,,,,,,,,,,,,,,,,,,,359.9656,360.6155,z,1,0.6382,,360.6155,360.6155,,0,159,159,255,1,256,resap,,,,,5,notharmonic,1.9,,z,nw,,,,,,,
,,,,,,,,,,,525303,,001,2024-02-16_21h37.26.045,VH_new_version2,2023.2.3,Win32,59.88023952,360.6159,361.6155,,,,,,,,,,,,,,,,,,,,,,,,,,361.6156,362.2987,z,1,0.6754,,362.2987,362.2989,,0,160,160,239,1,240,kanel,,,,,5,notharmonic,1.9,,z,nw,,,,,,,
,,,,,,,,,,,525303,,001,2024-02-16_21h37.26.045,VH_new_version2,2023.2.3,Win32,59.88023952,362.2991,363.2987,,,,,,,,,,,,,,,,,,,,,,,,,,363.2987,364.0652,z,1,0.7597,,364.0652,364.0653,,0,161,161,165,1,166,eyel,,,,,4,harmonic,1.65,,z,nw,,,,,,,
,,,,,,,,,,,525303,,001,2024-02-16_21h37.26.045,VH_new_version2,2023.2.3,Win32,59.88023952,364.0658,365.0652,,,,,,,,,,,,,,,,,,,,,,,,,,365.0653,366.2485,m,0,1.1657,,366.2485,366.2486,,0,162,162,201,1,202,lingin,,,,,6,harmonic,1.6,,z,nw,,,,,,,
,,,,,,,,,,,525303,,001,2024-02-16_21h37.26.045,VH_new_version2,2023.2.3,Win32,59.88023952,366.249,367.2483,,,,,,,,,,,,,,,,,,,,,,,,,,367.2484,367.7149,m,1,0.4512,,367.715,367.715,,0,163,163,30,1,31,pamuk,937,42.5736,826,0.0903,5,harmonic,1.9,4.629140375,m,w,,,,,,,
,,,,,,,,,,,525303,,001,2024-02-16_21h37.26.045,VH_new_version2,2023.2.3,Win32,59.88023952,367.7154,368.7149,,,,,,,,,,,,,,,,,,,,,,,,,,368.7149,369.1647,m,1,0.441,,369.1648,369.1649,,0,164,164,76,1,77,koltuk,559,25.3987,476,0.052,6,harmonic,1.75,4.404811488,m,w,,,,,,,
,,,,,,,,,,,525303,,001,2024-02-16_21h37.26.045,VH_new_version2,2023.2.3,Win32,59.88023952,369.1652,370.1648,,,,,,,,,,,,,,,,,,,,,,,,,,370.1648,370.5981,m,1,0.4265,,370.5982,370.5982,,0,165,165,49,1,50,çeyrek,540,24.5355,477,0.0521,6,harmonic,1.9,4.389794913,m,w,,,,,,,
,,,,,,,,,,,525303,,001,2024-02-16_21h37.26.045,VH_new_version2,2023.2.3,Win32,59.88023952,370.5986,371.5981,,,,,,,,,,,,,,,,,,,,,,,,,,371.5981,371.8812,m,0,0.2698,,371.8812,371.8813,,0,166,166,242,1,243,sayke,,,,,5,notharmonic,1.9,,z,nw,,,,,,,
,,,,,,,,,,,525303,,001,2024-02-16_21h37.26.045,VH_new_version2,2023.2.3,Win32,59.88023952,371.8817,372.8813,,,,,,,,,,,,,,,,,,,,,,,,,,372.8813,373.6146,z,1,0.7165,,373.6146,373.6147,,0,167,167,158,1,159,uzot,,,,,4,harmonic,1.9,,z,nw,,,,,,,
,,,,,,,,,,,525303,,001,2024-02-16_21h37.26.045,VH_new_version2,2023.2.3,Win32,59.88023952,373.615,374.6145,,,,,,,,,,,,,,,,,,,,,,,,,,374.6146,375.481,z,1,0.8597,,375.4811,375.4811,,0,168,168,184,1,185,nekir,,,,,5,harmonic,1.6,,z,nw,,,,,,,
,,,,,,,,,,,525303,,001,2024-02-16_21h37.26.045,VH_new_version2,2023.2.3,Win32,59.88023952,375.4814,376.4811,,,,,,,,,,,,,,,,,,,,,,,,,,376.4811,376.9976,m,0,0.5069,,376.9976,376.9976,,0,169,169,258,1,259,ihati,,,,,5,notharmonic,1.95,,z,nw,,,,,,,
,,,,,,,,,,,525303,,001,2024-02-16_21h37.26.045,VH_new_version2,2023.2.3,Win32,59.88023952,376.9979,378.0011,,,,,,,,,,,,,,,,,,,,,,,,,,378.0021,378.4808,m,1,0.4585,,378.4808,378.481,,0,170,170,104,1,105,hediye,2501,113.6355,2224,0.2431,6,harmonic,1.7,5.055514027,m,w,,,,,,,
,,,,,,,,,,,525303,,001,2024-02-16_21h37.26.045,VH_new_version2,2023.2.3,Win32,59.88023952,378.4814,379.4808,,,,,,,,,,,,,,,,,,,,,,,,,,379.4808,379.8308,m,1,0.3413,,379.8308,379.8309,,0,171,171,91,1,92,yeşil,3445,156.5271,2946,0.3221,5,harmonic,1.8,5.194589539,m,w,,,,,,,
,,,,,,,,,,,525303,,001,2024-02-16_21h37.26.045,VH_new_version2,2023.2.3,Win32,59.88023952,379.8313,380.8308,,,,,,,,,,,,,,,,,,,,,,,,,,380.8308,381.164,m,1,0.3187,,381.1641,381.1642,,0,172,172,113,1,114,görev,2159,98.0964,1998,0.2184,5,harmonic,1.75,4.99165307,m,w,,,,,,,
,,,,,,,,,,,525303,,001,2024-02-16_21h37.26.045,VH_new_version2,2023.2.3,Win32,59.88023952,381.1647,382.1639,,,,,,,,,,,,,,,,,,,,,,,,,,382.164,382.4805,m,0,0.3005,,382.4805,382.4807,,0,173,173,256,1,257,betaş,,,,,5,notharmonic,1.85,,z,nw,,,,,,,
,,,,,,,,,,,525303,,001,2024-02-16_21h37.26.045,VH_new_version2,2023.2.3,Win32,59.88023952,382.4809,383.4805,,,,,,,,,,,,,,,,,,,,,,,,,,383.4806,384.1804,z,1,0.682,,384.1804,384.1805,,0,174,174,187,1,188,ahfam,,,,,5,harmonic,1.85,,z,nw,,,,,,,
,,,,,,,,,,,525303,,001,2024-02-16_21h37.26.045,VH_new_version2,2023.2.3,Win32,59.88023952,384.1809,385.1803,,,,,,,,,,,,,,,,,,,,,,,,,,385.1803,385.7136,m,1,0.5135,,385.7136,385.7138,,0,175,175,79,1,80,erik,376,17.0839,335,0.0366,4,harmonic,1,4.232587021,m,w,,,,,,,
,,,,,,,,,,,525303,,001,2024-02-16_21h37.26.045,VH_new_version2,2023.2.3,Win32,59.88023952,385.7142,386.7135,,,,,,,,,,,,,,,,,,,,,,,,,,386.7136,387.3302,m,1,0.6054,,387.3302,387.3303,,0,176,176,139,1,140,teklif,913,41.4831,848,0.0927,6,harmonic,1.7,4.617871203,m,w,,,,,,,
,,,,,,,,,,,525303,,001,2024-02-16_21h37.26.045,VH_new_version2,2023.2.3,Win32,59.88023952,387.3306,388.3301,,,,,,,,,,,,,,,,,,,,,,,,,,388.3301,388.78,m,0,0.4344,,388.78,388.7801,,0,177,177,225,1,226,elda,,,,,4,notharmonic,1.6,,z,nw,,,,,,,
,,,,,,,,,,,525303,,001,2024-02-16_21h37.26.045,VH_new_version2,2023.2.3,Win32,59.88023952,388.7805,389.78,,,,,,,,,,,,,,,,,,,,,,,,,,389.7801,390.3633,m,1,0.5647,,390.3633,390.3634,,0,178,178,94,1,95,bebek,3301,149.9843,2794,0.3054,5,harmonic,1.6,5.176045801,m,w,,,,,,,
,,,,,,,,,,,525303,,001,2024-02-16_21h37.26.045,VH_new_version2,2023.2.3,Win32,59.88023952,390.3637,391.3632,,,,,,,,,,,,,,,,,,,,,,,,,,391.3632,391.9298,m,1,0.5552,,391.9298,391.9299,,0,179,179,32,1,33,güney,1639,74.4697,1439,0.1573,5,harmonic,1.65,4.871979604,m,w,,,,,,,
,,,,,,,,,,,525303,,001,2024-02-16_21h37.26.045,VH_new_version2,2023.2.3,Win32,59.88023952,391.9302,392.9298,,,,,,,,,,,,,,,,,,,,,,,,,,392.9298,393.4964,m,1,0.5475,,393.4965,393.4966,,0,180,180,135,1,136,gündüz,1167,53.0239,1088,0.1189,6,harmonic,1.6,4.724471668,m,w,,,,,,,
,,,,,,,,,,,525303,,001,2024-02-16_21h37.26.045,VH_new_version2,2023.2.3,Win32,59.88023952,393.4969,394.4963,,,,,,,,,,,,,,,,,,,,,,,,,,394.4963,394.8796,m,1,0.3679,,394.8796,394.8797,,0,181,181,81,1,82,hava,4975,226.0443,4398,0.4808,4,harmonic,1,5.35419356,m,w,,,,,,,
,,,,,,,,,,,525303,,001,2024-02-16_21h37.26.045,VH_new_version2,2023.2.3,Win32,59.88023952,394.8802,395.8796,,,,,,,,,,,,,,,,,,,,,,,,,,395.8796,396.5294,z,1,0.6392,,396.5295,396.5295,,0,182,182,207,1,208,dendek,,,,,6,harmonic,1.8,,z,nw,,,,,,,
,,,,,,,,,,,525303,,001,2024-02-16_21h37.26.045,VH_new_version2,2023.2.3,Win32,59.88023952,396.5298,397.5295,,,,,,,,,,,,,,,,,,,,,,,,,,397.5295,398.2292,z,1,0.6919,,398.2293,398.2294,,0,183,183,259,1,260,kiyaf,,,,,5,notharmonic,1.95,,z,nw,,,,,,,
,,,,,,,,,,,525303,,001,2024-02-16_21h37.26.045,VH_new_version2,2023.2.3,Win32,59.88023952,398.2297,399.2293,,,,,,,,,,,,,,,,,,,,,,,,,,399.2293,399.9625,z,1,0.7268,,399.9626,399.9627,,0,184,184,251,1,252,madit,,,,,5,notharmonic,1.9,,z,nw,,,,,,,
,,,,,,,,,,,525303,,001,2024-02-16_21h37.26.045,VH_new_version2,2023.2.3,Win32,59.88023952,399.963,400.9624,,,,,,,,,,,,,,,,,,,,,,,,,,400.9624,402.3789,m,0,1.4055,,402.379,402.3791,,0,185,185,268,1,269,mucepi,,,,,6,notharmonic,2.85,,z,nw,,,,,,,
,,,,,,,,,,,525303,,001,2024-02-16_21h37.26.045,VH_new_version2,2023.2.3,Win32,59.88023952,402.3794,403.3789,,,,,,,,,,,,,,,,,,,,,,,,,,403.3789,403.9621,m,1,0.5742,,403.9622,403.9622,,0,186,186,74,1,75,çatı,469,21.3095,379,0.0414,4,harmonic,1,4.32857326,m,w,,,,,,,
,,,,,,,,,,,525303,,001,2024-02-16_21h37.26.045,VH_new_version2,2023.2.3,Win32,59.88023952,403.9626,404.9621,,,,,,,,,,,,,,,,,,,,,,,,,,404.9621,405.4288,m,1,0.451,,405.4288,405.4289,,0,187,187,133,1,134,parmak,1268,57.6129,1165,0.1274,6,harmonic,1.75,4.760519736,m,w,,,,,,,
,,,,,,,,,,,525303,,001,2024-02-16_21h37.26.045,VH_new_version2,2023.2.3,Win32,59.88023952,405.4293,406.4287,,,,,,,,,,,,,,,,,,,,,,,,,,406.4287,406.7981,m,0,0.3481,,406.7981,406.7982,,0,188,188,154,1,155,afap,,,,,4,harmonic,1.7,,z,nw,,,,,,,
,,,,,,,,,,,525303,,001,2024-02-16_21h37.26.045,VH_new_version2,2023.2.3,Win32,59.88023952,406.7985,407.7955,,,,,,,,,,,,,,,,,,,,,,,,,,407.7956,408.4787,m,1,0.6655,,408.4788,408.4788,,0,189,189,103,1,104,resim,2506,113.8627,2188,0.2392,5,harmonic,1.4,5.056381478,m,w,,,,,,,
,,,,,,,,,,,525303,,001,2024-02-16_21h37.26.045,VH_new_version2,2023.2.3,Win32,59.88023952,408.4793,409.4785,,,,,,,,,,,,,,,,,,,,,,,,,,409.4785,409.9452,m,1,0.4473,,409.9453,409.9453,,0,190,190,17,1,18,sarı,2072,94.1435,1838,0.2009,4,harmonic,1,4.97379034,m,w,,,,,,,
,,,,,,,,,,,525303,,001,2024-02-16_21h37.26.045,VH_new_version2,2023.2.3,Win32,59.88023952,409.9457,410.9452,,,,,,,,,,,,,,,,,,,,,,,,,,410.9452,411.595,z,1,0.6388,,411.5951,411.5952,,0,191,191,271,1,272,yakele,,,,,6,notharmonic,2,,z,nw,,,,,,,
,,,,,,,,,,,525303,,001,2024-02-16_21h37.26.045,VH_new_version2,2023.2.3,Win32,59.88023952,411.5956,412.595,,,,,,,,,,,,,,,,,,,,,,,,,,412.595,413.0615,m,1,0.4541,,413.0616,413.0617,,0,192,192,8,1,9,ağız,824,37.4393,758,0.0829,4,harmonic,1.2,4.57332772,m,w,,,,,,,
,,,,,,,,,,,525303,,001,2024-02-16_21h37.26.045,VH_new_version2,2023.2.3,Win32,59.88023952,413.062,414.0616,,,,,,,,,,,,,,,,,,,,,,,,,,414.0616,414.6614,z,1,0.589,,414.6614,414.6615,,0,193,193,218,1,219,ecmu,,,,,4,notharmonic,2,,z,nw,,,,,,,
,,,,,,,,,,,525303,,001,2024-02-16_21h37.26.045,VH_new_version2,2023.2.3,Win32,59.88023952,414.6618,415.6614,,,,,,,,,,,,,,,,,,,,,,,,,,415.6614,416.0446,m,1,0.3741,,416.0446,416.0447,,0,194,194,87,1,88,sevgi,3950,179.4723,3467,0.379,5,harmonic,1.65,5.253997428,m,w,,,,,,,
,,,,,,,,,,,525303,,001,2024-02-16_21h37.26.045,VH_new_version2,2023.2.3,Win32,59.88023952,416.045,417.0445,,,,,,,,,,,,,,,,,,,,,,,,,,417.0445,417.528,m,1,0.465,,417.528,417.528,,0,195,195,4,1,5,öfke,606,27.5342,542,0.0593,4,harmonic,1.85,4.439872463,m,w,,,,,,,
,,,,,,,,,,,525303,,001,2024-02-16_21h37.26.045,VH_new_version2,2023.2.3,Win32,59.88023952,417.5284,418.5278,,,,,,,,,,,,,,,,,,,,,,,,,,418.5279,418.9944,m,1,0.4601,,418.9944,418.9945,,0,196,196,122,1,123,kapı,1792,81.4214,1566,0.1712,4,harmonic,1,4.910738566,m,w,,,,,,,
,,,,,,,,,,,525303,,001,2024-02-16_21h37.26.045,VH_new_version2,2023.2.3,Win32,59.88023952,418.995,419.9944,,,,,,,,,,,,,,,,,,,,,,,,,,419.9944,420.4443,m,1,0.4303,,420.4443,420.4445,,0,197,197,138,1,139,ödül,1063,48.2985,926,0.1012,4,harmonic,1.7,4.683933643,m,w,,,,,,,
,,,,,,,,,,,525303,,001,2024-02-16_21h37.26.045,VH_new_version2,2023.2.3,Win32,59.88023952,420.445,421.4442,,,,,,,,,,,,,,,,,,,,,,,,,,421.4443,421.8275,m,1,0.3744,,421.8276,421.8277,,0,198,198,41,1,42,hayal,4498,204.3713,4079,0.4459,5,harmonic,1.45,5.310419907,m,w,,,,,,,
,,,,,,,,,,,525303,,001,2024-02-16_21h37.26.045,VH_new_version2,2023.2.3,Win32,59.88023952,421.828,422.8277,,,,,,,,,,,,,,,,,,,,,,,,,,422.8277,423.4608,z,1,0.6138,,423.4608,423.4609,,0,199,199,173,1,174,pirbe,,,,,5,harmonic,1.9,,z,nw,,,,,,,
,,,,,,,,,,,525303,,001,2024-02-16_21h37.26.045,VH_new_version2,2023.2.3,Win32,59.88023952,423.4613,424.4608,,,,,,,,,,,,,,,,,,,,,,,,,,424.4608,425.0939,z,1,0.6246,,425.0939,425.094,,0,200,200,190,1,191,gopuk,,,,,5,harmonic,1.85,,z,nw,,,,,,,
,,,,,,,,,,,525303,,001,2024-02-16_21h37.26.045,VH_new_version2,2023.2.3,Win32,59.88023952,425.0944,426.0939,,,,,,,,,,,,,,,,,,,,,,,,,,426.094,426.9271,z,1,0.8245,,426.9271,426.9272,,0,201,201,151,1,152,uban,,,,,4,harmonic,1.35,,z,nw,,,,,,,
,,,,,,,,,,,525303,,001,2024-02-16_21h37.26.045,VH_new_version2,2023.2.3,Win32,59.88023952,426.9277,427.9271,,,,,,,,,,,,,,,,,,,,,,,,,,427.9271,428.5437,z,1,0.6025,,428.5437,428.5439,,0,202,202,148,1,149,aşıç,,,,,4,harmonic,1.65,,z,nw,,,,,,,
,,,,,,,,,,,525303,,001,2024-02-16_21h37.26.045,VH_new_version2,2023.2.3,Win32,59.88023952,428.5442,429.5437,,,,,,,,,,,,,,,,,,,,,,,,,,429.5437,430.0604,m,1,0.504,,430.0605,430.0606,,0,203,203,102,1,103,toplum,2562,116.4071,2249,0.2459,6,harmonic,1.65,5.06597947,m,w,,,,,,,
,,,,,,,,,,,525303,,001,2024-02-16_21h37.26.045,VH_new_version2,2023.2.3,Win32,59.88023952,430.0611,431.0603,,,,,,,,,,,,,,,,,,,,,,,,,,431.0604,431.7102,m,1,0.6306,,431.7103,431.7104,,0,204,204,33,1,34,sayfa,1655,75.1966,1502,0.1642,5,harmonic,1.45,4.876198204,m,w,,,,,,,
,,,,,,,,,,,525303,,001,2024-02-16_21h37.26.045,VH_new_version2,2023.2.3,Win32,59.88023952,431.7108,432.7102,,,,,,,,,,,,,,,,,,,,,,,,,,432.7102,433.2935,z,1,0.5758,,433.2935,433.2936,,0,205,205,180,1,181,finer,,,,,5,harmonic,1.65,,z,nw,,,,,,,
,,,,,,,,,,,525303,,001,2024-02-16_21h37.26.045,VH_new_version2,2023.2.3,Win32,59.88023952,433.294,434.2935,,,,,,,,,,,,,,,,,,,,,,,,,,434.2935,435.01,z,1,0.698,,435.01,435.0101,,0,206,206,200,1,201,tuzrak,,,,,6,harmonic,1.95,,z,nw,,,,,,,
,,,,,,,,,,,525303,,001,2024-02-16_21h37.26.045,VH_new_version2,2023.2.3,Win32,59.88023952,435.0105,436.01,,,,,,,,,,,,,,,,,,,,,,,,,,436.01,436.6766,z,1,0.6482,,436.6767,436.6768,,0,207,207,224,1,225,faer,,,,,4,notharmonic,1.9,,z,nw,,,,,,,
,,,,,,,,,,,525303,,001,2024-02-16_21h37.26.045,VH_new_version2,2023.2.3,Win32,59.88023952,436.6771,437.6765,,,,,,,,,,,,,,,,,,,,,,,,,,437.6765,438.7431,m,0,1.0478,,438.7432,438.7433,,0,208,208,199,1,200,bartam,,,,,6,harmonic,1.85,,z,nw,,,,,,,
,,,,,,,,,,,525303,,001,2024-02-16_21h37.26.045,VH_new_version2,2023.2.3,Win32,59.88023952,438.7436,439.743,,,,,,,,,,,,,,,,,,,,,,,,,,439.743,440.9597,m,0,1.1974,,440.9597,440.9598,,0,209,209,208,1,209,terbiy,,,,,6,harmonic,1.9,,z,nw,,,,,,,
,,,,,,,,,,,525303,,001,2024-02-16_21h37.26.045,VH_new_version2,2023.2.3,Win32,59.88023952,440.9602,441.9595,,,,,,,,,,,,,,,,,,,,,,,,,,441.9595,442.5928,z,1,0.6173,,442.5928,442.5929,,0,210,210,265,1,266,terhan,,,,,6,notharmonic,1.95,,z,nw,,,,,,,
,,,,,,,,,,,525303,,001,2024-02-16_21h37.26.045,VH_new_version2,2023.2.3,Win32,59.88023952,442.5932,443.5927,,,,,,,,,,,,,,,,,,,,,,,,,,443.5927,444.1759,m,1,0.5764,,444.176,444.176,,0,211,211,15,1,16,ışık,1814,82.421,1635,0.1787,4,harmonic,1.6,4.916037879,m,w,,,,,,,
,,,,,,,,,,,525303,,001,2024-02-16_21h37.26.045,VH_new_version2,2023.2.3,Win32,59.88023952,444.1764,445.1759,,,,,,,,,,,,,,,,,,,,,,,,,,445.176,445.676,m,1,0.4852,,445.6761,465.4578,space,0,212,212,124,1,125,sultan,1756,79.7857,1368,0.1496,6,harmonic,1.55,4.90192506,m,w,19.7729,,,,,,
,,,,,,,,,,,525303,,001,2024-02-16_21h37.26.045,VH_new_version2,2023.2.3,Win32,59.88023952,465.4703,466.4745,,,,,,,,,,,,,,,,,,,,,,,,,,466.4745,466.9588,m,0,0.4781,,466.9589,466.959,,0,213,213,253,1,254,mafke,,,,,5,notharmonic,1.9,,z,nw,,,,,,,
,,,,,,,,,,,525303,,001,2024-02-16_21h37.26.045,VH_new_version2,2023.2.3,Win32,59.88023952,466.9592,467.9576,,,,,,,,,,,,,,,,,,,,,,,,,,467.9576,468.4909,m,1,0.5145,,468.4909,468.4909,,0,214,214,131,1,132,doğa,1381,62.7472,1180,0.129,4,harmonic,1,4.797594351,m,w,,,,,,,
,,,,,,,,,,,525303,,001,2024-02-16_21h37.26.045,VH_new_version2,2023.2.3,Win32,59.88023952,468.4913,469.4908,,,,,,,,,,,,,,,,,,,,,,,,,,469.4908,470.0408,m,1,0.5322,,470.0408,470.0408,,0,215,215,120,1,121,yedi,1880,85.4197,1729,0.189,4,harmonic,1,4.931558042,m,w,,,,,,,
,,,,,,,,,,,525303,,001,2024-02-16_21h37.26.045,VH_new_version2,2023.2.3,Win32,59.88023952,470.0412,471.0407,,,,,,,,,,,,,,,,,,,,,,,,,,471.0407,471.5747,m,1,0.5283,,471.5748,471.575,,0,216,216,126,1,127,millet,1658,75.3329,1508,0.1649,6,harmonic,1.7,4.876984686,m,w,,,,,,,
,,,,,,,,,,,525303,,001,2024-02-16_21h37.26.045,VH_new_version2,2023.2.3,Win32,59.88023952,471.5756,472.5739,,,,,,,,,,,,,,,,,,,,,,,,,,472.5739,472.9737,m,1,0.3879,,472.9737,472.9738,,0,217,217,45,1,46,akşam,7480,339.8615,6833,0.747,5,harmonic,1.6,5.53130197,m,w,,,,,,,
,,,,,,,,,,,525303,,001,2024-02-16_21h37.26.045,VH_new_version2,2023.2.3,Win32,59.88023952,472.9741,473.9738,,,,,,,,,,,,,,,,,,,,,,,,,,473.9738,474.3736,m,0,0.3862,,474.3737,474.3737,,0,218,218,269,1,270,sakate,,,,,6,notharmonic,1.8,,z,nw,,,,,,,
,,,,,,,,,,,525303,,001,2024-02-16_21h37.26.045,VH_new_version2,2023.2.3,Win32,59.88023952,474.3741,475.3736,,,,,,,,,,,,,,,,,,,,,,,,,,475.3736,475.8902,m,1,0.5019,,475.8902,475.8903,,0,219,219,127,1,128,kaynak,1577,71.6526,1481,0.1619,6,harmonic,1.4,4.855231954,m,w,,,,,,,
,,,,,,,,,,,525303,,001,2024-02-16_21h37.26.045,VH_new_version2,2023.2.3,Win32,59.88023952,475.8908,476.8902,,,,,,,,,,,,,,,,,,,,,,,,,,476.8902,477.4901,m,1,0.5885,,477.4901,477.4901,,0,220,220,67,1,68,sosyal,5290,240.3566,4372,0.4779,6,harmonic,1.85,5.380856052,m,w,,,,,,,
,,,,,,,,,,,525303,,001,2024-02-16_21h37.26.045,VH_new_version2,2023.2.3,Win32,59.88023952,477.4906,478.4902,,,,,,,,,,,,,,,,,,,,,,,,,,478.4902,479.1401,z,1,0.6318,,479.1401,479.1402,,0,221,221,156,1,157,obık,,,,,4,harmonic,1.95,,z,nw,,,,,,,
,,,,,,,,,,,525303,,001,2024-02-16_21h37.26.045,VH_new_version2,2023.2.3,Win32,59.88023952,479.1405,480.1399,,,,,,,,,,,,,,,,,,,,,,,,,,480.14,480.7566,m,0,0.5988,,480.7567,480.7567,,0,222,222,244,1,245,kimık,,,,,5,notharmonic,2,,z,nw,,,,,,,
,,,,,,,,,,,525303,,001,2024-02-16_21h37.26.045,VH_new_version2,2023.2.3,Win32,59.88023952,480.7571,481.7566,,,,,,,,,,,,,,,,,,,,,,,,,,481.7567,482.7563,z,1,0.9918,,482.7563,482.7565,,0,223,223,212,1,213,yeryek,,,,,6,harmonic,1.9,,z,nw,,,,,,,
,,,,,,,,,,,525303,,001,2024-02-16_21h37.26.045,VH_new_version2,2023.2.3,Win32,59.88023952,482.7568,483.7564,,,,,,,,,,,,,,,,,,,,,,,,,,483.7565,484.2897,m,1,0.5149,,484.2897,484.2899,,0,224,224,111,1,112,balık,2189,99.4595,1817,0.1986,5,harmonic,1,4.997646272,m,w,,,,,,,
,,,,,,,,,,,525303,,001,2024-02-16_21h37.26.045,VH_new_version2,2023.2.3,Win32,59.88023952,484.2904,485.2897,,,,,,,,,,,,,,,,,,,,,,,,,,485.2897,485.8061,m,1,0.5095,,485.8062,485.8063,,0,225,225,125,1,126,bardak,1728,78.5135,1569,0.1715,6,harmonic,1.6,4.894944338,m,w,,,,,,,
,,,,,,,,,,,525303,,001,2024-02-16_21h37.26.045,VH_new_version2,2023.2.3,Win32,59.88023952,485.8067,486.8061,,,,,,,,,,,,,,,,,,,,,,,,,,486.8061,487.5727,z,1,0.7481,,487.5727,487.5728,,0,226,226,178,1,179,güzül,,,,,5,harmonic,1.65,,z,nw,,,,,,,
,,,,,,,,,,,525303,,001,2024-02-16_21h37.26.045,VH_new_version2,2023.2.3,Win32,59.88023952,487.5734,488.5726,,,,,,,,,,,,,,,,,,,,,,,,,,488.5726,489.0392,m,1,0.4565,,489.0392,489.0393,,0,227,227,92,1,93,yarın,3440,156.3,3222,0.3522,5,harmonic,1,5.193958978,m,w,,,,,,,
,,,,,,,,,,,525303,,001,2024-02-16_21h37.26.045,VH_new_version2,2023.2.3,Win32,59.88023952,489.0397,490.0393,,,,,,,,,,,,,,,,,,,,,,,,,,490.0393,490.8558,m,1,0.8027,,490.8558,490.8559,,0,228,228,6,1,7,avuç,729,33.1229,659,0.072,4,harmonic,1.85,4.520128353,m,w,,,,,,,
,,,,,,,,,,,525303,,001,2024-02-16_21h37.26.045,VH_new_version2,2023.2.3,Win32,59.88023952,490.8564,491.8558,,,,,,,,,,,,,,,,,,,,,,,,,,491.8558,492.3058,m,1,0.4442,,492.3059,492.3059,,0,229,229,86,1,87,takım,4370,198.5555,3726,0.4073,5,harmonic,1,5.297881922,m,w,,,,,,,
,,,,,,,,,,,525303,,001,2024-02-16_21h37.26.045,VH_new_version2,2023.2.3,Win32,59.88023952,492.3062,493.3057,,,,,,,,,,,,,,,,,,,,,,,,,,493.3057,493.7224,m,1,0.3981,,493.7224,493.7225,,0,230,230,9,1,10,uçak,894,40.6198,752,0.0822,4,harmonic,1.4,4.608737781,m,w,,,,,,,
,,,,,,,,,,,525303,,001,2024-02-16_21h37.26.045,VH_new_version2,2023.2.3,Win32,59.88023952,493.7229,494.7222,,,,,,,,,,,,,,,,,,,,,,,,,,494.7222,495.1222,m,0,0.3812,,495.1222,495.1223,,0,231,231,260,1,261,dülda,,,,,5,notharmonic,1.95,,z,nw,,,,,,,
,,,,,,,,,,,525303,,001,2024-02-16_21h37.26.045,VH_new_version2,2023.2.3,Win32,59.88023952,495.1227,496.1222,,,,,,,,,,,,,,,,,,,,,,,,,,496.1222,496.8055,z,1,0.6709,,496.8055,496.8056,,0,232,232,185,1,186,birpi,,,,,5,harmonic,1.75,,z,nw,,,,,,,
,,,,,,,,,,,525303,,001,2024-02-16_21h37.26.045,VH_new_version2,2023.2.3,Win32,59.88023952,496.8061,497.8054,,,,,,,,,,,,,,,,,,,,,,,,,,497.8054,498.3219,m,1,0.5083,,498.3219,498.3221,,0,233,233,101,1,102,okul,2685,121.9958,2381,0.2603,4,harmonic,1.35,5.086344879,m,w,,,,,,,
,,,,,,,,,,,525303,,001,2024-02-16_21h37.26.045,VH_new_version2,2023.2.3,Win32,59.88023952,498.3224,499.322,,,,,,,,,,,,,,,,,,,,,,,,,,499.322,500.0384,z,1,0.7031,,500.0384,500.0385,,0,234,234,163,1,164,küvü,,,,,4,harmonic,1.7,,z,nw,,,,,,,
,,,,,,,,,,,525303,,001,2024-02-16_21h37.26.045,VH_new_version2,2023.2.3,Win32,59.88023952,500.0387,501.0384,,,,,,,,,,,,,,,,,,,,,,,,,,501.0384,501.6051,m,1,0.5475,,501.6052,501.6052,,0,235,235,63,1,64,hizmet,3023,137.3531,2689,0.294,6,harmonic,1.75,5.137838466,m,w,,,,,,,
,,,,,,,,,,,525303,,001,2024-02-16_21h37.26.045,VH_new_version2,2023.2.3,Win32,59.88023952,501.6056,502.605,,,,,,,,,,,,,,,,,,,,,,,,,,502.605,503.1217,m,1,0.4982,,503.1217,503.1218,,0,236,236,64,1,65,teknik,3297,149.8026,2798,0.3059,6,harmonic,1.9,5.175519351,m,w,,,,,,,
,,,,,,,,,,,525303,,001,2024-02-16_21h37.26.045,VH_new_version2,2023.2.3,Win32,59.88023952,503.1223,504.1215,,,,,,,,,,,,,,,,,,,,,,,,,,504.1216,504.588,m,1,0.453,,504.5881,504.5881,,0,237,237,10,1,11,eser,958,43.5277,892,0.0975,4,harmonic,1,4.63876572,m,w,,,,,,,
,,,,,,,,,,,525303,,001,2024-02-16_21h37.26.045,VH_new_version2,2023.2.3,Win32,59.88023952,504.5885,505.5881,,,,,,,,,,,,,,,,,,,,,,,,,,505.5881,506.1547,z,1,0.5498,,506.1547,506.1549,,0,238,238,230,1,231,asez,,,,,4,notharmonic,1.9,,z,nw,,,,,,,
,,,,,,,,,,,525303,,001,2024-02-16_21h37.26.045,VH_new_version2,2023.2.3,Win32,59.88023952,506.1552,507.1546,,,,,,,,,,,,,,,,,,,,,,,,,,507.1546,507.6213,m,0,0.4486,,507.6213,507.6214,,0,239,239,182,1,183,tesil,,,,,5,harmonic,1.45,,z,nw,,,,,,,
,,,,,,,,,,,525303,,001,2024-02-16_21h37.26.045,VH_new_version2,2023.2.3,Win32,59.88023952,507.6218,508.6212,,,,,,,,,,,,,,,,,,,,,,,,,,508.6212,509.4544,z,1,0.8237,,509.4544,509.4545,,0,240,240,277,1,278,şeylam,,,,,6,notharmonic,2,,z,nw,,,,,,,
,,,,,,,,,,,525303,,001,2024-02-16_21h37.26.045,VH_new_version2,2023.2.3,Win32,59.88023952,509.4549,510.4544,,,,,,,,,,,,,,,,,,,,,,,,,,510.4544,511.0542,z,1,0.5886,,511.0542,511.0544,,0,241,241,235,1,236,mate,,,,,4,notharmonic,1.65,,z,nw,,,,,,,
,,,,,,,,,,,525303,,001,2024-02-16_21h37.26.045,VH_new_version2,2023.2.3,Win32,59.88023952,511.0547,512.0543,,,,,,,,,,,,,,,,,,,,,,,,,,512.0543,512.8042,z,1,0.7428,,512.8043,512.8044,,0,242,242,216,1,217,same,,,,,4,notharmonic,1.6,,z,nw,,,,,,,
,,,,,,,,,,,525303,,001,2024-02-16_21h37.26.045,VH_new_version2,2023.2.3,Win32,59.88023952,512.8048,513.8041,,,,,,,,,,,,,,,,,,,,,,,,,,513.8041,514.3374,m,1,0.5141,,514.3375,514.3376,,0,243,243,28,1,29,melek,878,39.8928,773,0.0845,5,harmonic,1.1,4.60089452,m,w,,,,,,,
,,,,,,,,,,,525303,,001,2024-02-16_21h37.26.045,VH_new_version2,2023.2.3,Win32,59.88023952,514.338,515.3372,,,,,,,,,,,,,,,,,,,,,,,,,,515.3372,516.0373,z,1,0.682,,516.0374,516.0374,,0,244,244,281,1,282,tashin,,,,,6,notharmonic,1.85,,z,nw,,,,,,,
,,,,,,,,,,,525303,,001,2024-02-16_21h37.26.045,VH_new_version2,2023.2.3,Win32,59.88023952,516.0378,517.0372,,,,,,,,,,,,,,,,,,,,,,,,,,517.0372,517.5206,m,0,0.4763,,517.5207,517.5209,,0,245,245,175,1,176,sakça,,,,,5,harmonic,1.55,,z,nw,,,,,,,
,,,,,,,,,,,525303,,001,2024-02-16_21h37.26.045,VH_new_version2,2023.2.3,Win32,59.88023952,517.5213,518.5205,,,,,,,,,,,,,,,,,,,,,,,,,,518.5205,519.6536,z,1,1.1196,,519.6536,519.6538,,0,246,246,161,1,162,mağa,,,,,4,harmonic,1.15,,z,nw,,,,,,,
,,,,,,,,,,,525303,,001,2024-02-16_21h37.26.045,VH_new_version2,2023.2.3,Win32,59.88023952,519.6542,520.6536,,,,,,,,,,,,,,,,,,,,,,,,,,520.6536,521.5534,m,0,0.8915,,521.5534,521.5535,,0,247,247,240,1,241,makek,,,,,5,notharmonic,1.9,,z,nw,,,,,,,
,,,,,,,,,,,525303,,001,2024-02-16_21h37.26.045,VH_new_version2,2023.2.3,Win32,59.88023952,521.5537,522.5534,,,,,,,,,,,,,,,,,,,,,,,,,,522.5534,523.2206,m,1,0.6483,,523.2206,523.2207,,0,248,248,75,1,76,dergi,657,29.8515,592,0.0647,5,harmonic,1.3,4.474966159,m,w,,,,,,,
,,,,,,,,,,,525303,,001,2024-02-16_21h37.26.045,VH_new_version2,2023.2.3,Win32,59.88023952,523.2214,524.2199,,,,,,,,,,,,,,,,,,,,,,,,,,524.22,524.6532,m,1,0.4195,,524.6532,524.6533,,0,249,249,24,1,25,dokuz,802,36.4397,646,0.0706,5,harmonic,1.55,4.561574793,m,w,,,,,,,
,,,,,,,,,,,525303,,001,2024-02-16_21h37.26.045,VH_new_version2,2023.2.3,Win32,59.88023952,524.6537,525.6532,,,,,,,,,,,,,,,,,,,,,,,,,,525.6533,526.0031,m,0,0.3347,,526.0031,526.0032,,0,250,250,217,1,218,heka,,,,,4,notharmonic,1.75,,z,nw,,,,,,,
,,,,,,,,,,,525303,,001,2024-02-16_21h37.26.045,VH_new_version2,2023.2.3,Win32,59.88023952,526.0035,527.0031,,,,,,,,,,,,,,,,,,,,,,,,,,527.0031,527.6531,z,1,0.6328,,527.6531,527.6532,,0,251,251,233,1,234,eali,,,,,4,notharmonic,1,,z,nw,,,,,,,
,,,,,,,,,,,525303,,001,2024-02-16_21h37.26.045,VH_new_version2,2023.2.3,Win32,59.88023952,527.6536,528.6529,,,,,,,,,,,,,,,,,,,,,,,,,,528.653,529.1529,m,1,0.4933,,529.153,529.1531,,0,252,252,38,1,39,fikir,2552,115.9528,2413,0.2638,5,harmonic,1.9,5.06428124,m,w,,,,,,,
,,,,,,,,,,,525303,,001,2024-02-16_21h37.26.045,VH_new_version2,2023.2.3,Win32,59.88023952,529.1534,530.1529,,,,,,,,,,,,,,,,,,,,,,,,,,530.1529,530.9362,z,1,0.7693,,530.9362,530.9365,,0,253,253,250,1,251,hapef,,,,,5,notharmonic,1.95,,z,nw,,,,,,,
,,,,,,,,,,,525303,,001,2024-02-16_21h37.26.045,VH_new_version2,2023.2.3,Win32,59.88023952,530.9368,531.9362,,,,,,,,,,,,,,,,,,,,,,,,,,531.9362,532.7858,z,1,0.8382,,532.7858,532.786,,0,254,254,169,1,170,senez,,,,,5,harmonic,1.65,,z,nw,,,,,,,
,,,,,,,,,,,525303,,001,2024-02-16_21h37.26.045,VH_new_version2,2023.2.3,Win32,59.88023952,532.7863,533.7859,,,,,,,,,,,,,,,,,,,,,,,,,,533.7859,534.2525,m,1,0.4604,,534.2525,534.2527,,0,255,255,20,1,21,süre,8679,394.3393,8119,0.8876,4,harmonic,1,5.595870061,m,w,,,,,,,
,,,,,,,,,,,525303,,001,2024-02-16_21h37.26.045,VH_new_version2,2023.2.3,Win32,59.88023952,534.2531,535.2524,,,,,,,,,,,,,,,,,,,,,,,,,,535.2524,535.8357,m,1,0.5643,,535.8358,535.8359,,0,256,256,132,1,133,abla,1287,58.4762,1156,0.1264,4,harmonic,1,4.766979143,m,w,,,,,,,
,,,,,,,,,,,525303,,001,2024-02-16_21h37.26.045,VH_new_version2,2023.2.3,Win32,59.88023952,535.8363,536.8356,,,,,,,,,,,,,,,,,,,,,,,,,,536.8357,537.9189,z,1,1.065,,537.919,537.919,,0,257,257,167,1,168,ontan,,,,,5,harmonic,1.6,,z,nw,,,,,,,
,,,,,,,,,,,525303,,001,2024-02-16_21h37.26.045,VH_new_version2,2023.2.3,Win32,59.88023952,537.9195,538.9189,,,,,,,,,,,,,,,,,,,,,,,,,,538.9189,539.7688,z,1,0.832,,539.7688,539.7689,,0,258,258,266,1,267,ebvace,,,,,6,notharmonic,2.95,,z,nw,,,,,,,
,,,,,,,,,,,525303,,001,2024-02-16_21h37.26.045,VH_new_version2,2023.2.3,Win32,59.88023952,539.7692,540.7688,,,,,,,,,,,,,,,,,,,,,,,,,,540.7688,541.2354,m,1,0.4598,,541.2354,541.2355,,0,259,259,34,1,35,çorba,1674,76.0599,1513,0.1654,5,harmonic,1.75,4.88115575,m,w,,,,,,,
,,,,,,,,,,,525303,,001,2024-02-16_21h37.26.045,VH_new_version2,2023.2.3,Win32,59.88023952,541.2358,542.2353,,,,,,,,,,,,,,,,,,,,,,,,,,542.2353,542.7352,m,1,0.4917,,542.7352,542.7353,,0,260,260,116,1,117,nokta,2085,94.7341,1939,0.212,5,harmonic,1.5,4.976506334,m,w,,,,,,,
,,,,,,,,,,,525303,,001,2024-02-16_21h37.26.045,VH_new_version2,2023.2.3,Win32,59.88023952,542.7357,543.7352,,,,,,,,,,,,,,,,,,,,,,,,,,543.7352,544.6685,m,0,0.915,,544.6686,544.6687,,0,261,261,276,1,277,hiyake,,,,,6,notharmonic,2.25,,z,nw,,,,,,,
,,,,,,,,,,,525303,,001,2024-02-16_21h37.26.045,VH_new_version2,2023.2.3,Win32,59.88023952,544.6694,545.6683,,,,,,,,,,,,,,,,,,,,,,,,,,545.6683,546.2017,m,1,0.5173,,546.2017,546.2018,,0,262,262,23,1,24,evet,12599,572.4486,11447,1.2514,4,harmonic,1.65,5.757736498,m,w,,,,,,,
,,,,,,,,,,,525303,,001,2024-02-16_21h37.26.045,VH_new_version2,2023.2.3,Win32,59.88023952,546.2022,547.2016,,,,,,,,,,,,,,,,,,,,,,,,,,547.2016,547.8848,z,1,0.673,,547.8849,547.885,,0,263,263,152,1,153,ebür,,,,,4,harmonic,1.95,,z,nw,,,,,,,
,,,,,,,,,,,525303,,001,2024-02-16_21h37.26.045,VH_new_version2,2023.2.3,Win32,59.88023952,547.8855,548.8848,,,,,,,,,,,,,,,,,,,,,,,,,,548.8848,549.3681,m,1,0.4644,,549.3682,549.3683,,0,264,264,35,1,36,araba,1704,77.423,1485,0.1623,5,harmonic,1,4.888869995,m,w,,,,,,,
,,,,,,,,,,,525303,,001,2024-02-16_21h37.26.045,VH_new_version2,2023.2.3,Win32,59.88023952,549.3686,550.368,,,,,,,,,,,,,,,,,,,,,,,,,,550.368,551.1013,z,1,0.7162,,551.1014,551.1014,,0,265,265,183,1,184,çapal,,,,,5,harmonic,1.6,,z,nw,,,,,,,
,,,,,,,,,,,525303,,001,2024-02-16_21h37.26.045,VH_new_version2,2023.2.3,Win32,59.88023952,551.1019,552.1013,,,,,,,,,,,,,,,,,,,,,,,,,,552.1014,552.7844,m,0,0.666,,552.7845,552.7846,,0,266,266,247,1,248,fiyan,,,,,5,notharmonic,1.6,,z,nw,,,,,,,
,,,,,,,,,,,525303,,001,2024-02-16_21h37.26.045,VH_new_version2,2023.2.3,Win32,59.88023952,552.7848,553.7843,,,,,,,,,,,,,,,,,,,,,,,,,,553.7844,554.2178,m,1,0.4147,,554.2178,554.2179,,0,267,267,128,1,129,merkez,1445,65.6551,1255,0.1372,6,harmonic,1.8,4.817268467,m,w,,,,,,,
,,,,,,,,,,,525303,,001,2024-02-16_21h37.26.045,VH_new_version2,2023.2.3,Win32,59.88023952,554.2184,555.2176,,,,,,,,,,,,,,,,,,,,,,,,,,555.2176,555.6677,m,1,0.4433,,555.6677,555.6678,,0,268,268,98,1,99,bilim,2828,128.4931,2382,0.2604,5,harmonic,1,5.108879807,m,w,,,,,,,
,,,,,,,,,,,525303,,001,2024-02-16_21h37.26.045,VH_new_version2,2023.2.3,Win32,59.88023952,555.6681,556.6675,,,,,,,,,,,,,,,,,,,,,,,,,,556.6675,557.0174,m,1,0.3392,,557.0175,557.0176,,0,269,269,69,1,70,yüksek,7909,359.3536,7119,0.7783,6,harmonic,1.7,5.555522,m,w,,,,,,,
,,,,,,,,,,,525303,,001,2024-02-16_21h37.26.045,VH_new_version2,2023.2.3,Win32,59.88023952,557.0178,558.0174,,,,,,,,,,,,,,,,,,,,,,,,,,558.0175,558.3673,m,0,0.3342,,558.3674,558.3674,,0,270,270,236,1,237,alte,,,,,4,notharmonic,1.7,,z,nw,,,,,,,
,,,,,,,,,,,525303,,001,2024-02-16_21h37.26.045,VH_new_version2,2023.2.3,Win32,59.88023952,558.3678,559.3673,,,,,,,,,,,,,,,,,,,,,,,,,,559.3673,559.8673,m,1,0.4868,,559.8673,559.8674,,0,271,271,70,1,71,gerçek,8983,408.1519,8058,0.8809,6,harmonic,1.7,5.610821823,m,w,,,,,,,
,,,,,,,,,,,525303,,001,2024-02-16_21h37.26.045,VH_new_version2,2023.2.3,Win32,59.88023952,559.8677,560.8672,,,,,,,,,,,,,,,,,,,,,,,,,,560.8672,561.4672,z,1,0.5884,,561.4672,561.4672,,0,272,272,274,1,275,çanese,,,,,6,notharmonic,2,,z,nw,,,,,,,
,,,,,,,,,,,525303,,001,2024-02-16_21h37.26.045,VH_new_version2,2023.2.3,Win32,59.88023952,561.4676,562.4671,,,,,,,,,,,,,,,,,,,,,,,,,,562.4671,562.9838,m,1,0.4977,,562.9838,562.9838,,0,273,273,39,1,40,mayıs,2630,119.4968,2294,0.2508,5,harmonic,1.75,5.077356275,m,w,,,,,,,
,,,,,,,,,,,525303,,001,2024-02-16_21h37.26.045,VH_new_version2,2023.2.3,Win32,59.88023952,562.9841,563.9838,,,,,,,,,,,,,,,,,,,,,,,,,,563.9838,564.4336,m,1,0.431,,564.4337,564.4338,,0,274,274,77,1,78,çanta,639,29.0336,551,0.0602,5,harmonic,1.6,4.462900889,m,w,,,,,,,
,,,,,,,,,,,525303,,001,2024-02-16_21h37.26.045,VH_new_version2,2023.2.3,Win32,59.88023952,564.4341,565.4336,,,,,,,,,,,,,,,,,,,,,,,,,,565.4337,565.8501,m,1,0.4016,,565.8501,565.8504,,0,275,275,58,1,59,toprak,1989,90.3723,1762,0.1926,6,harmonic,1.9,4.956035335,m,w,,,,,,,
,,,,,,,,,,,525303,,001,2024-02-16_21h37.26.045,VH_new_version2,2023.2.3,Win32,59.88023952,565.8506,566.8501,,,,,,,,,,,,,,,,,,,,,,,,,,566.8502,568,m,0,1.1313,,568.0001,568.0002,,0,276,276,210,1,211,bellet,,,,,6,harmonic,1.65,,z,nw,,,,,,,
,,,,,,,,,,,525303,,001,2024-02-16_21h37.26.045,VH_new_version2,2023.2.3,Win32,59.88023952,568.0006,569,,,,,,,,,,,,,,,,,,,,,,,,,,569,569.5666,m,1,0.5575,,569.5666,569.5667,,0,277,277,137,1,138,mutfak,1110,50.434,1032,0.1128,6,harmonic,1.95,4.702723414,m,w,,,,,,,
,,,,,,,,,,,525303,,001,2024-02-16_21h37.26.045,VH_new_version2,2023.2.3,Win32,59.88023952,569.567,570.5666,,,,,,,,,,,,,,,,,,,,,,,,,,570.5666,571.2998,z,1,0.7249,,571.2998,571.3,,0,278,278,205,1,206,hücmet,,,,,6,harmonic,1.85,,z,nw,,,,,,,
,,,,,,,,,,,525303,,001,2024-02-16_21h37.26.045,VH_new_version2,2023.2.3,Win32,59.88023952,571.3002,572.2998,,,,,,,,,,,,,,,,,,,,,,,,,,572.2998,572.7329,m,1,0.4223,,572.733,572.733,,0,279,279,56,1,57,meslek,1082,49.1618,976,0.1067,6,harmonic,1.9,4.691627776,m,w,,,,,,,
,,,,,,,,,,,525303,,001,2024-02-16_21h37.26.045,VH_new_version2,2023.2.3,Win32,59.88023952,572.7333,573.7329,,,,,,,,,,,,,,,,,,,,,,,,,,573.733,574.1496,m,0,0.3978,,574.1496,574.1497,,0,280,280,179,1,180,şünle,,,,,5,harmonic,1.75,,z,nw,,,,,,,
,,,,,,,,,,,525303,,001,2024-02-16_21h37.26.045,VH_new_version2,2023.2.3,Win32,59.88023952,574.1501,575.1497,,,,,,,,,,,,,,,,,,,,,,,,,,575.1497,575.9326,z,1,0.7725,,575.9327,575.9328,,0,281,281,203,1,204,yağcır,,,,,6,harmonic,1.9,,z,nw,,,,,,,
,,,,,,,,,,,525303,,001,2024-02-16_21h37.26.045,VH_new_version2,2023.2.3,Win32,59.88023952,575.9331,576.9326,,,,,,,,,,,,,,,,,,,,,,,,,,576.9327,577.4826,m,1,0.537,,577.4826,577.4826,,0,282,282,55,1,56,zeytin,904,41.0742,758,0.0829,6,harmonic,1.85,4.613569113,m,w,,,,,,,
,,,,,,,,,,,525303,,001,2024-02-16_21h37.26.045,VH_new_version2,2023.2.3,Win32,59.88023952,577.4829,578.4826,,,,,,,,,,,,,,,,,,,,,,,,,,578.4826,578.9659,m,0,0.4768,,578.9659,587.0989,space,0,283,283,248,1,249,talif,,,,,5,notharmonic,1.5,,z,nw,8.1164,,,,,,
,,,,,,,,,,,525303,,001,2024-02-16_21h37.26.045,VH_new_version2,2023.2.3,Win32,59.88023952,,,,,,,,,,,,,,,,,,,,,,,,,,,,,,,,,,,,,,,,,,,,,,,,,,,,,,,,587.1123,590.2487,space,3.127,