welcome.started,welcome.stopped,key_resp_welc.keys,key_resp_welc.rt,key_resp_welc.duration,trials_2.thisRepN,trials_2.thisTrialN,trials_2.thisN,trials_2.thisIndex,trials_2.ran,Introduction,participant,Email Adresiniz,session,date,expName,psychopyVersion,OS,frameRate,fix.started,fix.stopped,Studypractice.started,Studypractice.stopped,key_resp_p.keys,key_resp_p.corr,key_resp_p.rt,key_resp_p.duration,rt,corr,FB.started,FB.stopped,trials.thisRepN,trials.thisTrialN,trials.thisN,trials.thisIndex,trials.ran,item_nr_p,target_p,isHarmonic_p,target_cond_p,CorrAns_p,inst2.started,inst2.stopped,key_resp_xx.keys,key_resp_xx.rt,key_resp_xx.duration,TestTrial.started,TestTrial.stopped,key_respTest.keys,key_respTest.corr,key_respTest.rt,key_respTest.duration,Pause.started,Pause.stopped,key_resp_pause.keys,trials_3.thisRepN,trials_3.thisTrialN,trials_3.thisN,trials_3.thisIndex,trials_3.ran,item_nr,target,BlogFreq,BlogFreqPm,BlogCD,BlogCDPc,WordLength,isHarmonic,old20,Zipf,CorrAns,word_cond,key_resp_pause.rt,key_resp_pause.duration,Bye.started,Bye.stopped,key_resp_bye.keys,key_resp_bye.rt,key_resp_bye.duration
0.0861,2.6281,space,2.4941,,0,0,0,0,1,"Deneye hoş geldiniz,

Devam etmek için BOŞLUK tuşuna basınız.",579302,zxzczcczxzvvznzznznzznnmmnmmma,001,2024-02-15_17h02.41.402,VH_new_version2,2023.2.3,Win32,60.24096386,,,,,,,,,,,,,,,,,,,,,,,,,,,,,,,,,,,,,,,,,,,,,,,,,,,,,,,,,,,,
2.63,3.7441,space,1.0579,,0,1,1,1,1,"Bu çalışma Valencia Üniversitesi kapsamında yürütülmektedir. Deneydeki göreviniz, ekrana çıkacak Türkçe sözcüklerin kelime olup olmadığını belirlemenizdir. Eğer sözcük gerçek bir kelime ise ""m"" tuşuna, değil ise ""z"" tuşuna basınız.   

Devam etmek için BOŞLUK tuşuna basınız.",579302,zxzczcczxzvvznzznznzznnmmnmmma,001,2024-02-15_17h02.41.402,VH_new_version2,2023.2.3,Win32,60.24096386,,,,,,,,,,,,,,,,,,,,,,,,,,,,,,,,,,,,,,,,,,,,,,,,,,,,,,,,,,,,
3.7453,4.5275,space,0.7461,,0,2,2,2,1,"Her sözcük için en fazla iki saniyede cevap vermeniz beklenmektedir. Aksi takdirde deney bir sonraki sözcük ile devam eder. 
Bu çalışmada oldukça hızlı ve doğru cevaplama yapmanız beklenmektedir.

Devam etmek için BOŞLUK tuşuna basınız.",579302,zxzczcczxzvvznzznznzznnmmnmmma,001,2024-02-15_17h02.41.402,VH_new_version2,2023.2.3,Win32,60.24096386,,,,,,,,,,,,,,,,,,,,,,,,,,,,,,,,,,,,,,,,,,,,,,,,,,,,,,,,,,,,
4.5284,5.6443,space,1.0842,,0,3,3,3,1,"Çalışmaya başlamadan önce ufak bir pratik yer almaktadır.
Kelimedir: ""m""
Kelime değildir: ""z""

Pratik teste başlamak için BOŞLUK tuşuna basınız. ",579302,zxzczcczxzvvznzznznzznnmmnmmma,001,2024-02-15_17h02.41.402,VH_new_version2,2023.2.3,Win32,60.24096386,,,,,,,,,,,,,,,,,,,,,,,,,,,,,,,,,,,,,,,,,,,,,,,,,,,,,,,,,,,,
,,,,,,,,,,,579302,zxzczcczxzvvznzznznzznnmmnmmma,001,2024-02-15_17h02.41.402,VH_new_version2,2023.2.3,Win32,60.24096386,5.676,6.6612,6.6617,11.1292,m,0,4.4379,,4.4379,0,11.1296,12.1287,0,0,0,13,1,14,orat,harmonic,nw,z,,,,,,,,,,,,,,,,,,,,,,,,,,,,,,,,,,,,,,
,,,,,,,,,,,579302,zxzczcczxzvvznzznznzznnmmnmmma,001,2024-02-15_17h02.41.402,VH_new_version2,2023.2.3,Win32,60.24096386,12.1298,13.1285,13.1286,14.7281,m,1,1.5858,,1.5858,1,14.7281,15.729,0,1,1,8,1,9,bilim,harmonic,word,m,,,,,,,,,,,,,,,,,,,,,,,,,,,,,,,,,,,,,,
,,,,,,,,,,,579302,zxzczcczxzvvznzznznzznnmmnmmma,001,2024-02-15_17h02.41.402,VH_new_version2,2023.2.3,Win32,60.24096386,15.7299,16.729,16.729,17.4459,z,1,0.699,,0.699,1,17.446,18.4458,0,2,2,20,1,21,yoğuk,harmonic,nw,z,,,,,,,,,,,,,,,,,,,,,,,,,,,,,,,,,,,,,,
,,,,,,,,,,,579302,zxzczcczxzvvznzznznzznnmmnmmma,001,2024-02-15_17h02.41.402,VH_new_version2,2023.2.3,Win32,60.24096386,18.4465,19.4458,19.4458,20.1294,z,1,0.6601,,0.6601,1,20.1295,21.1296,0,3,3,23,1,24,zarim,notharmonic,nw,z,,,,,,,,,,,,,,,,,,,,,,,,,,,,,,,,,,,,,,
,,,,,,,,,,,579302,zxzczcczxzvvznzznznzznnmmnmmma,001,2024-02-15_17h02.41.402,VH_new_version2,2023.2.3,Win32,60.24096386,21.1301,22.1294,22.1295,22.8466,z,1,0.6933,,0.6933,1,22.8467,23.8468,0,4,4,12,1,13,tahip,notharmonic,nw,z,,,,,,,,,,,,,,,,,,,,,,,,,,,,,,,,,,,,,,
,,,,,,,,,,,579302,zxzczcczxzvvznzznznzznnmmnmmma,001,2024-02-15_17h02.41.402,VH_new_version2,2023.2.3,Win32,60.24096386,23.8476,24.8467,24.8468,25.4801,m,1,0.6081,,0.6081,1,25.4802,26.4805,0,5,5,4,1,5,soğuk,harmonic,word,m,,,,,,,,,,,,,,,,,,,,,,,,,,,,,,,,,,,,,,
,,,,,,,,,,,579302,zxzczcczxzvvznzznznzznnmmnmmma,001,2024-02-15_17h02.41.402,VH_new_version2,2023.2.3,Win32,60.24096386,26.4811,27.4807,27.4808,28.0463,m,1,0.5463,,0.5463,1,28.0463,29.0476,0,6,6,3,1,4,sevgi,harmonic,word,m,,,,,,,,,,,,,,,,,,,,,,,,,,,,,,,,,,,,,,
,,,,,,,,,,,579302,zxzczcczxzvvznzznznzznnmmnmmma,001,2024-02-15_17h02.41.402,VH_new_version2,2023.2.3,Win32,60.24096386,29.0483,30.0479,30.048,30.5979,m,1,0.5293,,0.5293,1,30.598,31.5981,0,7,7,11,1,12,teslim,harmonic,word,m,,,,,,,,,,,,,,,,,,,,,,,,,,,,,,,,,,,,,,
,,,,,,,,,,,579302,zxzczcczxzvvznzznznzznnmmnmmma,001,2024-02-15_17h02.41.402,VH_new_version2,2023.2.3,Win32,60.24096386,31.5988,32.5982,32.5983,33.2145,m,1,0.5944,,0.5944,1,33.2146,34.2151,0,8,8,7,1,8,oran,harmonic,word,m,,,,,,,,,,,,,,,,,,,,,,,,,,,,,,,,,,,,,,
,,,,,,,,,,,579302,zxzczcczxzvvznzznznzznnmmnmmma,001,2024-02-15_17h02.41.402,VH_new_version2,2023.2.3,Win32,60.24096386,34.2157,35.2153,35.2154,35.7652,m,1,0.5262,,0.5262,1,35.7653,36.7655,0,9,9,0,1,1,hazır,harmonic,word,m,,,,,,,,,,,,,,,,,,,,,,,,,,,,,,,,,,,,,,
,,,,,,,,,,,579302,zxzczcczxzvvznzznznzznnmmnmmma,001,2024-02-15_17h02.41.402,VH_new_version2,2023.2.3,Win32,60.24096386,36.7662,37.7651,37.7652,38.3157,m,1,0.5363,,0.5363,1,38.3158,39.315,0,10,10,9,1,10,zarar,harmonic,word,m,,,,,,,,,,,,,,,,,,,,,,,,,,,,,,,,,,,,,,
,,,,,,,,,,,579302,zxzczcczxzvvznzznznzznnmmnmmma,001,2024-02-15_17h02.41.402,VH_new_version2,2023.2.3,Win32,60.24096386,39.3154,40.3159,40.316,40.8659,z,1,0.5287,,0.5287,1,40.866,41.8659,0,11,11,22,1,23,gizım,notharmonic,nw,z,,,,,,,,,,,,,,,,,,,,,,,,,,,,,,,,,,,,,,
,,,,,,,,,,,579302,zxzczcczxzvvznzznznzznnmmnmmma,001,2024-02-15_17h02.41.402,VH_new_version2,2023.2.3,Win32,60.24096386,41.8666,42.8666,42.8667,43.433,m,1,0.543,,0.543,1,43.4331,44.4336,0,12,12,1,1,2,veri,harmonic,word,m,,,,,,,,,,,,,,,,,,,,,,,,,,,,,,,,,,,,,,
,,,,,,,,,,,579302,zxzczcczxzvvznzznznzznnmmnmmma,001,2024-02-15_17h02.41.402,VH_new_version2,2023.2.3,Win32,60.24096386,44.4345,45.4336,45.4337,46.0497,z,1,0.5995,,0.5995,1,46.0498,47.0505,0,13,13,21,1,22,güçli,harmonic,nw,z,,,,,,,,,,,,,,,,,,,,,,,,,,,,,,,,,,,,,,
,,,,,,,,,,,579302,zxzczcczxzvvznzznznzznnmmnmmma,001,2024-02-15_17h02.41.402,VH_new_version2,2023.2.3,Win32,60.24096386,47.0513,48.0506,48.0507,48.9843,z,1,0.9192,,0.9192,1,48.9843,49.9842,0,14,14,18,1,19,pimer,harmonic,nw,z,,,,,,,,,,,,,,,,,,,,,,,,,,,,,,,,,,,,,,
,,,,,,,,,,,579302,zxzczcczxzvvznzznznzznnmmnmmma,001,2024-02-15_17h02.41.402,VH_new_version2,2023.2.3,Win32,60.24096386,49.9849,50.9844,50.9844,51.6342,z,1,0.6334,,0.6334,1,51.6342,52.6344,0,15,15,14,1,15,mahne,notharmonic,nw,z,,,,,,,,,,,,,,,,,,,,,,,,,,,,,,,,,,,,,,
,,,,,,,,,,,579302,zxzczcczxzvvznzznznzznnmmnmmma,001,2024-02-15_17h02.41.402,VH_new_version2,2023.2.3,Win32,60.24096386,52.6351,53.6348,53.6348,54.3017,z,1,0.6435,,0.6435,1,54.3018,55.3017,0,16,16,17,1,18,pilar,notharmonic,nw,z,,,,,,,,,,,,,,,,,,,,,,,,,,,,,,,,,,,,,,
,,,,,,,,,,,579302,zxzczcczxzvvznzznznzznnmmnmmma,001,2024-02-15_17h02.41.402,VH_new_version2,2023.2.3,Win32,60.24096386,55.3024,56.302,56.3022,56.8686,m,1,0.544,,0.544,1,56.8686,57.8687,0,17,17,6,1,7,sebep,harmonic,word,m,,,,,,,,,,,,,,,,,,,,,,,,,,,,,,,,,,,,,,
,,,,,,,,,,,579302,zxzczcczxzvvznzznznzznnmmnmmma,001,2024-02-15_17h02.41.402,VH_new_version2,2023.2.3,Win32,60.24096386,57.8694,58.8687,58.8687,59.4523,z,1,0.5593,,0.5593,1,59.4525,60.4526,0,18,18,15,1,16,geki,harmonic,nw,z,,,,,,,,,,,,,,,,,,,,,,,,,,,,,,,,,,,,,,
,,,,,,,,,,,579302,zxzczcczxzvvznzznznzznnmmnmmma,001,2024-02-15_17h02.41.402,VH_new_version2,2023.2.3,Win32,60.24096386,60.4533,61.4526,61.4527,62.2027,m,1,0.727,,0.727,1,62.2028,63.2029,0,19,19,10,1,11,nefret,harmonic,word,m,,,,,,,,,,,,,,,,,,,,,,,,,,,,,,,,,,,,,,
,,,,,,,,,,,579302,zxzczcczxzvvznzznznzznnmmnmmma,001,2024-02-15_17h02.41.402,VH_new_version2,2023.2.3,Win32,60.24096386,63.2037,64.2032,64.2032,64.8362,m,1,0.6097,,0.6097,1,64.8362,65.8365,0,20,20,5,1,6,gizli,harmonic,word,m,,,,,,,,,,,,,,,,,,,,,,,,,,,,,,,,,,,,,,
,,,,,,,,,,,579302,zxzczcczxzvvznzznznzznnmmnmmma,001,2024-02-15_17h02.41.402,VH_new_version2,2023.2.3,Win32,60.24096386,65.8373,66.8364,66.8365,67.3538,z,1,0.4935,,0.4935,1,67.3539,68.3538,0,21,21,16,1,17,ihlot,notharmonic,nw,z,,,,,,,,,,,,,,,,,,,,,,,,,,,,,,,,,,,,,,
,,,,,,,,,,,579302,zxzczcczxzvvznzznznzznnmmnmmma,001,2024-02-15_17h02.41.402,VH_new_version2,2023.2.3,Win32,60.24096386,68.3545,69.356,69.3561,69.8528,z,1,0.481,,0.481,1,69.8528,70.8535,0,22,22,19,1,20,mımal,harmonic,nw,z,,,,,,,,,,,,,,,,,,,,,,,,,,,,,,,,,,,,,,
,,,,,,,,,,,579302,zxzczcczxzvvznzznznzznnmmnmmma,001,2024-02-15_17h02.41.402,VH_new_version2,2023.2.3,Win32,60.24096386,70.854,71.8543,71.8544,72.3707,m,1,0.4932,,0.4932,1,72.3708,73.3706,0,23,23,2,1,3,yardım,harmonic,word,m,,,,,,,,,,,,,,,,,,,,,,,,,,,,,,,,,,,,,,
,,,,,,,,,,,579302,zxzczcczxzvvznzznznzznnmmnmmma,001,2024-02-15_17h02.41.402,VH_new_version2,2023.2.3,Win32,60.24096386,,,,,,,,,,,,,,,,,,,,,,,73.3718,74.3047,space,0.9102,,,,,,,,,,,,,,,,,,,,,,,,,,,,,,,,,,
,,,,,,,,,,,579302,zxzczcczxzvvznzznznzznnmmnmmma,001,2024-02-15_17h02.41.402,VH_new_version2,2023.2.3,Win32,60.24096386,74.4318,75.3208,,,,,,,,,,,,,,,,,,,,,,,,,,75.3213,76.1052,m,1,0.7584,,76.1055,76.108,,0,0,0,135,1,136,gündüz,1167,53.0239,1088,0.1189,6,harmonic,1.6,4.724471668,m,w,,,,,,,
,,,,,,,,,,,579302,zxzczcczxzvvznzznznzznnmmnmmma,001,2024-02-15_17h02.41.402,VH_new_version2,2023.2.3,Win32,60.24096386,76.1091,77.1051,,,,,,,,,,,,,,,,,,,,,,,,,,77.1051,77.5716,m,1,0.4485,,77.5717,77.5718,,0,1,1,41,1,42,hayal,4498,204.3713,4079,0.4459,5,harmonic,1.45,5.310419907,m,w,,,,,,,
,,,,,,,,,,,579302,zxzczcczxzvvznzznznzznnmmnmmma,001,2024-02-15_17h02.41.402,VH_new_version2,2023.2.3,Win32,60.24096386,77.5725,78.572,,,,,,,,,,,,,,,,,,,,,,,,,,78.5721,79.1054,z,1,0.5087,,79.1055,79.1056,,0,2,2,272,1,273,takime,,,,,6,notharmonic,1.5,,z,nw,,,,,,,
,,,,,,,,,,,579302,zxzczcczxzvvznzznznzznnmmnmmma,001,2024-02-15_17h02.41.402,VH_new_version2,2023.2.3,Win32,60.24096386,79.1064,80.1055,,,,,,,,,,,,,,,,,,,,,,,,,,80.1055,80.689,z,1,0.5614,,80.6891,80.6893,,0,3,3,216,1,217,same,,,,,4,notharmonic,1.6,,z,nw,,,,,,,
,,,,,,,,,,,579302,zxzczcczxzvvznzznznzznnmmnmmma,001,2024-02-15_17h02.41.402,VH_new_version2,2023.2.3,Win32,60.24096386,80.6898,81.6891,,,,,,,,,,,,,,,,,,,,,,,,,,81.6892,82.3393,m,0,0.6265,,82.3394,82.3395,,0,4,4,279,1,280,tevaha,,,,,6,notharmonic,2,,z,nw,,,,,,,
,,,,,,,,,,,579302,zxzczcczxzvvznzznznzznnmmnmmma,001,2024-02-15_17h02.41.402,VH_new_version2,2023.2.3,Win32,60.24096386,82.3401,83.3394,,,,,,,,,,,,,,,,,,,,,,,,,,83.3394,83.9222,z,1,0.5685,,83.9224,83.9225,,0,5,5,160,1,161,ünte,,,,,4,harmonic,1.65,,z,nw,,,,,,,
,,,,,,,,,,,579302,zxzczcczxzvvznzznznzznnmmnmmma,001,2024-02-15_17h02.41.402,VH_new_version2,2023.2.3,Win32,60.24096386,83.9234,84.923,,,,,,,,,,,,,,,,,,,,,,,,,,84.9231,85.4725,m,1,0.5324,,85.4727,85.4732,,0,6,6,18,1,19,ülke,3121,141.8059,2801,0.3062,4,harmonic,1.65,5.151694301,m,w,,,,,,,
,,,,,,,,,,,579302,zxzczcczxzvvznzznznzznnmmnmmma,001,2024-02-15_17h02.41.402,VH_new_version2,2023.2.3,Win32,60.24096386,85.4742,86.4733,,,,,,,,,,,,,,,,,,,,,,,,,,86.4734,87.3396,z,1,0.8433,,87.3397,87.34,,0,7,7,221,1,222,mane,,,,,4,notharmonic,1.4,,z,nw,,,,,,,
,,,,,,,,,,,579302,zxzczcczxzvvznzznznzznnmmnmmma,001,2024-02-15_17h02.41.402,VH_new_version2,2023.2.3,Win32,60.24096386,87.3409,88.3398,,,,,,,,,,,,,,,,,,,,,,,,,,88.3399,89.09,z,0,0.7279,,89.0901,89.0903,,0,8,8,39,1,40,mayıs,2630,119.4968,2294,0.2508,5,harmonic,1.75,5.077356275,m,w,,,,,,,
,,,,,,,,,,,579302,zxzczcczxzvvznzznznzznnmmnmmma,001,2024-02-15_17h02.41.402,VH_new_version2,2023.2.3,Win32,60.24096386,89.091,90.0899,,,,,,,,,,,,,,,,,,,,,,,,,,90.09,90.8066,m,1,0.6956,,90.8067,90.8069,,0,9,9,82,1,83,oyun,4926,223.8179,3995,0.4367,4,harmonic,1,5.349894817,m,w,,,,,,,
,,,,,,,,,,,579302,zxzczcczxzvvznzznznzznnmmnmmma,001,2024-02-15_17h02.41.402,VH_new_version2,2023.2.3,Win32,60.24096386,90.8078,91.8072,,,,,,,,,,,,,,,,,,,,,,,,,,91.8073,92.3904,m,1,0.5597,,92.3905,92.3907,,0,10,10,114,1,115,ayak,2143,97.3694,1931,0.2111,4,harmonic,1,4.988422494,m,w,,,,,,,
,,,,,,,,,,,579302,zxzczcczxzvvznzznznzznnmmnmmma,001,2024-02-15_17h02.41.402,VH_new_version2,2023.2.3,Win32,60.24096386,92.3915,93.3904,,,,,,,,,,,,,,,,,,,,,,,,,,93.3905,93.9744,z,1,0.5659,,93.9745,93.9747,,0,11,11,256,1,257,betaş,,,,,5,notharmonic,1.85,,z,nw,,,,,,,
,,,,,,,,,,,579302,zxzczcczxzvvznzznznzznnmmnmmma,001,2024-02-15_17h02.41.402,VH_new_version2,2023.2.3,Win32,60.24096386,93.9757,94.974,,,,,,,,,,,,,,,,,,,,,,,,,,94.9741,95.7907,z,1,0.7924,,95.7909,95.7911,,0,12,12,201,1,202,lingin,,,,,6,harmonic,1.6,,z,nw,,,,,,,
,,,,,,,,,,,579302,zxzczcczxzvvznzznznzznnmmnmmma,001,2024-02-15_17h02.41.402,VH_new_version2,2023.2.3,Win32,60.24096386,95.7917,96.7911,,,,,,,,,,,,,,,,,,,,,,,,,,96.7911,97.2916,m,1,0.4823,,97.2917,97.2917,,0,13,13,72,1,73,uğur,787,35.7582,666,0.0728,4,harmonic,1.6,4.553375649,m,w,,,,,,,
,,,,,,,,,,,579302,zxzczcczxzvvznzznznzznnmmnmmma,001,2024-02-15_17h02.41.402,VH_new_version2,2023.2.3,Win32,60.24096386,97.2923,98.2913,,,,,,,,,,,,,,,,,,,,,,,,,,98.2913,98.8084,m,1,0.4984,,98.8085,98.8087,,0,14,14,132,1,133,abla,1287,58.4762,1156,0.1264,4,harmonic,1,4.766979143,m,w,,,,,,,
,,,,,,,,,,,579302,zxzczcczxzvvznzznznzznnmmnmmma,001,2024-02-15_17h02.41.402,VH_new_version2,2023.2.3,Win32,60.24096386,98.8096,99.8086,,,,,,,,,,,,,,,,,,,,,,,,,,99.8087,100.3922,z,1,0.5711,,100.3923,100.3925,,0,15,15,274,1,275,çanese,,,,,6,notharmonic,2,,z,nw,,,,,,,
,,,,,,,,,,,579302,zxzczcczxzvvznzznznzznnmmnmmma,001,2024-02-15_17h02.41.402,VH_new_version2,2023.2.3,Win32,60.24096386,100.3931,101.3913,,,,,,,,,,,,,,,,,,,,,,,,,,101.3914,101.8748,m,1,0.4622,,101.8749,101.8751,,0,16,16,112,1,113,kelime,2185,99.2777,1971,0.2155,6,harmonic,1.25,4.996851707,m,w,,,,,,,
,,,,,,,,,,,579302,zxzczcczxzvvznzznznzznnmmnmmma,001,2024-02-15_17h02.41.402,VH_new_version2,2023.2.3,Win32,60.24096386,101.8756,102.875,,,,,,,,,,,,,,,,,,,,,,,,,,102.875,103.5914,z,1,0.7003,,103.5914,103.5915,,0,17,17,215,1,216,zali,,,,,4,notharmonic,1.25,,z,nw,,,,,,,
,,,,,,,,,,,579302,zxzczcczxzvvznzznznzznnmmnmmma,001,2024-02-15_17h02.41.402,VH_new_version2,2023.2.3,Win32,60.24096386,103.5917,104.5921,,,,,,,,,,,,,,,,,,,,,,,,,,104.5922,105.4921,z,1,0.8813,,105.4923,105.4925,,0,18,18,192,1,193,kumgun,,,,,6,harmonic,1.85,,z,nw,,,,,,,
,,,,,,,,,,,579302,zxzczcczxzvvznzznznzznnmmnmmma,001,2024-02-15_17h02.41.402,VH_new_version2,2023.2.3,Win32,60.24096386,105.4934,106.4926,,,,,,,,,,,,,,,,,,,,,,,,,,106.4927,106.9759,m,1,0.4602,,106.976,106.9762,,0,19,19,129,1,130,peynir,1421,64.5646,1248,0.1364,6,harmonic,1.9,4.809994465,m,w,,,,,,,
,,,,,,,,,,,579302,zxzczcczxzvvznzznznzznnmmnmmma,001,2024-02-15_17h02.41.402,VH_new_version2,2023.2.3,Win32,60.24096386,106.9769,107.9761,,,,,,,,,,,,,,,,,,,,,,,,,,107.9761,108.4935,z,1,0.4935,,108.4936,108.4937,,0,20,20,142,1,143,öbeh,,,,,4,harmonic,1.95,,z,nw,,,,,,,
,,,,,,,,,,,579302,zxzczcczxzvvznzznznzznnmmnmmma,001,2024-02-15_17h02.41.402,VH_new_version2,2023.2.3,Win32,60.24096386,108.4943,109.4929,,,,,,,,,,,,,,,,,,,,,,,,,,109.493,110.3265,m,0,0.8121,,110.3265,110.3267,,0,21,21,183,1,184,çapal,,,,,5,harmonic,1.6,,z,nw,,,,,,,
,,,,,,,,,,,579302,zxzczcczxzvvznzznznzznnmmnmmma,001,2024-02-15_17h02.41.402,VH_new_version2,2023.2.3,Win32,60.24096386,110.3273,111.3266,,,,,,,,,,,,,,,,,,,,,,,,,,111.3267,112.4103,z,1,1.0612,,112.4104,112.4106,,0,22,22,245,1,246,gaset,,,,,5,notharmonic,1.85,,z,nw,,,,,,,
,,,,,,,,,,,579302,zxzczcczxzvvznzznznzznnmmnmmma,001,2024-02-15_17h02.41.402,VH_new_version2,2023.2.3,Win32,60.24096386,112.4114,113.4105,,,,,,,,,,,,,,,,,,,,,,,,,,113.4105,113.977,m,1,0.5464,,113.9771,113.9774,,0,23,23,17,1,18,sarı,2072,94.1435,1838,0.2009,4,harmonic,1,4.97379034,m,w,,,,,,,
,,,,,,,,,,,579302,zxzczcczxzvvznzznznzznnmmnmmma,001,2024-02-15_17h02.41.402,VH_new_version2,2023.2.3,Win32,60.24096386,113.9783,114.977,,,,,,,,,,,,,,,,,,,,,,,,,,114.9771,115.56,z,1,0.5603,,115.5601,115.5601,,0,24,24,173,1,174,pirbe,,,,,5,harmonic,1.9,,z,nw,,,,,,,
,,,,,,,,,,,579302,zxzczcczxzvvznzznznzznnmmnmmma,001,2024-02-15_17h02.41.402,VH_new_version2,2023.2.3,Win32,60.24096386,115.5607,116.5601,,,,,,,,,,,,,,,,,,,,,,,,,,116.5601,117.0934,m,1,0.5216,,117.0934,117.0935,,0,25,25,123,1,124,yıldız,1775,80.649,1532,0.1675,6,harmonic,1.6,4.906598987,m,w,,,,,,,
,,,,,,,,,,,579302,zxzczcczxzvvznzznznzznnmmnmmma,001,2024-02-15_17h02.41.402,VH_new_version2,2023.2.3,Win32,60.24096386,117.0939,118.0936,,,,,,,,,,,,,,,,,,,,,,,,,,118.0936,118.6938,m,1,0.5805,,118.6938,118.6939,,0,26,26,24,1,25,dokuz,802,36.4397,646,0.0706,5,harmonic,1.55,4.561574793,m,w,,,,,,,
,,,,,,,,,,,579302,zxzczcczxzvvznzznznzznnmmnmmma,001,2024-02-15_17h02.41.402,VH_new_version2,2023.2.3,Win32,60.24096386,118.6942,119.6947,,,,,,,,,,,,,,,,,,,,,,,,,,119.6948,120.344,m,0,0.6306,,120.344,120.3443,,0,27,27,265,1,266,terhan,,,,,6,notharmonic,1.95,,z,nw,,,,,,,
,,,,,,,,,,,579302,zxzczcczxzvvznzznznzznnmmnmmma,001,2024-02-15_17h02.41.402,VH_new_version2,2023.2.3,Win32,60.24096386,120.3447,121.3446,,,,,,,,,,,,,,,,,,,,,,,,,,121.3448,122.0608,z,1,0.6998,,122.0609,122.0609,,0,28,28,195,1,196,çoflak,,,,,6,harmonic,2,,z,nw,,,,,,,
,,,,,,,,,,,579302,zxzczcczxzvvznzznznzznnmmnmmma,001,2024-02-15_17h02.41.402,VH_new_version2,2023.2.3,Win32,60.24096386,122.0613,123.0611,,,,,,,,,,,,,,,,,,,,,,,,,,123.0612,123.6779,m,1,0.5958,,123.6779,123.678,,0,29,29,35,1,36,araba,1704,77.423,1485,0.1623,5,harmonic,1,4.888869995,m,w,,,,,,,
,,,,,,,,,,,579302,zxzczcczxzvvznzznznzznnmmnmmma,001,2024-02-15_17h02.41.402,VH_new_version2,2023.2.3,Win32,60.24096386,123.6783,124.6782,,,,,,,,,,,,,,,,,,,,,,,,,,124.6782,125.2613,m,1,0.563,,125.2613,125.2614,,0,30,30,93,1,94,olay,3415,155.1641,3179,0.3475,4,harmonic,1.5,5.190791247,m,w,,,,,,,
,,,,,,,,,,,579302,zxzczcczxzvvznzznznzznnmmnmmma,001,2024-02-15_17h02.41.402,VH_new_version2,2023.2.3,Win32,60.24096386,125.2617,126.2617,,,,,,,,,,,,,,,,,,,,,,,,,,126.2617,126.7783,m,1,0.4942,,126.7783,126.7784,,0,31,31,43,1,44,bilgi,5981,271.7529,5353,0.5852,5,harmonic,1.5,5.434174187,m,w,,,,,,,
,,,,,,,,,,,579302,zxzczcczxzvvznzznznzznnmmnmmma,001,2024-02-15_17h02.41.402,VH_new_version2,2023.2.3,Win32,60.24096386,126.7787,127.7787,,,,,,,,,,,,,,,,,,,,,,,,,,127.7787,128.412,z,1,0.6073,,128.412,128.4121,,0,32,32,196,1,197,etçime,,,,,6,harmonic,1.9,,z,nw,,,,,,,
,,,,,,,,,,,579302,zxzczcczxzvvznzznznzznnmmnmmma,001,2024-02-15_17h02.41.402,VH_new_version2,2023.2.3,Win32,60.24096386,128.413,129.4124,,,,,,,,,,,,,,,,,,,,,,,,,,129.4125,130.0127,z,1,0.5734,,130.0128,130.0132,,0,33,33,260,1,261,dülda,,,,,5,notharmonic,1.95,,z,nw,,,,,,,
,,,,,,,,,,,579302,zxzczcczxzvvznzznznzznnmmnmmma,001,2024-02-15_17h02.41.402,VH_new_version2,2023.2.3,Win32,60.24096386,130.0149,131.0124,,,,,,,,,,,,,,,,,,,,,,,,,,131.0126,131.629,z,1,0.5841,,131.6291,131.6292,,0,34,34,249,1,250,sisaj,,,,,5,notharmonic,2,,z,nw,,,,,,,
,,,,,,,,,,,579302,zxzczcczxzvvznzznznzznnmmnmmma,001,2024-02-15_17h02.41.402,VH_new_version2,2023.2.3,Win32,60.24096386,131.6303,132.6295,,,,,,,,,,,,,,,,,,,,,,,,,,132.6295,133.1309,m,1,0.4784,,133.1311,133.1314,,0,35,35,75,1,76,dergi,657,29.8515,592,0.0647,5,harmonic,1.3,4.474966159,m,w,,,,,,,
,,,,,,,,,,,579302,zxzczcczxzvvznzznznzznnmmnmmma,001,2024-02-15_17h02.41.402,VH_new_version2,2023.2.3,Win32,60.24096386,133.1324,134.1295,,,,,,,,,,,,,,,,,,,,,,,,,,134.1295,134.8634,m,1,0.7027,,134.8636,134.864,,0,36,36,88,1,89,yorum,3801,172.7024,3473,0.3797,5,harmonic,1.1,5.237298373,m,w,,,,,,,
,,,,,,,,,,,579302,zxzczcczxzvvznzznznzznnmmnmmma,001,2024-02-15_17h02.41.402,VH_new_version2,2023.2.3,Win32,60.24096386,134.8653,135.863,,,,,,,,,,,,,,,,,,,,,,,,,,135.8631,136.3965,m,1,0.5009,,136.3965,136.3966,,0,37,37,47,1,48,yemek,9626,437.3673,8311,0.9086,5,harmonic,1.35,5.64084631,m,w,,,,,,,
,,,,,,,,,,,579302,zxzczcczxzvvznzznznzznnmmnmmma,001,2024-02-15_17h02.41.402,VH_new_version2,2023.2.3,Win32,60.24096386,136.3975,137.3967,,,,,,,,,,,,,,,,,,,,,,,,,,137.3968,137.9361,z,1,0.5174,,137.9361,137.9362,,0,38,38,275,1,276,teşbuz,,,,,6,notharmonic,2.75,,z,nw,,,,,,,
,,,,,,,,,,,579302,zxzczcczxzvvznzznznzznnmmnmmma,001,2024-02-15_17h02.41.402,VH_new_version2,2023.2.3,Win32,60.24096386,137.9366,138.9303,,,,,,,,,,,,,,,,,,,,,,,,,,138.9303,139.5472,m,1,0.5913,,139.5473,139.5474,,0,39,39,71,1,72,boya,918,41.7103,799,0.0873,4,harmonic,1,4.620243314,m,w,,,,,,,
,,,,,,,,,,,579302,zxzczcczxzvvznzznznzznnmmnmmma,001,2024-02-15_17h02.41.402,VH_new_version2,2023.2.3,Win32,60.24096386,139.5484,140.5471,,,,,,,,,,,,,,,,,,,,,,,,,,140.5471,141.3809,m,1,0.8023,,141.3809,141.3812,,0,40,40,50,1,51,kurşun,604,27.4434,551,0.0602,6,harmonic,1.55,4.438437916,m,w,,,,,,,
,,,,,,,,,,,579302,zxzczcczxzvvznzznznzznnmmnmmma,001,2024-02-15_17h02.41.402,VH_new_version2,2023.2.3,Win32,60.24096386,141.3825,142.3807,,,,,,,,,,,,,,,,,,,,,,,,,,142.3808,142.9309,z,1,0.5198,,142.9309,142.931,,0,41,41,151,1,152,uban,,,,,4,harmonic,1.35,,z,nw,,,,,,,
,,,,,,,,,,,579302,zxzczcczxzvvznzznznzznnmmnmmma,001,2024-02-15_17h02.41.402,VH_new_version2,2023.2.3,Win32,60.24096386,142.9319,143.9311,,,,,,,,,,,,,,,,,,,,,,,,,,143.9311,144.5479,z,1,0.5835,,144.5479,144.5481,,0,42,42,282,1,283,daketi,,,,,6,notharmonic,1.8,,z,nw,,,,,,,
,,,,,,,,,,,579302,zxzczcczxzvvznzznznzznnmmnmmma,001,2024-02-15_17h02.41.402,VH_new_version2,2023.2.3,Win32,60.24096386,144.5492,145.5484,,,,,,,,,,,,,,,,,,,,,,,,,,145.5486,146.3814,m,1,0.8012,,146.3814,146.3816,,0,43,43,56,1,57,meslek,1082,49.1618,976,0.1067,6,harmonic,1.9,4.691627776,m,w,,,,,,,
,,,,,,,,,,,579302,zxzczcczxzvvznzznznzznnmmnmmma,001,2024-02-15_17h02.41.402,VH_new_version2,2023.2.3,Win32,60.24096386,146.3828,147.3821,,,,,,,,,,,,,,,,,,,,,,,,,,147.3821,147.9492,m,1,0.5398,,147.9493,147.9495,,0,44,44,15,1,16,ışık,1814,82.421,1635,0.1787,4,harmonic,1.6,4.916037879,m,w,,,,,,,
,,,,,,,,,,,579302,zxzczcczxzvvznzznznzznnmmnmmma,001,2024-02-15_17h02.41.402,VH_new_version2,2023.2.3,Win32,60.24096386,147.9504,148.9531,,,,,,,,,,,,,,,,,,,,,,,,,,148.9531,149.5324,z,1,0.5516,,149.5325,149.5329,,0,45,45,148,1,149,aşıç,,,,,4,harmonic,1.65,,z,nw,,,,,,,
,,,,,,,,,,,579302,zxzczcczxzvvznzznznzznnmmnmmma,001,2024-02-15_17h02.41.402,VH_new_version2,2023.2.3,Win32,60.24096386,149.5342,150.5324,,,,,,,,,,,,,,,,,,,,,,,,,,150.5324,151.1835,z,1,0.6279,,151.1837,151.1838,,0,46,46,161,1,162,mağa,,,,,4,harmonic,1.15,,z,nw,,,,,,,
,,,,,,,,,,,579302,zxzczcczxzvvznzznznzznnmmnmmma,001,2024-02-15_17h02.41.402,VH_new_version2,2023.2.3,Win32,60.24096386,151.1845,152.1831,,,,,,,,,,,,,,,,,,,,,,,,,,152.1832,152.8335,z,1,0.6185,,152.8336,152.8337,,0,47,47,254,1,255,hadir,,,,,5,notharmonic,1.4,,z,nw,,,,,,,
,,,,,,,,,,,579302,zxzczcczxzvvznzznznzznnmmnmmma,001,2024-02-15_17h02.41.402,VH_new_version2,2023.2.3,Win32,60.24096386,152.8347,153.8332,,,,,,,,,,,,,,,,,,,,,,,,,,153.8333,154.6497,m,1,0.7885,,154.65,154.6502,,0,48,48,98,1,99,bilim,2828,128.4931,2382,0.2604,5,harmonic,1,5.108879807,m,w,,,,,,,
,,,,,,,,,,,579302,zxzczcczxzvvznzznznzznnmmnmmma,001,2024-02-15_17h02.41.402,VH_new_version2,2023.2.3,Win32,60.24096386,154.651,155.6501,,,,,,,,,,,,,,,,,,,,,,,,,,155.6501,156.2171,z,1,0.5358,,156.2172,156.2174,,0,49,49,143,1,144,uçek,,,,,4,harmonic,1.85,,z,nw,,,,,,,
,,,,,,,,,,,579302,zxzczcczxzvvznzznznzznnmmnmmma,001,2024-02-15_17h02.41.402,VH_new_version2,2023.2.3,Win32,60.24096386,156.2182,157.217,,,,,,,,,,,,,,,,,,,,,,,,,,157.2171,157.8011,m,1,0.5542,,157.8012,157.8015,,0,50,50,19,1,20,baba,3645,165.6143,3131,0.3423,4,harmonic,1,5.219097833,m,w,,,,,,,
,,,,,,,,,,,579302,zxzczcczxzvvznzznznzznnmmnmmma,001,2024-02-15_17h02.41.402,VH_new_version2,2023.2.3,Win32,60.24096386,157.8023,158.8009,,,,,,,,,,,,,,,,,,,,,,,,,,158.8011,159.4512,m,1,0.6193,,159.4514,159.4517,,0,51,51,104,1,105,hediye,2501,113.6355,2224,0.2431,6,harmonic,1.7,5.055514027,m,w,,,,,,,
,,,,,,,,,,,579302,zxzczcczxzvvznzznznzznnmmnmmma,001,2024-02-15_17h02.41.402,VH_new_version2,2023.2.3,Win32,60.24096386,159.4528,160.4509,,,,,,,,,,,,,,,,,,,,,,,,,,160.4509,161.0844,z,1,0.6003,,161.0844,161.0845,,0,52,52,178,1,179,güzül,,,,,5,harmonic,1.65,,z,nw,,,,,,,
,,,,,,,,,,,579302,zxzczcczxzvvznzznznzznnmmnmmma,001,2024-02-15_17h02.41.402,VH_new_version2,2023.2.3,Win32,60.24096386,161.0853,162.0846,,,,,,,,,,,,,,,,,,,,,,,,,,162.0846,162.7518,z,1,0.6387,,162.7519,162.7521,,0,53,53,170,1,171,telen,,,,,5,harmonic,1.15,,z,nw,,,,,,,
,,,,,,,,,,,579302,zxzczcczxzvvznzznznzznnmmnmmma,001,2024-02-15_17h02.41.402,VH_new_version2,2023.2.3,Win32,60.24096386,162.753,163.7515,,,,,,,,,,,,,,,,,,,,,,,,,,163.7516,164.2852,m,1,0.5028,,164.2853,164.2858,,0,54,54,130,1,131,başarı,1398,63.5196,1300,0.1421,6,harmonic,1.2,4.802907755,m,w,,,,,,,
,,,,,,,,,,,579302,zxzczcczxzvvznzznznzznnmmnmmma,001,2024-02-15_17h02.41.402,VH_new_version2,2023.2.3,Win32,60.24096386,164.2871,165.2854,,,,,,,,,,,,,,,,,,,,,,,,,,165.2855,165.8356,z,1,0.5199,,165.8358,165.8358,,0,55,55,206,1,207,teşcik,,,,,6,harmonic,1.9,,z,nw,,,,,,,
,,,,,,,,,,,579302,zxzczcczxzvvznzznznzznnmmnmmma,001,2024-02-15_17h02.41.402,VH_new_version2,2023.2.3,Win32,60.24096386,165.8368,166.8358,,,,,,,,,,,,,,,,,,,,,,,,,,166.836,167.452,z,1,0.5863,,167.4522,167.4525,,0,56,56,230,1,231,asez,,,,,4,notharmonic,1.9,,z,nw,,,,,,,
,,,,,,,,,,,579302,zxzczcczxzvvznzznznzznnmmnmmma,001,2024-02-15_17h02.41.402,VH_new_version2,2023.2.3,Win32,60.24096386,167.4538,168.4528,,,,,,,,,,,,,,,,,,,,,,,,,,168.4529,169.0195,m,1,0.5391,,169.0195,169.0197,,0,57,57,2,1,3,iğne,515,23.3996,455,0.0497,4,harmonic,1.65,4.369208434,m,w,,,,,,,
,,,,,,,,,,,579302,zxzczcczxzvvznzznznzznnmmnmmma,001,2024-02-15_17h02.41.402,VH_new_version2,2023.2.3,Win32,60.24096386,169.0208,170.009,,,,,,,,,,,,,,,,,,,,,,,,,,170.0091,170.4863,m,1,0.4611,,170.4864,170.4866,,0,58,58,139,1,140,teklif,913,41.4831,848,0.0927,6,harmonic,1.7,4.617871203,m,w,,,,,,,
,,,,,,,,,,,579302,zxzczcczxzvvznzznznzznnmmnmmma,001,2024-02-15_17h02.41.402,VH_new_version2,2023.2.3,Win32,60.24096386,170.4874,171.486,,,,,,,,,,,,,,,,,,,,,,,,,,171.4861,171.9604,m,1,0.4505,,171.9604,171.9606,,0,59,59,115,1,116,doğu,2105,95.6429,1823,0.1993,4,harmonic,1.05,4.980652736,m,w,,,,,,,
,,,,,,,,,,,579302,zxzczcczxzvvznzznznzznnmmnmmma,001,2024-02-15_17h02.41.402,VH_new_version2,2023.2.3,Win32,60.24096386,171.9614,172.9534,,,,,,,,,,,,,,,,,,,,,,,,,,172.9534,173.4532,z,0,0.4752,,173.4533,173.4535,,0,60,60,21,1,22,kötü,9344,424.5543,8257,0.9027,4,harmonic,1.65,5.627933244,m,w,,,,,,,
,,,,,,,,,,,579302,zxzczcczxzvvznzznznzznnmmnmmma,001,2024-02-15_17h02.41.402,VH_new_version2,2023.2.3,Win32,60.24096386,173.4547,174.4533,,,,,,,,,,,,,,,,,,,,,,,,,,174.4534,175.0868,z,1,0.6079,,175.0869,175.0871,,0,61,61,179,1,180,şünle,,,,,5,harmonic,1.75,,z,nw,,,,,,,
,,,,,,,,,,,579302,zxzczcczxzvvznzznznzznnmmnmmma,001,2024-02-15_17h02.41.402,VH_new_version2,2023.2.3,Win32,60.24096386,175.0881,176.0874,,,,,,,,,,,,,,,,,,,,,,,,,,176.0875,176.737,z,1,0.6264,,176.7371,176.7374,,0,62,62,187,1,188,ahfam,,,,,5,harmonic,1.85,,z,nw,,,,,,,
,,,,,,,,,,,579302,zxzczcczxzvvznzznznzznnmmnmmma,001,2024-02-15_17h02.41.402,VH_new_version2,2023.2.3,Win32,60.24096386,176.7384,177.7373,,,,,,,,,,,,,,,,,,,,,,,,,,177.7373,178.404,z,1,0.6365,,178.404,178.4042,,0,63,63,186,1,187,erbik,,,,,5,harmonic,1.75,,z,nw,,,,,,,
,,,,,,,,,,,579302,zxzczcczxzvvznzznznzznnmmnmmma,001,2024-02-15_17h02.41.402,VH_new_version2,2023.2.3,Win32,60.24096386,178.4055,179.4044,,,,,,,,,,,,,,,,,,,,,,,,,,179.4046,179.9545,m,1,0.5244,,179.9547,179.9549,,0,64,64,0,1,1,ödev,191,8.6783,175,0.0191,4,harmonic,1.6,3.938434659,m,w,,,,,,,
,,,,,,,,,,,579302,zxzczcczxzvvznzznznzznnmmnmmma,001,2024-02-15_17h02.41.402,VH_new_version2,2023.2.3,Win32,60.24096386,179.9561,180.9544,,,,,,,,,,,,,,,,,,,,,,,,,,180.9545,181.4712,z,1,0.4868,,181.4714,181.4718,,0,65,65,153,1,154,uyko,,,,,4,harmonic,1.95,,z,nw,,,,,,,
,,,,,,,,,,,579302,zxzczcczxzvvznzznznzznnmmnmmma,001,2024-02-15_17h02.41.402,VH_new_version2,2023.2.3,Win32,60.24096386,181.4729,182.4717,,,,,,,,,,,,,,,,,,,,,,,,,,182.4718,183.0877,m,0,0.5862,,183.0878,183.0882,,0,66,66,237,1,238,masem,,,,,5,notharmonic,1.7,,z,nw,,,,,,,
,,,,,,,,,,,579302,zxzczcczxzvvznzznznzznnmmnmmma,001,2024-02-15_17h02.41.402,VH_new_version2,2023.2.3,Win32,60.24096386,183.0894,184.0883,,,,,,,,,,,,,,,,,,,,,,,,,,184.0886,184.771,m,1,0.6516,,184.7711,184.7714,,0,67,67,31,1,32,pembe,1549,70.3804,1327,0.1451,5,harmonic,2,4.847451731,m,w,,,,,,,
,,,,,,,,,,,579302,zxzczcczxzvvznzznznzznnmmnmmma,001,2024-02-15_17h02.41.402,VH_new_version2,2023.2.3,Win32,60.24096386,184.7723,185.7718,,,,,,,,,,,,,,,,,,,,,,,,,,185.7719,186.3885,m,1,0.5899,,186.3885,186.3888,,0,68,68,23,1,24,evet,12599,572.4486,11447,1.2514,4,harmonic,1.65,5.757736498,m,w,,,,,,,
,,,,,,,,,,,579302,zxzczcczxzvvznzznznzznnmmnmmma,001,2024-02-15_17h02.41.402,VH_new_version2,2023.2.3,Win32,60.24096386,186.39,187.3889,,,,,,,,,,,,,,,,,,,,,,,,,,187.389,188.0055,m,1,0.5857,,188.0057,188.0058,,0,69,69,57,1,58,bayram,1948,88.5094,1648,0.1802,6,harmonic,1.85,4.946989397,m,w,,,,,,,
,,,,,,,,,,,579302,zxzczcczxzvvznzznznzznnmmnmmma,001,2024-02-15_17h02.41.402,VH_new_version2,2023.2.3,Win32,60.24096386,188.0068,189.0047,,,,,,,,,,,,,,,,,,,,,,,,,,189.0047,189.6061,z,1,0.57,,189.6062,200.7242,space,0,70,70,251,1,252,madit,,,,,5,notharmonic,1.9,,z,nw,11.0874,,,,,,
,,,,,,,,,,,579302,zxzczcczxzvvznzznznzznnmmnmmma,001,2024-02-15_17h02.41.402,VH_new_version2,2023.2.3,Win32,60.24096386,200.7591,201.7406,,,,,,,,,,,,,,,,,,,,,,,,,,201.7407,202.3906,m,1,0.6268,,202.3907,202.3909,,0,71,71,6,1,7,avuç,729,33.1229,659,0.072,4,harmonic,1.85,4.520128353,m,w,,,,,,,
,,,,,,,,,,,579302,zxzczcczxzvvznzznznzznnmmnmmma,001,2024-02-15_17h02.41.402,VH_new_version2,2023.2.3,Win32,60.24096386,202.3921,203.3914,,,,,,,,,,,,,,,,,,,,,,,,,,203.3915,203.9584,m,1,0.5363,,203.9585,203.9587,,0,72,72,22,1,23,özel,9726,441.9109,8559,0.9357,4,harmonic,1.35,5.645334714,m,w,,,,,,,
,,,,,,,,,,,579302,zxzczcczxzvvznzznznzznnmmnmmma,001,2024-02-15_17h02.41.402,VH_new_version2,2023.2.3,Win32,60.24096386,203.9596,204.9579,,,,,,,,,,,,,,,,,,,,,,,,,,204.958,205.5911,z,1,0.6063,,205.5912,205.5914,,0,73,73,259,1,260,kiyaf,,,,,5,notharmonic,1.95,,z,nw,,,,,,,
,,,,,,,,,,,579302,zxzczcczxzvvznzznznzznnmmnmmma,001,2024-02-15_17h02.41.402,VH_new_version2,2023.2.3,Win32,60.24096386,205.5925,206.5915,,,,,,,,,,,,,,,,,,,,,,,,,,206.5916,207.4083,m,1,0.7908,,207.4085,207.4088,,0,74,74,77,1,78,çanta,639,29.0336,551,0.0602,5,harmonic,1.6,4.462900889,m,w,,,,,,,
,,,,,,,,,,,579302,zxzczcczxzvvznzznznzznnmmnmmma,001,2024-02-15_17h02.41.402,VH_new_version2,2023.2.3,Win32,60.24096386,207.4096,208.4089,,,,,,,,,,,,,,,,,,,,,,,,,,208.409,209.0753,z,1,0.641,,209.0754,209.0756,,0,75,75,154,1,155,afap,,,,,4,harmonic,1.7,,z,nw,,,,,,,
,,,,,,,,,,,579302,zxzczcczxzvvznzznznzznnmmnmmma,001,2024-02-15_17h02.41.402,VH_new_version2,2023.2.3,Win32,60.24096386,209.0767,210.0753,,,,,,,,,,,,,,,,,,,,,,,,,,210.0754,210.8434,z,1,0.7453,,210.8436,210.8437,,0,76,76,177,1,178,akapı,,,,,5,harmonic,1.8,,z,nw,,,,,,,
,,,,,,,,,,,579302,zxzczcczxzvvznzznznzznnmmnmmma,001,2024-02-15_17h02.41.402,VH_new_version2,2023.2.3,Win32,60.24096386,210.8446,211.8424,,,,,,,,,,,,,,,,,,,,,,,,,,211.8425,212.5263,z,1,0.6539,,212.5264,212.5267,,0,77,77,146,1,147,öğne,,,,,4,harmonic,1.7,,z,nw,,,,,,,
,,,,,,,,,,,579302,zxzczcczxzvvznzznznzznnmmnmmma,001,2024-02-15_17h02.41.402,VH_new_version2,2023.2.3,Win32,60.24096386,212.5276,213.5265,,,,,,,,,,,,,,,,,,,,,,,,,,213.5267,214.0931,m,1,0.5354,,214.0933,214.0936,,0,78,78,110,1,111,akıl,2208,100.3228,2004,0.2191,4,harmonic,1,5.001399645,m,w,,,,,,,
,,,,,,,,,,,579302,zxzczcczxzvvznzznznzznnmmnmmma,001,2024-02-15_17h02.41.402,VH_new_version2,2023.2.3,Win32,60.24096386,214.0948,215.0932,,,,,,,,,,,,,,,,,,,,,,,,,,215.0933,215.6432,z,1,0.5273,,215.6433,215.6436,,0,79,79,240,1,241,makek,,,,,5,notharmonic,1.9,,z,nw,,,,,,,
,,,,,,,,,,,579302,zxzczcczxzvvznzznznzznnmmnmmma,001,2024-02-15_17h02.41.402,VH_new_version2,2023.2.3,Win32,60.24096386,215.6449,216.6436,,,,,,,,,,,,,,,,,,,,,,,,,,216.6438,217.2601,z,1,0.5879,,217.2605,217.2607,,0,80,80,210,1,211,bellet,,,,,6,harmonic,1.65,,z,nw,,,,,,,
,,,,,,,,,,,579302,zxzczcczxzvvznzznznzznnmmnmmma,001,2024-02-15_17h02.41.402,VH_new_version2,2023.2.3,Win32,60.24096386,217.2619,218.2599,,,,,,,,,,,,,,,,,,,,,,,,,,218.2599,218.9768,m,1,0.693,,218.9769,218.9772,,0,81,81,111,1,112,balık,2189,99.4595,1817,0.1986,5,harmonic,1,4.997646272,m,w,,,,,,,
,,,,,,,,,,,579302,zxzczcczxzvvznzznznzznnmmnmmma,001,2024-02-15_17h02.41.402,VH_new_version2,2023.2.3,Win32,60.24096386,218.9783,219.9772,,,,,,,,,,,,,,,,,,,,,,,,,,219.9773,220.6943,z,1,0.6854,,220.6944,220.6946,,0,82,82,207,1,208,dendek,,,,,6,harmonic,1.8,,z,nw,,,,,,,
,,,,,,,,,,,579302,zxzczcczxzvvznzznznzznnmmnmmma,001,2024-02-15_17h02.41.402,VH_new_version2,2023.2.3,Win32,60.24096386,220.6955,221.6933,,,,,,,,,,,,,,,,,,,,,,,,,,221.6934,222.261,z,1,0.5365,,222.2612,222.2614,,0,83,83,244,1,245,kimık,,,,,5,notharmonic,2,,z,nw,,,,,,,
,,,,,,,,,,,579302,zxzczcczxzvvznzznznzznnmmnmmma,001,2024-02-15_17h02.41.402,VH_new_version2,2023.2.3,Win32,60.24096386,222.2623,223.261,,,,,,,,,,,,,,,,,,,,,,,,,,223.261,223.9272,z,1,0.6425,,223.9272,223.9274,,0,84,84,175,1,176,sakça,,,,,5,harmonic,1.55,,z,nw,,,,,,,
,,,,,,,,,,,579302,zxzczcczxzvvznzznznzznnmmnmmma,001,2024-02-15_17h02.41.402,VH_new_version2,2023.2.3,Win32,60.24096386,223.9284,224.9276,,,,,,,,,,,,,,,,,,,,,,,,,,224.9277,225.4281,z,1,0.4738,,225.4283,225.4285,,0,85,85,145,1,146,oyoz,,,,,4,harmonic,1.9,,z,nw,,,,,,,
,,,,,,,,,,,579302,zxzczcczxzvvznzznznzznnmmnmmma,001,2024-02-15_17h02.41.402,VH_new_version2,2023.2.3,Win32,60.24096386,225.4297,226.4277,,,,,,,,,,,,,,,,,,,,,,,,,,226.4278,227.0111,m,1,0.5522,,227.0112,227.0115,,0,86,86,20,1,21,süre,8679,394.3393,8119,0.8876,4,harmonic,1,5.595870061,m,w,,,,,,,
,,,,,,,,,,,579302,zxzczcczxzvvznzznznzznnmmnmmma,001,2024-02-15_17h02.41.402,VH_new_version2,2023.2.3,Win32,60.24096386,227.013,228.0106,,,,,,,,,,,,,,,,,,,,,,,,,,228.0107,228.5953,z,1,0.5535,,228.5954,228.5957,,0,87,87,264,1,265,şingan,,,,,6,notharmonic,2.15,,z,nw,,,,,,,
,,,,,,,,,,,579302,zxzczcczxzvvznzznznzznnmmnmmma,001,2024-02-15_17h02.41.402,VH_new_version2,2023.2.3,Win32,60.24096386,228.5965,229.5954,,,,,,,,,,,,,,,,,,,,,,,,,,229.5955,230.1788,m,0,0.5523,,230.1789,230.1792,,0,88,88,182,1,183,tesil,,,,,5,harmonic,1.45,,z,nw,,,,,,,
,,,,,,,,,,,579302,zxzczcczxzvvznzznznzznnmmnmmma,001,2024-02-15_17h02.41.402,VH_new_version2,2023.2.3,Win32,60.24096386,230.1803,231.1791,,,,,,,,,,,,,,,,,,,,,,,,,,231.1792,231.7625,z,1,0.5552,,231.7626,231.7628,,0,89,89,253,1,254,mafke,,,,,5,notharmonic,1.9,,z,nw,,,,,,,
,,,,,,,,,,,579302,zxzczcczxzvvznzznznzznnmmnmmma,001,2024-02-15_17h02.41.402,VH_new_version2,2023.2.3,Win32,60.24096386,231.7638,232.7628,,,,,,,,,,,,,,,,,,,,,,,,,,232.7629,233.3962,m,1,0.6039,,233.3964,233.3966,,0,90,90,101,1,102,okul,2685,121.9958,2381,0.2603,4,harmonic,1.35,5.086344879,m,w,,,,,,,
,,,,,,,,,,,579302,zxzczcczxzvvznzznznzznnmmnmmma,001,2024-02-15_17h02.41.402,VH_new_version2,2023.2.3,Win32,60.24096386,233.3979,234.3962,,,,,,,,,,,,,,,,,,,,,,,,,,234.3963,234.9794,z,1,0.559,,234.9797,234.9798,,0,91,91,185,1,186,birpi,,,,,5,harmonic,1.75,,z,nw,,,,,,,
,,,,,,,,,,,579302,zxzczcczxzvvznzznznzznnmmnmmma,001,2024-02-15_17h02.41.402,VH_new_version2,2023.2.3,Win32,60.24096386,234.9812,235.9796,,,,,,,,,,,,,,,,,,,,,,,,,,235.9796,236.6635,m,1,0.6523,,236.6636,236.6639,,0,92,92,8,1,9,ağız,824,37.4393,758,0.0829,4,harmonic,1.2,4.57332772,m,w,,,,,,,
,,,,,,,,,,,579302,zxzczcczxzvvznzznznzznnmmnmmma,001,2024-02-15_17h02.41.402,VH_new_version2,2023.2.3,Win32,60.24096386,236.6652,237.6636,,,,,,,,,,,,,,,,,,,,,,,,,,237.6637,238.3468,z,1,0.6547,,238.347,238.3474,,0,93,93,227,1,228,esta,,,,,4,notharmonic,1.7,,z,nw,,,,,,,
,,,,,,,,,,,579302,zxzczcczxzvvznzznznzznnmmnmmma,001,2024-02-15_17h02.41.402,VH_new_version2,2023.2.3,Win32,60.24096386,238.3483,239.3461,,,,,,,,,,,,,,,,,,,,,,,,,,239.3462,240.2465,m,1,0.8686,,240.2467,240.2469,,0,94,94,124,1,125,sultan,1756,79.7857,1368,0.1496,6,harmonic,1.55,4.90192506,m,w,,,,,,,
,,,,,,,,,,,579302,zxzczcczxzvvznzznznzznnmmnmmma,001,2024-02-15_17h02.41.402,VH_new_version2,2023.2.3,Win32,60.24096386,240.248,241.2466,,,,,,,,,,,,,,,,,,,,,,,,,,241.2467,241.8142,m,1,0.5367,,241.8142,241.8145,,0,95,95,107,1,108,isim,2366,107.5017,2163,0.2365,4,harmonic,1,5.031415332,m,w,,,,,,,
,,,,,,,,,,,579302,zxzczcczxzvvznzznznzznnmmnmmma,001,2024-02-15_17h02.41.402,VH_new_version2,2023.2.3,Win32,60.24096386,241.8155,242.8136,,,,,,,,,,,,,,,,,,,,,,,,,,242.8137,243.5141,z,1,0.6769,,243.5143,243.5147,,0,96,96,165,1,166,eyel,,,,,4,harmonic,1.65,,z,nw,,,,,,,
,,,,,,,,,,,579302,zxzczcczxzvvznzznznzznnmmnmmma,001,2024-02-15_17h02.41.402,VH_new_version2,2023.2.3,Win32,60.24096386,243.5157,244.5146,,,,,,,,,,,,,,,,,,,,,,,,,,244.5147,245.0811,m,1,0.5363,,245.0812,245.0814,,0,97,97,11,1,12,öykü,958,43.5277,849,0.0928,4,harmonic,1.9,4.63876572,m,w,,,,,,,
,,,,,,,,,,,579302,zxzczcczxzvvznzznznzznnmmnmmma,001,2024-02-15_17h02.41.402,VH_new_version2,2023.2.3,Win32,60.24096386,245.0827,246.0814,,,,,,,,,,,,,,,,,,,,,,,,,,246.0815,246.6144,m,1,0.5028,,246.6145,246.615,,0,98,98,131,1,132,doğa,1381,62.7472,1180,0.129,4,harmonic,1,4.797594351,m,w,,,,,,,
,,,,,,,,,,,579302,zxzczcczxzvvznzznznzznnmmnmmma,001,2024-02-15_17h02.41.402,VH_new_version2,2023.2.3,Win32,60.24096386,246.6161,247.6147,,,,,,,,,,,,,,,,,,,,,,,,,,247.6148,248.3985,m,1,0.7526,,248.3987,248.3988,,0,99,99,32,1,33,güney,1639,74.4697,1439,0.1573,5,harmonic,1.65,4.871979604,m,w,,,,,,,
,,,,,,,,,,,579302,zxzczcczxzvvznzznznzznnmmnmmma,001,2024-02-15_17h02.41.402,VH_new_version2,2023.2.3,Win32,60.24096386,248.3999,249.3988,,,,,,,,,,,,,,,,,,,,,,,,,,249.3988,250.1822,m,1,0.7525,,250.1823,250.1825,,0,100,100,78,1,79,şişe,478,21.7184,440,0.0481,4,harmonic,1.05,4.336827828,m,w,,,,,,,
,,,,,,,,,,,579302,zxzczcczxzvvznzznznzznnmmnmmma,001,2024-02-15_17h02.41.402,VH_new_version2,2023.2.3,Win32,60.24096386,250.1834,251.1822,,,,,,,,,,,,,,,,,,,,,,,,,,251.1822,251.782,m,1,0.5691,,251.7821,251.7823,,0,101,101,138,1,139,ödül,1063,48.2985,926,0.1012,4,harmonic,1.7,4.683933643,m,w,,,,,,,
,,,,,,,,,,,579302,zxzczcczxzvvznzznznzznnmmnmmma,001,2024-02-15_17h02.41.402,VH_new_version2,2023.2.3,Win32,60.24096386,251.7835,252.7826,,,,,,,,,,,,,,,,,,,,,,,,,,252.7827,253.3323,m,1,0.5216,,253.3325,253.3329,,0,102,102,74,1,75,çatı,469,21.3095,379,0.0414,4,harmonic,1,4.32857326,m,w,,,,,,,
,,,,,,,,,,,579302,zxzczcczxzvvznzznznzznnmmnmmma,001,2024-02-15_17h02.41.402,VH_new_version2,2023.2.3,Win32,60.24096386,253.3339,254.3327,,,,,,,,,,,,,,,,,,,,,,,,,,254.3329,254.8328,m,1,0.4691,,254.833,254.8332,,0,103,103,136,1,137,tebrik,1117,50.7521,1102,0.1205,6,harmonic,1.85,4.705454017,m,w,,,,,,,
,,,,,,,,,,,579302,zxzczcczxzvvznzznznzznnmmnmmma,001,2024-02-15_17h02.41.402,VH_new_version2,2023.2.3,Win32,60.24096386,254.8345,255.8324,,,,,,,,,,,,,,,,,,,,,,,,,,255.8325,256.3498,z,1,0.4878,,256.3499,256.3502,,0,104,104,262,1,263,barali,,,,,6,notharmonic,1.95,,z,nw,,,,,,,
,,,,,,,,,,,579302,zxzczcczxzvvznzznznzznnmmnmmma,001,2024-02-15_17h02.41.402,VH_new_version2,2023.2.3,Win32,60.24096386,256.3519,257.3491,,,,,,,,,,,,,,,,,,,,,,,,,,257.3492,257.8332,m,1,0.4558,,257.8334,257.8338,,0,105,105,26,1,27,boyun,843,38.3026,777,0.0849,5,harmonic,1.05,4.583228255,m,w,,,,,,,
,,,,,,,,,,,579302,zxzczcczxzvvznzznznzznnmmnmmma,001,2024-02-15_17h02.41.402,VH_new_version2,2023.2.3,Win32,60.24096386,257.835,258.8328,,,,,,,,,,,,,,,,,,,,,,,,,,258.8329,259.3169,m,1,0.458,,259.3171,259.3173,,0,106,106,27,1,28,sekiz,872,39.6202,803,0.0878,5,harmonic,1.45,4.597916663,m,w,,,,,,,
,,,,,,,,,,,579302,zxzczcczxzvvznzznznzznnmmnmmma,001,2024-02-15_17h02.41.402,VH_new_version2,2023.2.3,Win32,60.24096386,259.3183,260.3166,,,,,,,,,,,,,,,,,,,,,,,,,,260.3167,260.8843,z,1,0.5437,,260.8843,260.8854,,0,107,107,232,1,233,leda,,,,,4,notharmonic,1.6,,z,nw,,,,,,,
,,,,,,,,,,,579302,zxzczcczxzvvznzznznzznnmmnmmma,001,2024-02-15_17h02.41.402,VH_new_version2,2023.2.3,Win32,60.24096386,260.8866,261.8834,,,,,,,,,,,,,,,,,,,,,,,,,,261.8836,262.4679,z,1,0.5559,,262.468,262.4682,,0,108,108,268,1,269,mucepi,,,,,6,notharmonic,2.85,,z,nw,,,,,,,
,,,,,,,,,,,579302,zxzczcczxzvvznzznznzznnmmnmmma,001,2024-02-15_17h02.41.402,VH_new_version2,2023.2.3,Win32,60.24096386,262.4694,263.467,,,,,,,,,,,,,,,,,,,,,,,,,,263.4671,264.0013,m,0,0.511,,264.0015,264.0017,,0,109,109,168,1,169,bovon,,,,,5,harmonic,2,,z,nw,,,,,,,
,,,,,,,,,,,579302,zxzczcczxzvvznzznznzznnmmnmmma,001,2024-02-15_17h02.41.402,VH_new_version2,2023.2.3,Win32,60.24096386,264.0029,265.0011,,,,,,,,,,,,,,,,,,,,,,,,,,265.0012,265.6673,m,1,0.6429,,265.6673,265.6676,,0,110,110,34,1,35,çorba,1674,76.0599,1513,0.1654,5,harmonic,1.75,4.88115575,m,w,,,,,,,
,,,,,,,,,,,579302,zxzczcczxzvvznzznznzznnmmnmmma,001,2024-02-15_17h02.41.402,VH_new_version2,2023.2.3,Win32,60.24096386,265.6686,266.6679,,,,,,,,,,,,,,,,,,,,,,,,,,266.668,267.4583,m,1,0.7676,,267.4584,267.4586,,0,111,111,46,1,47,hayat,7922,359.9443,7314,0.7996,5,harmonic,1.35,5.556235301,m,w,,,,,,,
,,,,,,,,,,,579302,zxzczcczxzvvznzznznzznnmmnmmma,001,2024-02-15_17h02.41.402,VH_new_version2,2023.2.3,Win32,60.24096386,267.4594,268.4515,,,,,,,,,,,,,,,,,,,,,,,,,,268.4516,269.2517,z,1,0.7692,,269.2518,269.2521,,0,112,112,166,1,167,dokoş,,,,,5,harmonic,2,,z,nw,,,,,,,
,,,,,,,,,,,579302,zxzczcczxzvvznzznznzznnmmnmmma,001,2024-02-15_17h02.41.402,VH_new_version2,2023.2.3,Win32,60.24096386,269.2531,270.2513,,,,,,,,,,,,,,,,,,,,,,,,,,270.2514,270.8182,m,1,0.5358,,270.8183,270.8185,,0,113,113,120,1,121,yedi,1880,85.4197,1729,0.189,4,harmonic,1,4.931558042,m,w,,,,,,,
,,,,,,,,,,,579302,zxzczcczxzvvznzznznzznnmmnmmma,001,2024-02-15_17h02.41.402,VH_new_version2,2023.2.3,Win32,60.24096386,270.8193,271.8181,,,,,,,,,,,,,,,,,,,,,,,,,,271.8182,272.3855,m,1,0.5388,,272.3856,272.386,,0,114,114,102,1,103,toplum,2562,116.4071,2249,0.2459,6,harmonic,1.65,5.06597947,m,w,,,,,,,
,,,,,,,,,,,579302,zxzczcczxzvvznzznznzznnmmnmmma,001,2024-02-15_17h02.41.402,VH_new_version2,2023.2.3,Win32,60.24096386,272.3869,273.3856,,,,,,,,,,,,,,,,,,,,,,,,,,273.3857,274.093,z,1,0.684,,274.0932,274.0936,,0,115,115,202,1,203,cehret,,,,,6,harmonic,1.85,,z,nw,,,,,,,
,,,,,,,,,,,579302,zxzczcczxzvvznzznznzznnmmnmmma,001,2024-02-15_17h02.41.402,VH_new_version2,2023.2.3,Win32,60.24096386,274.0947,275.086,,,,,,,,,,,,,,,,,,,,,,,,,,275.0861,275.6273,m,1,0.5187,,275.6274,275.6276,,0,116,116,4,1,5,öfke,606,27.5342,542,0.0593,4,harmonic,1.85,4.439872463,m,w,,,,,,,
,,,,,,,,,,,579302,zxzczcczxzvvznzznznzznnmmnmmma,001,2024-02-15_17h02.41.402,VH_new_version2,2023.2.3,Win32,60.24096386,275.6285,276.6195,,,,,,,,,,,,,,,,,,,,,,,,,,276.6195,277.2691,z,1,0.6199,,277.2692,277.2696,,0,117,117,150,1,151,acuz,,,,,4,harmonic,1.65,,z,nw,,,,,,,
,,,,,,,,,,,579302,zxzczcczxzvvznzznznzznnmmnmmma,001,2024-02-15_17h02.41.402,VH_new_version2,2023.2.3,Win32,60.24096386,277.2706,278.2696,,,,,,,,,,,,,,,,,,,,,,,,,,278.2697,278.9866,z,1,0.6876,,278.9866,278.9871,,0,118,118,238,1,239,labin,,,,,5,notharmonic,1.65,,z,nw,,,,,,,
,,,,,,,,,,,579302,zxzczcczxzvvznzznznzznnmmnmmma,001,2024-02-15_17h02.41.402,VH_new_version2,2023.2.3,Win32,60.24096386,278.9882,279.9867,,,,,,,,,,,,,,,,,,,,,,,,,,279.9869,280.6866,z,1,0.6715,,280.6867,280.687,,0,119,119,211,1,212,yıksık,,,,,6,harmonic,1.8,,z,nw,,,,,,,
,,,,,,,,,,,579302,zxzczcczxzvvznzznznzznnmmnmmma,001,2024-02-15_17h02.41.402,VH_new_version2,2023.2.3,Win32,60.24096386,280.6879,281.6869,,,,,,,,,,,,,,,,,,,,,,,,,,281.687,282.3042,z,1,0.5944,,282.3043,282.3045,,0,120,120,219,1,220,anel,,,,,4,notharmonic,1.7,,z,nw,,,,,,,
,,,,,,,,,,,579302,zxzczcczxzvvznzznznzznnmmnmmma,001,2024-02-15_17h02.41.402,VH_new_version2,2023.2.3,Win32,60.24096386,282.3055,283.3038,,,,,,,,,,,,,,,,,,,,,,,,,,283.304,284.3706,m,1,1.0399,,284.3706,284.3709,,0,121,121,49,1,50,çeyrek,540,24.5355,477,0.0521,6,harmonic,1.9,4.389794913,m,w,,,,,,,
,,,,,,,,,,,579302,zxzczcczxzvvznzznznzznnmmnmmma,001,2024-02-15_17h02.41.402,VH_new_version2,2023.2.3,Win32,60.24096386,284.3718,285.3769,,,,,,,,,,,,,,,,,,,,,,,,,,285.3771,285.9874,z,1,0.5874,,285.9875,285.9878,,0,122,122,180,1,181,finer,,,,,5,harmonic,1.65,,z,nw,,,,,,,
,,,,,,,,,,,579302,zxzczcczxzvvznzznznzznnmmnmmma,001,2024-02-15_17h02.41.402,VH_new_version2,2023.2.3,Win32,60.24096386,285.9889,286.9877,,,,,,,,,,,,,,,,,,,,,,,,,,286.9878,287.6036,z,1,0.5881,,287.6036,287.6038,,0,123,123,144,1,145,içke,,,,,4,harmonic,1.6,,z,nw,,,,,,,
,,,,,,,,,,,579302,zxzczcczxzvvznzznznzznnmmnmmma,001,2024-02-15_17h02.41.402,VH_new_version2,2023.2.3,Win32,60.24096386,287.6047,288.6047,,,,,,,,,,,,,,,,,,,,,,,,,,288.6048,289.2379,m,1,0.6072,,289.238,289.2382,,0,124,124,3,1,4,otuz,583,26.4892,556,0.0608,4,harmonic,1.45,4.423068842,m,w,,,,,,,
,,,,,,,,,,,579302,zxzczcczxzvvznzznznzznnmmnmmma,001,2024-02-15_17h02.41.402,VH_new_version2,2023.2.3,Win32,60.24096386,289.2391,290.2383,,,,,,,,,,,,,,,,,,,,,,,,,,290.2383,290.8217,z,1,0.5525,,290.8218,290.822,,0,125,125,197,1,198,zemkin,,,,,6,harmonic,1.85,,z,nw,,,,,,,
,,,,,,,,,,,579302,zxzczcczxzvvznzznznzznnmmnmmma,001,2024-02-15_17h02.41.402,VH_new_version2,2023.2.3,Win32,60.24096386,290.8233,291.8217,,,,,,,,,,,,,,,,,,,,,,,,,,291.8219,292.5219,z,1,0.6717,,292.5221,292.5224,,0,126,126,236,1,237,alte,,,,,4,notharmonic,1.7,,z,nw,,,,,,,
,,,,,,,,,,,579302,zxzczcczxzvvznzznznzznnmmnmmma,001,2024-02-15_17h02.41.402,VH_new_version2,2023.2.3,Win32,60.24096386,292.5236,293.5221,,,,,,,,,,,,,,,,,,,,,,,,,,293.5221,294.1718,m,1,0.6187,,294.1719,294.1722,,0,127,127,61,1,62,yağmur,2491,113.1812,2156,0.2357,6,harmonic,1.9,5.053774294,m,w,,,,,,,
,,,,,,,,,,,579302,zxzczcczxzvvznzznznzznnmmnmmma,001,2024-02-15_17h02.41.402,VH_new_version2,2023.2.3,Win32,60.24096386,294.1731,295.1725,,,,,,,,,,,,,,,,,,,,,,,,,,295.1726,295.8391,z,1,0.6444,,295.8392,295.8396,,0,128,128,162,1,163,möre,,,,,4,harmonic,1.65,,z,nw,,,,,,,
,,,,,,,,,,,579302,zxzczcczxzvvznzznznzznnmmnmmma,001,2024-02-15_17h02.41.402,VH_new_version2,2023.2.3,Win32,60.24096386,295.8407,296.8388,,,,,,,,,,,,,,,,,,,,,,,,,,296.8389,297.5391,m,1,0.6697,,297.5392,297.5394,,0,129,129,73,1,74,gemi,629,28.5793,544,0.0595,4,harmonic,1.1,4.456051587,m,w,,,,,,,
,,,,,,,,,,,579302,zxzczcczxzvvznzznznzznnmmnmmma,001,2024-02-15_17h02.41.402,VH_new_version2,2023.2.3,Win32,60.24096386,297.5406,298.5389,,,,,,,,,,,,,,,,,,,,,,,,,,298.539,300.0228,z,1,1.4579,,300.023,300.0233,,0,130,130,267,1,268,tapare,,,,,6,notharmonic,1.95,,z,nw,,,,,,,
,,,,,,,,,,,579302,zxzczcczxzvvznzznznzznnmmnmmma,001,2024-02-15_17h02.41.402,VH_new_version2,2023.2.3,Win32,60.24096386,300.0242,301.0228,,,,,,,,,,,,,,,,,,,,,,,,,,301.0228,301.6231,m,1,0.5695,,301.6233,301.6234,,0,131,131,126,1,127,millet,1658,75.3329,1508,0.1649,6,harmonic,1.7,4.876984686,m,w,,,,,,,
,,,,,,,,,,,579302,zxzczcczxzvvznzznznzznnmmnmmma,001,2024-02-15_17h02.41.402,VH_new_version2,2023.2.3,Win32,60.24096386,301.6244,302.6236,,,,,,,,,,,,,,,,,,,,,,,,,,302.6237,303.4068,z,1,0.7531,,303.4069,303.407,,0,132,132,225,1,226,elda,,,,,4,notharmonic,1.6,,z,nw,,,,,,,
,,,,,,,,,,,579302,zxzczcczxzvvznzznznzznnmmnmmma,001,2024-02-15_17h02.41.402,VH_new_version2,2023.2.3,Win32,60.24096386,303.4084,304.4072,,,,,,,,,,,,,,,,,,,,,,,,,,304.4073,305.0238,z,1,0.586,,305.0239,305.0241,,0,133,133,277,1,278,şeylam,,,,,6,notharmonic,2,,z,nw,,,,,,,
,,,,,,,,,,,579302,zxzczcczxzvvznzznznzznnmmnmmma,001,2024-02-15_17h02.41.402,VH_new_version2,2023.2.3,Win32,60.24096386,305.025,306.0235,,,,,,,,,,,,,,,,,,,,,,,,,,306.0235,306.6405,z,1,0.5856,,306.6405,306.6409,,0,134,134,155,1,156,megi,,,,,4,harmonic,1.8,,z,nw,,,,,,,
,,,,,,,,,,,579302,zxzczcczxzvvznzznznzznnmmnmmma,001,2024-02-15_17h02.41.402,VH_new_version2,2023.2.3,Win32,60.24096386,306.642,307.6406,,,,,,,,,,,,,,,,,,,,,,,,,,307.6407,308.2578,z,1,0.5865,,308.2579,308.2584,,0,135,135,255,1,256,resap,,,,,5,notharmonic,1.9,,z,nw,,,,,,,
,,,,,,,,,,,579302,zxzczcczxzvvznzznznzznnmmnmmma,001,2024-02-15_17h02.41.402,VH_new_version2,2023.2.3,Win32,60.24096386,308.2595,309.2579,,,,,,,,,,,,,,,,,,,,,,,,,,309.258,309.8247,m,1,0.536,,309.8248,309.8252,,0,136,136,1,1,2,ufuk,437,19.8555,403,0.0441,4,harmonic,1.85,4.297880828,m,w,,,,,,,
,,,,,,,,,,,579302,zxzczcczxzvvznzznznzznnmmnmmma,001,2024-02-15_17h02.41.402,VH_new_version2,2023.2.3,Win32,60.24096386,309.8263,310.8251,,,,,,,,,,,,,,,,,,,,,,,,,,310.8252,311.8916,z,1,1.0359,,311.8917,311.8922,,0,137,137,273,1,274,kalkeş,,,,,6,notharmonic,1.85,,z,nw,,,,,,,
,,,,,,,,,,,579302,zxzczcczxzvvznzznznzznnmmnmmma,001,2024-02-15_17h02.41.402,VH_new_version2,2023.2.3,Win32,60.24096386,311.8933,312.8905,,,,,,,,,,,,,,,,,,,,,,,,,,312.8905,313.558,m,1,0.6406,,313.5581,313.5584,,0,138,138,92,1,93,yarın,3440,156.3,3222,0.3522,5,harmonic,1,5.193958978,m,w,,,,,,,
,,,,,,,,,,,579302,zxzczcczxzvvznzznznzznnmmnmmma,001,2024-02-15_17h02.41.402,VH_new_version2,2023.2.3,Win32,60.24096386,313.5595,314.5587,,,,,,,,,,,,,,,,,,,,,,,,,,314.5588,315.1248,z,1,0.5423,,315.1249,315.1251,,0,139,139,228,1,229,idna,,,,,4,notharmonic,1.8,,z,nw,,,,,,,
,,,,,,,,,,,579302,zxzczcczxzvvznzznznzznnmmnmmma,001,2024-02-15_17h02.41.402,VH_new_version2,2023.2.3,Win32,60.24096386,315.1262,316.1256,,,,,,,,,,,,,,,,,,,,,,,,,,316.1257,316.6753,m,1,0.5268,,316.6756,316.6759,,0,140,140,121,1,122,usta,1823,82.8299,1478,0.1616,4,harmonic,1.5,4.918187137,m,w,,,,,,,
,,,,,,,,,,,579302,zxzczcczxzvvznzznznzznnmmnmmma,001,2024-02-15_17h02.41.402,VH_new_version2,2023.2.3,Win32,60.24096386,316.677,317.6758,,,,,,,,,,,,,,,,,,,,,,,,,,317.676,318.2256,z,1,0.5258,,318.2257,319.3092,space,0,141,141,224,1,225,faer,,,,,4,notharmonic,1.9,,z,nw,1.0571,,,,,,
,,,,,,,,,,,579302,zxzczcczxzvvznzznznzznnmmnmmma,001,2024-02-15_17h02.41.402,VH_new_version2,2023.2.3,Win32,60.24096386,319.3447,320.326,,,,,,,,,,,,,,,,,,,,,,,,,,320.326,320.9437,m,1,0.5945,,320.944,320.9444,,0,142,142,113,1,114,görev,2159,98.0964,1998,0.2184,5,harmonic,1.75,4.99165307,m,w,,,,,,,
,,,,,,,,,,,579302,zxzczcczxzvvznzznznzznnmmnmmma,001,2024-02-15_17h02.41.402,VH_new_version2,2023.2.3,Win32,60.24096386,320.9452,321.9431,,,,,,,,,,,,,,,,,,,,,,,,,,321.9431,322.4761,m,1,0.5022,,322.4762,322.4767,,0,143,143,68,1,69,devlet,5766,261.9842,4854,0.5306,6,harmonic,1.65,5.4182751,m,w,,,,,,,
,,,,,,,,,,,579302,zxzczcczxzvvznzznznzznnmmnmmma,001,2024-02-15_17h02.41.402,VH_new_version2,2023.2.3,Win32,60.24096386,322.4782,323.4773,,,,,,,,,,,,,,,,,,,,,,,,,,323.4774,324.0443,z,1,0.5449,,324.0445,324.0447,,0,144,144,235,1,236,mate,,,,,4,notharmonic,1.65,,z,nw,,,,,,,
,,,,,,,,,,,579302,zxzczcczxzvvznzznznzznnmmnmmma,001,2024-02-15_17h02.41.402,VH_new_version2,2023.2.3,Win32,60.24096386,324.0456,325.0427,,,,,,,,,,,,,,,,,,,,,,,,,,325.0427,325.5765,m,1,0.5087,,325.5766,325.5771,,0,145,145,87,1,88,sevgi,3950,179.4723,3467,0.379,5,harmonic,1.65,5.253997428,m,w,,,,,,,
,,,,,,,,,,,579302,zxzczcczxzvvznzznznzznnmmnmmma,001,2024-02-15_17h02.41.402,VH_new_version2,2023.2.3,Win32,60.24096386,325.5781,326.5776,,,,,,,,,,,,,,,,,,,,,,,,,,326.5777,327.1265,m,1,0.5252,,327.1266,327.127,,0,146,146,122,1,123,kapı,1792,81.4214,1566,0.1712,4,harmonic,1,4.910738566,m,w,,,,,,,
,,,,,,,,,,,579302,zxzczcczxzvvznzznznzznnmmnmmma,001,2024-02-15_17h02.41.402,VH_new_version2,2023.2.3,Win32,60.24096386,327.1282,328.127,,,,,,,,,,,,,,,,,,,,,,,,,,328.1271,328.7275,m,1,0.5694,,328.7275,328.7278,,0,147,147,38,1,39,fikir,2552,115.9528,2413,0.2638,5,harmonic,1.9,5.06428124,m,w,,,,,,,
,,,,,,,,,,,579302,zxzczcczxzvvznzznznzznnmmnmmma,001,2024-02-15_17h02.41.402,VH_new_version2,2023.2.3,Win32,60.24096386,328.7287,329.7275,,,,,,,,,,,,,,,,,,,,,,,,,,329.7275,330.3944,m,1,0.6357,,330.3946,330.395,,0,148,148,89,1,90,sonuç,3768,171.203,3626,0.3964,5,harmonic,1.8,5.233511371,m,w,,,,,,,
,,,,,,,,,,,579302,zxzczcczxzvvznzznznzznnmmnmmma,001,2024-02-15_17h02.41.402,VH_new_version2,2023.2.3,Win32,60.24096386,330.3962,331.3946,,,,,,,,,,,,,,,,,,,,,,,,,,331.3947,331.8443,m,1,0.4264,,331.8444,331.8448,,0,149,149,29,1,30,şarap,926,42.0738,787,0.086,5,harmonic,1.9,4.624011738,m,w,,,,,,,
,,,,,,,,,,,579302,zxzczcczxzvvznzznznzznnmmnmmma,001,2024-02-15_17h02.41.402,VH_new_version2,2023.2.3,Win32,60.24096386,331.8462,332.8445,,,,,,,,,,,,,,,,,,,,,,,,,,332.8445,333.495,z,1,0.6228,,333.4951,333.4955,,0,150,150,257,1,258,seran,,,,,5,notharmonic,1.35,,z,nw,,,,,,,
,,,,,,,,,,,579302,zxzczcczxzvvznzznznzznnmmnmmma,001,2024-02-15_17h02.41.402,VH_new_version2,2023.2.3,Win32,60.24096386,333.4968,334.4947,,,,,,,,,,,,,,,,,,,,,,,,,,334.4948,335.1117,z,1,0.5862,,335.1118,335.1122,,0,151,151,217,1,218,heka,,,,,4,notharmonic,1.75,,z,nw,,,,,,,
,,,,,,,,,,,579302,zxzczcczxzvvznzznznzznnmmnmmma,001,2024-02-15_17h02.41.402,VH_new_version2,2023.2.3,Win32,60.24096386,335.1136,336.112,,,,,,,,,,,,,,,,,,,,,,,,,,336.1122,336.9794,z,1,0.836,,336.9795,336.9798,,0,152,152,157,1,158,öşek,,,,,4,harmonic,1.7,,z,nw,,,,,,,
,,,,,,,,,,,579302,zxzczcczxzvvznzznznzznnmmnmmma,001,2024-02-15_17h02.41.402,VH_new_version2,2023.2.3,Win32,60.24096386,336.981,337.978,,,,,,,,,,,,,,,,,,,,,,,,,,337.9781,338.5957,z,1,0.5871,,338.5957,338.5961,,0,153,153,229,1,230,irar,,,,,4,notharmonic,1.65,,z,nw,,,,,,,
,,,,,,,,,,,579302,zxzczcczxzvvznzznznzznnmmnmmma,001,2024-02-15_17h02.41.402,VH_new_version2,2023.2.3,Win32,60.24096386,338.5972,339.5953,,,,,,,,,,,,,,,,,,,,,,,,,,339.5953,340.2123,z,1,0.5868,,340.2125,340.2128,,0,154,154,188,1,189,yahat,,,,,5,harmonic,1.8,,z,nw,,,,,,,
,,,,,,,,,,,579302,zxzczcczxzvvznzznznzznnmmnmmma,001,2024-02-15_17h02.41.402,VH_new_version2,2023.2.3,Win32,60.24096386,340.2141,341.2133,,,,,,,,,,,,,,,,,,,,,,,,,,341.2135,341.8296,z,1,0.5878,,341.8296,341.8298,,0,155,155,271,1,272,yakele,,,,,6,notharmonic,2,,z,nw,,,,,,,
,,,,,,,,,,,579302,zxzczcczxzvvznzznznzznnmmnmmma,001,2024-02-15_17h02.41.402,VH_new_version2,2023.2.3,Win32,60.24096386,341.8311,342.8295,,,,,,,,,,,,,,,,,,,,,,,,,,342.8295,343.6794,m,1,0.8195,,343.6795,343.6797,,0,156,156,54,1,55,elbise,883,40.12,786,0.0859,6,harmonic,1.9,4.603360924,m,w,,,,,,,
,,,,,,,,,,,579302,zxzczcczxzvvznzznznzznnmmnmmma,001,2024-02-15_17h02.41.402,VH_new_version2,2023.2.3,Win32,60.24096386,343.6808,344.6799,,,,,,,,,,,,,,,,,,,,,,,,,,344.6799,345.313,m,1,0.6019,,345.3131,345.3133,,0,157,157,62,1,63,kültür,2566,116.5889,2206,0.2412,6,harmonic,1.55,5.066657205,m,w,,,,,,,
,,,,,,,,,,,579302,zxzczcczxzvvznzznznzznnmmnmmma,001,2024-02-15_17h02.41.402,VH_new_version2,2023.2.3,Win32,60.24096386,345.3142,346.3131,,,,,,,,,,,,,,,,,,,,,,,,,,346.3133,347.0302,m,0,0.6925,,347.0303,347.0308,,0,158,158,281,1,282,tashin,,,,,6,notharmonic,1.85,,z,nw,,,,,,,
,,,,,,,,,,,579302,zxzczcczxzvvznzznznzznnmmnmmma,001,2024-02-15_17h02.41.402,VH_new_version2,2023.2.3,Win32,60.24096386,347.0323,348.0302,,,,,,,,,,,,,,,,,,,,,,,,,,348.0302,348.78,z,0,0.7195,,348.7801,348.7803,,0,159,159,118,1,119,fırsat,1952,88.6911,1863,0.2037,6,harmonic,1.85,4.947880041,m,w,,,,,,,
,,,,,,,,,,,579302,zxzczcczxzvvznzznznzznnmmnmmma,001,2024-02-15_17h02.41.402,VH_new_version2,2023.2.3,Win32,60.24096386,348.7816,349.7805,,,,,,,,,,,,,,,,,,,,,,,,,,349.7806,350.4637,z,1,0.652,,350.4638,350.4642,,0,160,160,223,1,224,mame,,,,,4,notharmonic,1.65,,z,nw,,,,,,,
,,,,,,,,,,,579302,zxzczcczxzvvznzznznzznnmmnmmma,001,2024-02-15_17h02.41.402,VH_new_version2,2023.2.3,Win32,60.24096386,350.4653,351.4639,,,,,,,,,,,,,,,,,,,,,,,,,,351.464,352.0813,z,1,0.5866,,352.0814,352.0817,,0,161,161,283,1,284,dimdat,,,,,6,notharmonic,2.05,,z,nw,,,,,,,
,,,,,,,,,,,579302,zxzczcczxzvvznzznznzznnmmnmmma,001,2024-02-15_17h02.41.402,VH_new_version2,2023.2.3,Win32,60.24096386,352.0829,353.081,,,,,,,,,,,,,,,,,,,,,,,,,,353.081,353.6644,m,1,0.5533,,353.6645,353.6649,,0,162,162,128,1,129,merkez,1445,65.6551,1255,0.1372,6,harmonic,1.8,4.817268467,m,w,,,,,,,
,,,,,,,,,,,579302,zxzczcczxzvvznzznznzznnmmnmmma,001,2024-02-15_17h02.41.402,VH_new_version2,2023.2.3,Win32,60.24096386,353.6661,354.6648,,,,,,,,,,,,,,,,,,,,,,,,,,354.6649,355.2318,m,1,0.5359,,355.2319,355.2322,,0,163,163,119,1,120,cuma,1941,88.1913,1774,0.1939,4,harmonic,1.3,4.945425744,m,w,,,,,,,
,,,,,,,,,,,579302,zxzczcczxzvvznzznznzznnmmnmmma,001,2024-02-15_17h02.41.402,VH_new_version2,2023.2.3,Win32,60.24096386,355.2332,356.2313,,,,,,,,,,,,,,,,,,,,,,,,,,356.2314,356.8985,z,1,0.6393,,356.8986,356.8988,,0,164,164,189,1,190,genek,,,,,5,harmonic,1.6,,z,nw,,,,,,,
,,,,,,,,,,,579302,zxzczcczxzvvznzznznzznnmmnmmma,001,2024-02-15_17h02.41.402,VH_new_version2,2023.2.3,Win32,60.24096386,356.8998,357.8889,,,,,,,,,,,,,,,,,,,,,,,,,,357.8889,358.6316,m,1,0.7213,,358.6317,358.6319,,0,165,165,53,1,54,çıplak,819,37.2121,766,0.0837,6,harmonic,2,4.570684179,m,w,,,,,,,
,,,,,,,,,,,579302,zxzczcczxzvvznzznznzznnmmnmmma,001,2024-02-15_17h02.41.402,VH_new_version2,2023.2.3,Win32,60.24096386,358.633,359.6323,,,,,,,,,,,,,,,,,,,,,,,,,,359.6324,360.4659,z,1,0.8063,,360.466,360.4664,,0,166,166,250,1,251,hapef,,,,,5,notharmonic,1.95,,z,nw,,,,,,,
,,,,,,,,,,,579302,zxzczcczxzvvznzznznzznnmmnmmma,001,2024-02-15_17h02.41.402,VH_new_version2,2023.2.3,Win32,60.24096386,360.4673,361.4659,,,,,,,,,,,,,,,,,,,,,,,,,,361.4659,362.0654,z,1,0.5695,,362.0655,362.0658,,0,167,167,234,1,235,ated,,,,,4,notharmonic,1.8,,z,nw,,,,,,,
,,,,,,,,,,,579302,zxzczcczxzvvznzznznzznnmmnmmma,001,2024-02-15_17h02.41.402,VH_new_version2,2023.2.3,Win32,60.24096386,362.0669,363.0663,,,,,,,,,,,,,,,,,,,,,,,,,,363.0665,363.6908,z,1,0.6018,,363.6909,363.6911,,0,168,168,152,1,153,ebür,,,,,4,harmonic,1.95,,z,nw,,,,,,,
,,,,,,,,,,,579302,zxzczcczxzvvznzznznzznnmmnmmma,001,2024-02-15_17h02.41.402,VH_new_version2,2023.2.3,Win32,60.24096386,363.6919,364.6825,,,,,,,,,,,,,,,,,,,,,,,,,,364.6826,365.5664,z,1,0.8606,,365.5664,365.5668,,0,169,169,242,1,243,sayke,,,,,5,notharmonic,1.9,,z,nw,,,,,,,
,,,,,,,,,,,579302,zxzczcczxzvvznzznznzznnmmnmmma,001,2024-02-15_17h02.41.402,VH_new_version2,2023.2.3,Win32,60.24096386,365.5682,366.5662,,,,,,,,,,,,,,,,,,,,,,,,,,366.5662,367.3338,m,1,0.7361,,367.3339,367.3342,,0,170,170,70,1,71,gerçek,8983,408.1519,8058,0.8809,6,harmonic,1.7,5.610821823,m,w,,,,,,,
,,,,,,,,,,,579302,zxzczcczxzvvznzznznzznnmmnmmma,001,2024-02-15_17h02.41.402,VH_new_version2,2023.2.3,Win32,60.24096386,367.3354,368.3338,,,,,,,,,,,,,,,,,,,,,,,,,,368.3339,368.9173,m,1,0.5527,,368.9174,368.9175,,0,171,171,134,1,135,araç,1182,53.7054,1050,0.1148,4,harmonic,1.25,4.730017956,m,w,,,,,,,
,,,,,,,,,,,579302,zxzczcczxzvvznzznznzznnmmnmmma,001,2024-02-15_17h02.41.402,VH_new_version2,2023.2.3,Win32,60.24096386,368.9185,369.917,,,,,,,,,,,,,,,,,,,,,,,,,,369.917,370.7346,z,1,0.7944,,370.7348,370.7351,,0,172,172,270,1,271,meşkup,,,,,6,notharmonic,1.95,,z,nw,,,,,,,
,,,,,,,,,,,579302,zxzczcczxzvvznzznznzznnmmnmmma,001,2024-02-15_17h02.41.402,VH_new_version2,2023.2.3,Win32,60.24096386,370.736,371.7344,,,,,,,,,,,,,,,,,,,,,,,,,,371.7345,372.4501,z,1,0.6851,,372.4501,372.4504,,0,173,173,205,1,206,hücmet,,,,,6,harmonic,1.85,,z,nw,,,,,,,
,,,,,,,,,,,579302,zxzczcczxzvvznzznznzznnmmnmmma,001,2024-02-15_17h02.41.402,VH_new_version2,2023.2.3,Win32,60.24096386,372.4515,373.4498,,,,,,,,,,,,,,,,,,,,,,,,,,373.4499,374.0509,m,1,0.5744,,374.051,374.0512,,0,174,174,25,1,26,orman,819,37.2121,705,0.0771,5,harmonic,1.3,4.570684179,m,w,,,,,,,
,,,,,,,,,,,579302,zxzczcczxzvvznzznznzznnmmnmmma,001,2024-02-15_17h02.41.402,VH_new_version2,2023.2.3,Win32,60.24096386,374.0519,375.0566,,,,,,,,,,,,,,,,,,,,,,,,,,375.0566,375.6012,m,1,0.522,,375.6013,375.6016,,0,175,175,80,1,81,ahlak,641,29.1245,543,0.0594,5,harmonic,1.35,4.464258478,m,w,,,,,,,
,,,,,,,,,,,579302,zxzczcczxzvvznzznznzznnmmnmmma,001,2024-02-15_17h02.41.402,VH_new_version2,2023.2.3,Win32,60.24096386,375.6033,376.6014,,,,,,,,,,,,,,,,,,,,,,,,,,376.6015,377.2683,z,1,0.6357,,377.2684,377.2686,,0,176,176,172,1,173,çatuk,,,,,5,harmonic,1.8,,z,nw,,,,,,,
,,,,,,,,,,,579302,zxzczcczxzvvznzznznzznnmmnmmma,001,2024-02-15_17h02.41.402,VH_new_version2,2023.2.3,Win32,60.24096386,377.2695,378.2688,,,,,,,,,,,,,,,,,,,,,,,,,,378.2689,378.8514,m,1,0.5523,,378.8516,378.8518,,0,177,177,60,1,61,nefret,2429,110.3641,2115,0.2312,6,harmonic,1.8,5.042827826,m,w,,,,,,,
,,,,,,,,,,,579302,zxzczcczxzvvznzznznzznnmmnmmma,001,2024-02-15_17h02.41.402,VH_new_version2,2023.2.3,Win32,60.24096386,378.853,379.8522,,,,,,,,,,,,,,,,,,,,,,,,,,379.8523,380.3691,m,1,0.4886,,380.3692,380.3695,,0,178,178,95,1,96,sanat,3121,141.8059,2485,0.2717,5,harmonic,1.4,5.151694301,m,w,,,,,,,
,,,,,,,,,,,579302,zxzczcczxzvvznzznznzznnmmnmmma,001,2024-02-15_17h02.41.402,VH_new_version2,2023.2.3,Win32,60.24096386,380.3704,381.3689,,,,,,,,,,,,,,,,,,,,,,,,,,381.369,381.9186,m,1,0.5258,,381.9187,381.919,,0,179,179,66,1,67,tercih,4577,207.9607,4282,0.4681,6,harmonic,1.7,5.317981271,m,w,,,,,,,
,,,,,,,,,,,579302,zxzczcczxzvvznzznznzznnmmnmmma,001,2024-02-15_17h02.41.402,VH_new_version2,2023.2.3,Win32,60.24096386,381.9204,382.9188,,,,,,,,,,,,,,,,,,,,,,,,,,382.9189,383.5027,z,1,0.5556,,383.5028,383.5032,,0,180,180,246,1,247,masil,,,,,5,notharmonic,1.7,,z,nw,,,,,,,
,,,,,,,,,,,579302,zxzczcczxzvvznzznznzznnmmnmmma,001,2024-02-15_17h02.41.402,VH_new_version2,2023.2.3,Win32,60.24096386,383.5044,384.5031,,,,,,,,,,,,,,,,,,,,,,,,,,384.5032,385.0867,m,1,0.5532,,385.0869,385.0873,,0,181,181,48,1,49,çocuk,10612,482.1672,8979,0.9816,5,harmonic,1.75,5.683197664,m,w,,,,,,,
,,,,,,,,,,,579302,zxzczcczxzvvznzznznzznnmmnmmma,001,2024-02-15_17h02.41.402,VH_new_version2,2023.2.3,Win32,60.24096386,385.0883,386.0865,,,,,,,,,,,,,,,,,,,,,,,,,,386.0867,386.7035,z,1,0.586,,386.7038,386.7042,,0,182,182,169,1,170,senez,,,,,5,harmonic,1.65,,z,nw,,,,,,,
,,,,,,,,,,,579302,zxzczcczxzvvznzznznzznnmmnmmma,001,2024-02-15_17h02.41.402,VH_new_version2,2023.2.3,Win32,60.24096386,386.7053,387.7034,,,,,,,,,,,,,,,,,,,,,,,,,,387.7035,388.2034,m,1,0.4729,,388.2035,388.2037,,0,183,183,109,1,110,ürün,2268,103.0489,1954,0.2136,4,harmonic,1.1,5.01304336,m,w,,,,,,,
,,,,,,,,,,,579302,zxzczcczxzvvznzznznzznnmmnmmma,001,2024-02-15_17h02.41.402,VH_new_version2,2023.2.3,Win32,60.24096386,388.2049,389.2033,,,,,,,,,,,,,,,,,,,,,,,,,,389.2034,389.6365,m,1,0.4091,,389.6367,389.6371,,0,184,184,85,1,86,güneş,4371,198.6009,3610,0.3946,5,harmonic,1.7,5.297981212,m,w,,,,,,,
,,,,,,,,,,,579302,zxzczcczxzvvznzznznzznnmmnmmma,001,2024-02-15_17h02.41.402,VH_new_version2,2023.2.3,Win32,60.24096386,389.6384,390.6369,,,,,,,,,,,,,,,,,,,,,,,,,,390.637,391.1378,m,1,0.4688,,391.138,391.1381,,0,185,185,94,1,95,bebek,3301,149.9843,2794,0.3054,5,harmonic,1.6,5.176045801,m,w,,,,,,,
,,,,,,,,,,,579302,zxzczcczxzvvznzznznzznnmmnmmma,001,2024-02-15_17h02.41.402,VH_new_version2,2023.2.3,Win32,60.24096386,391.1395,392.1373,,,,,,,,,,,,,,,,,,,,,,,,,,392.1374,392.6869,z,1,0.5247,,392.6871,392.6876,,0,186,186,164,1,165,üdel,,,,,4,harmonic,1.95,,z,nw,,,,,,,
,,,,,,,,,,,579302,zxzczcczxzvvznzznznzznnmmnmmma,001,2024-02-15_17h02.41.402,VH_new_version2,2023.2.3,Win32,60.24096386,392.6886,393.6869,,,,,,,,,,,,,,,,,,,,,,,,,,393.687,394.1776,m,1,0.468,,394.1777,394.1781,,0,187,187,5,1,6,üzüm,716,32.5322,588,0.0643,4,harmonic,1.45,4.512313434,m,w,,,,,,,
,,,,,,,,,,,579302,zxzczcczxzvvznzznznzznnmmnmmma,001,2024-02-15_17h02.41.402,VH_new_version2,2023.2.3,Win32,60.24096386,394.1788,395.1703,,,,,,,,,,,,,,,,,,,,,,,,,,395.1704,396.0037,z,1,0.8097,,396.0038,396.0042,,0,188,188,261,1,262,eksan,,,,,5,notharmonic,1.7,,z,nw,,,,,,,
,,,,,,,,,,,579302,zxzczcczxzvvznzznznzznnmmnmmma,001,2024-02-15_17h02.41.402,VH_new_version2,2023.2.3,Win32,60.24096386,396.0056,397.0045,,,,,,,,,,,,,,,,,,,,,,,,,,397.0046,397.6039,z,1,0.5685,,397.604,397.6044,,0,189,189,194,1,195,bufsay,,,,,6,harmonic,2.6,,z,nw,,,,,,,
,,,,,,,,,,,579302,zxzczcczxzvvznzznznzznnmmnmmma,001,2024-02-15_17h02.41.402,VH_new_version2,2023.2.3,Win32,60.24096386,397.6055,398.6045,,,,,,,,,,,,,,,,,,,,,,,,,,398.6046,399.1381,m,1,0.5064,,399.1383,399.1386,,0,190,190,45,1,46,akşam,7480,339.8615,6833,0.747,5,harmonic,1.6,5.53130197,m,w,,,,,,,
,,,,,,,,,,,579302,zxzczcczxzvvznzznznzznnmmnmmma,001,2024-02-15_17h02.41.402,VH_new_version2,2023.2.3,Win32,60.24096386,399.1398,400.1387,,,,,,,,,,,,,,,,,,,,,,,,,,400.1389,400.705,z,0,0.5444,,400.7051,400.7055,,0,191,191,140,1,141,kimlik,867,39.393,726,0.0794,6,harmonic,1.7,4.595419056,m,w,,,,,,,
,,,,,,,,,,,579302,zxzczcczxzvvznzznznzznnmmnmmma,001,2024-02-15_17h02.41.402,VH_new_version2,2023.2.3,Win32,60.24096386,400.7064,401.7046,,,,,,,,,,,,,,,,,,,,,,,,,,401.7047,402.3387,m,1,0.6032,,402.3388,402.3391,,0,192,192,108,1,109,hayvan,2363,107.3653,1894,0.2071,6,harmonic,1.5,5.030863942,m,w,,,,,,,
,,,,,,,,,,,579302,zxzczcczxzvvznzznznzznnmmnmmma,001,2024-02-15_17h02.41.402,VH_new_version2,2023.2.3,Win32,60.24096386,402.3403,403.3388,,,,,,,,,,,,,,,,,,,,,,,,,,403.339,403.8879,m,1,0.5255,,403.8879,403.888,,0,193,193,37,1,38,cümle,1911,86.8283,1765,0.193,5,harmonic,1.85,4.938661298,m,w,,,,,,,
,,,,,,,,,,,579302,zxzczcczxzvvznzznznzznnmmnmmma,001,2024-02-15_17h02.41.402,VH_new_version2,2023.2.3,Win32,60.24096386,403.8889,404.8893,,,,,,,,,,,,,,,,,,,,,,,,,,404.8893,405.4395,m,1,0.5276,,405.4397,405.44,,0,194,194,79,1,80,erik,376,17.0839,335,0.0366,4,harmonic,1,4.232587021,m,w,,,,,,,
,,,,,,,,,,,579302,zxzczcczxzvvznzznznzznnmmnmmma,001,2024-02-15_17h02.41.402,VH_new_version2,2023.2.3,Win32,60.24096386,405.4414,406.4456,,,,,,,,,,,,,,,,,,,,,,,,,,406.4456,407.0227,z,1,0.5541,,407.0229,407.0231,,0,195,195,263,1,264,magina,,,,,6,notharmonic,1.9,,z,nw,,,,,,,
,,,,,,,,,,,579302,zxzczcczxzvvznzznznzznnmmnmmma,001,2024-02-15_17h02.41.402,VH_new_version2,2023.2.3,Win32,60.24096386,407.0248,408.0228,,,,,,,,,,,,,,,,,,,,,,,,,,408.0228,408.5897,m,1,0.5439,,408.5899,408.5903,,0,196,196,40,1,41,temel,4231,192.2399,3851,0.421,5,harmonic,1.55,5.283843532,m,w,,,,,,,
,,,,,,,,,,,579302,zxzczcczxzvvznzznznzznnmmnmmma,001,2024-02-15_17h02.41.402,VH_new_version2,2023.2.3,Win32,60.24096386,408.5914,409.5895,,,,,,,,,,,,,,,,,,,,,,,,,,409.5896,410.4062,z,1,0.7925,,410.4062,410.4065,,0,197,197,184,1,185,nekir,,,,,5,harmonic,1.6,,z,nw,,,,,,,
,,,,,,,,,,,579302,zxzczcczxzvvznzznznzznnmmnmmma,001,2024-02-15_17h02.41.402,VH_new_version2,2023.2.3,Win32,60.24096386,410.4073,411.407,,,,,,,,,,,,,,,,,,,,,,,,,,411.4072,411.9231,m,1,0.488,,411.9231,411.9232,,0,198,198,91,1,92,yeşil,3445,156.5271,2946,0.3221,5,harmonic,1.8,5.194589539,m,w,,,,,,,
,,,,,,,,,,,579302,zxzczcczxzvvznzznznzznnmmnmmma,001,2024-02-15_17h02.41.402,VH_new_version2,2023.2.3,Win32,60.24096386,411.9243,412.9235,,,,,,,,,,,,,,,,,,,,,,,,,,412.9235,413.5401,z,1,0.5862,,413.5402,413.5404,,0,199,199,233,1,234,eali,,,,,4,notharmonic,1,,z,nw,,,,,,,
,,,,,,,,,,,579302,zxzczcczxzvvznzznznzznnmmnmmma,001,2024-02-15_17h02.41.402,VH_new_version2,2023.2.3,Win32,60.24096386,413.5417,414.5402,,,,,,,,,,,,,,,,,,,,,,,,,,414.5403,415.0405,m,1,0.4746,,415.0405,415.0408,,0,200,200,96,1,97,şehir,2981,135.4448,2608,0.2851,5,harmonic,1.75,5.131762336,m,w,,,,,,,
,,,,,,,,,,,579302,zxzczcczxzvvznzznznzznnmmnmmma,001,2024-02-15_17h02.41.402,VH_new_version2,2023.2.3,Win32,60.24096386,415.0417,416.0405,,,,,,,,,,,,,,,,,,,,,,,,,,416.0405,416.6408,m,1,0.5769,,416.641,416.6412,,0,201,201,13,1,14,kedi,1646,74.7877,1394,0.1524,4,harmonic,1.1,4.873830177,m,w,,,,,,,
,,,,,,,,,,,579302,zxzczcczxzvvznzznznzznnmmnmmma,001,2024-02-15_17h02.41.402,VH_new_version2,2023.2.3,Win32,60.24096386,416.6423,417.6413,,,,,,,,,,,,,,,,,,,,,,,,,,417.6414,418.3416,m,1,0.677,,418.3419,418.3423,,0,202,202,116,1,117,nokta,2085,94.7341,1939,0.212,5,harmonic,1.5,4.976506334,m,w,,,,,,,
,,,,,,,,,,,579302,zxzczcczxzvvznzznznzznnmmnmmma,001,2024-02-15_17h02.41.402,VH_new_version2,2023.2.3,Win32,60.24096386,418.3438,419.3416,,,,,,,,,,,,,,,,,,,,,,,,,,419.3417,419.9079,m,1,0.5362,,419.908,419.9083,,0,203,203,63,1,64,hizmet,3023,137.3531,2689,0.294,6,harmonic,1.75,5.137838466,m,w,,,,,,,
,,,,,,,,,,,579302,zxzczcczxzvvznzznznzznnmmnmmma,001,2024-02-15_17h02.41.402,VH_new_version2,2023.2.3,Win32,60.24096386,419.9093,420.908,,,,,,,,,,,,,,,,,,,,,,,,,,420.9081,421.4085,m,1,0.4717,,421.4086,421.4089,,0,204,204,7,1,8,inci,757,34.3951,686,0.075,4,harmonic,1.05,4.536496576,m,w,,,,,,,
,,,,,,,,,,,579302,zxzczcczxzvvznzznznzznnmmnmmma,001,2024-02-15_17h02.41.402,VH_new_version2,2023.2.3,Win32,60.24096386,421.4102,422.4088,,,,,,,,,,,,,,,,,,,,,,,,,,422.4088,422.9923,z,1,0.553,,422.9924,422.9926,,0,205,205,167,1,168,ontan,,,,,5,harmonic,1.6,,z,nw,,,,,,,
,,,,,,,,,,,579302,zxzczcczxzvvznzznznzznnmmnmmma,001,2024-02-15_17h02.41.402,VH_new_version2,2023.2.3,Win32,60.24096386,422.9936,423.9918,,,,,,,,,,,,,,,,,,,,,,,,,,423.9919,424.475,m,1,0.4578,,424.4751,424.4755,,0,206,206,28,1,29,melek,878,39.8928,773,0.0845,5,harmonic,1.1,4.60089452,m,w,,,,,,,
,,,,,,,,,,,579302,zxzczcczxzvvznzznznzznnmmnmmma,001,2024-02-15_17h02.41.402,VH_new_version2,2023.2.3,Win32,60.24096386,424.4765,425.482,,,,,,,,,,,,,,,,,,,,,,,,,,425.4821,426.0089,z,1,0.5064,,426.0089,426.0093,,0,207,207,213,1,214,zale,,,,,4,notharmonic,1.55,,z,nw,,,,,,,
,,,,,,,,,,,579302,zxzczcczxzvvznzznznzznnmmnmmma,001,2024-02-15_17h02.41.402,VH_new_version2,2023.2.3,Win32,60.24096386,426.0102,427.0091,,,,,,,,,,,,,,,,,,,,,,,,,,427.0091,427.6761,z,1,0.6397,,427.6763,427.6766,,0,208,208,171,1,172,faraç,,,,,5,harmonic,1.75,,z,nw,,,,,,,
,,,,,,,,,,,579302,zxzczcczxzvvznzznznzznnmmnmmma,001,2024-02-15_17h02.41.402,VH_new_version2,2023.2.3,Win32,60.24096386,427.6777,428.6761,,,,,,,,,,,,,,,,,,,,,,,,,,428.6761,429.1927,m,1,0.4863,,429.1929,429.1931,,0,209,209,125,1,126,bardak,1728,78.5135,1569,0.1715,6,harmonic,1.6,4.894944338,m,w,,,,,,,
,,,,,,,,,,,579302,zxzczcczxzvvznzznznzznnmmnmmma,001,2024-02-15_17h02.41.402,VH_new_version2,2023.2.3,Win32,60.24096386,429.1941,430.1934,,,,,,,,,,,,,,,,,,,,,,,,,,430.1935,430.7428,m,0,0.5246,,430.743,430.7435,,0,210,210,181,1,182,masus,,,,,5,harmonic,1.7,,z,nw,,,,,,,
,,,,,,,,,,,579302,zxzczcczxzvvznzznznzznnmmnmmma,001,2024-02-15_17h02.41.402,VH_new_version2,2023.2.3,Win32,60.24096386,430.7446,431.7427,,,,,,,,,,,,,,,,,,,,,,,,,,431.7429,432.5265,m,1,0.7534,,432.5267,432.527,,0,211,211,65,1,66,destek,3328,151.2111,3065,0.3351,6,harmonic,1.85,5.179583673,m,w,,,,,,,
,,,,,,,,,,,579302,zxzczcczxzvvznzznznzznnmmnmmma,001,2024-02-15_17h02.41.402,VH_new_version2,2023.2.3,Win32,60.24096386,432.5279,433.5271,,,,,,,,,,,,,,,,,,,,,,,,,,433.5272,434.126,m,0,0.5705,,434.1261,436.411,space,0,212,212,248,1,249,talif,,,,,5,notharmonic,1.5,,z,nw,2.2689,,,,,,
,,,,,,,,,,,579302,zxzczcczxzvvznzznznzznnmmnmmma,001,2024-02-15_17h02.41.402,VH_new_version2,2023.2.3,Win32,60.24096386,436.4479,437.4273,,,,,,,,,,,,,,,,,,,,,,,,,,437.4274,438.1271,z,1,0.669,,438.1272,438.1274,,0,213,213,231,1,232,babi,,,,,4,notharmonic,1.4,,z,nw,,,,,,,
,,,,,,,,,,,579302,zxzczcczxzvvznzznznzznnmmnmmma,001,2024-02-15_17h02.41.402,VH_new_version2,2023.2.3,Win32,60.24096386,438.1282,439.1271,,,,,,,,,,,,,,,,,,,,,,,,,,439.1271,439.7002,z,1,0.5504,,439.7002,439.7004,,0,214,214,212,1,213,yeryek,,,,,6,harmonic,1.9,,z,nw,,,,,,,
,,,,,,,,,,,579302,zxzczcczxzvvznzznznzznnmmnmmma,001,2024-02-15_17h02.41.402,VH_new_version2,2023.2.3,Win32,60.24096386,439.7006,440.6937,,,,,,,,,,,,,,,,,,,,,,,,,,440.6938,441.2608,z,1,0.5441,,441.2608,441.2611,,0,215,215,218,1,219,ecmu,,,,,4,notharmonic,2,,z,nw,,,,,,,
,,,,,,,,,,,579302,zxzczcczxzvvznzznznzznnmmnmmma,001,2024-02-15_17h02.41.402,VH_new_version2,2023.2.3,Win32,60.24096386,441.2621,442.2608,,,,,,,,,,,,,,,,,,,,,,,,,,442.2609,442.8191,m,1,0.5349,,442.8193,442.8195,,0,216,216,42,1,43,şeker,4708,213.9128,4170,0.4559,5,harmonic,1.6,5.330236772,m,w,,,,,,,
,,,,,,,,,,,579302,zxzczcczxzvvznzznznzznnmmnmmma,001,2024-02-15_17h02.41.402,VH_new_version2,2023.2.3,Win32,60.24096386,442.8203,443.812,,,,,,,,,,,,,,,,,,,,,,,,,,443.812,444.6118,z,1,0.769,,444.612,444.6123,,0,217,217,156,1,157,obık,,,,,4,harmonic,1.95,,z,nw,,,,,,,
,,,,,,,,,,,579302,zxzczcczxzvvznzznznzznnmmnmmma,001,2024-02-15_17h02.41.402,VH_new_version2,2023.2.3,Win32,60.24096386,444.6133,445.6116,,,,,,,,,,,,,,,,,,,,,,,,,,445.6117,446.1291,m,1,0.4854,,446.1292,446.1295,,0,218,218,69,1,70,yüksek,7909,359.3536,7119,0.7783,6,harmonic,1.7,5.555522,m,w,,,,,,,
,,,,,,,,,,,579302,zxzczcczxzvvznzznznzznnmmnmmma,001,2024-02-15_17h02.41.402,VH_new_version2,2023.2.3,Win32,60.24096386,446.1304,447.1285,,,,,,,,,,,,,,,,,,,,,,,,,,447.1286,447.6614,z,1,0.5009,,447.6614,447.6615,,0,219,219,200,1,201,tuzrak,,,,,6,harmonic,1.95,,z,nw,,,,,,,
,,,,,,,,,,,579302,zxzczcczxzvvznzznznzznnmmnmmma,001,2024-02-15_17h02.41.402,VH_new_version2,2023.2.3,Win32,60.24096386,447.6622,448.6632,,,,,,,,,,,,,,,,,,,,,,,,,,448.6633,449.3124,m,1,0.6233,,449.3125,449.313,,0,220,220,127,1,128,kaynak,1577,71.6526,1481,0.1619,6,harmonic,1.4,4.855231954,m,w,,,,,,,
,,,,,,,,,,,579302,zxzczcczxzvvznzznznzznnmmnmmma,001,2024-02-15_17h02.41.402,VH_new_version2,2023.2.3,Win32,60.24096386,449.3144,450.3127,,,,,,,,,,,,,,,,,,,,,,,,,,450.3129,450.903,m,1,0.5683,,450.9031,450.9034,,0,221,221,99,1,100,altı,2782,126.403,2571,0.2811,4,harmonic,1,5.101757381,m,w,,,,,,,
,,,,,,,,,,,579302,zxzczcczxzvvznzznznzznnmmnmmma,001,2024-02-15_17h02.41.402,VH_new_version2,2023.2.3,Win32,60.24096386,450.9041,451.8958,,,,,,,,,,,,,,,,,,,,,,,,,,451.8959,452.5633,z,1,0.6391,,452.5634,452.5638,,0,222,222,220,1,221,nica,,,,,4,notharmonic,1.75,,z,nw,,,,,,,
,,,,,,,,,,,579302,zxzczcczxzvvznzznznzznnmmnmmma,001,2024-02-15_17h02.41.402,VH_new_version2,2023.2.3,Win32,60.24096386,452.5648,453.5634,,,,,,,,,,,,,,,,,,,,,,,,,,453.5635,454.3631,m,1,0.7706,,454.3632,454.3634,,0,223,223,51,1,52,yaprak,739,33.5772,678,0.0741,6,harmonic,1.7,4.526044478,m,w,,,,,,,
,,,,,,,,,,,579302,zxzczcczxzvvznzznznzznnmmnmmma,001,2024-02-15_17h02.41.402,VH_new_version2,2023.2.3,Win32,60.24096386,454.3642,455.3636,,,,,,,,,,,,,,,,,,,,,,,,,,455.3637,456.0967,z,1,0.7027,,456.0968,456.097,,0,224,224,193,1,194,hatrak,,,,,6,harmonic,1.95,,z,nw,,,,,,,
,,,,,,,,,,,579302,zxzczcczxzvvznzznznzznnmmnmmma,001,2024-02-15_17h02.41.402,VH_new_version2,2023.2.3,Win32,60.24096386,456.0986,457.097,,,,,,,,,,,,,,,,,,,,,,,,,,457.097,457.6637,m,1,0.5359,,457.6639,457.6641,,0,225,225,105,1,106,hasta,2431,110.455,2140,0.2339,5,harmonic,1,5.04318538,m,w,,,,,,,
,,,,,,,,,,,579302,zxzczcczxzvvznzznznzznnmmnmmma,001,2024-02-15_17h02.41.402,VH_new_version2,2023.2.3,Win32,60.24096386,457.6651,458.6641,,,,,,,,,,,,,,,,,,,,,,,,,,458.6642,459.2138,z,1,0.5187,,459.2138,459.2141,,0,226,226,269,1,270,sakate,,,,,6,notharmonic,1.8,,z,nw,,,,,,,
,,,,,,,,,,,579302,zxzczcczxzvvznzznznzznnmmnmmma,001,2024-02-15_17h02.41.402,VH_new_version2,2023.2.3,Win32,60.24096386,459.2156,460.2139,,,,,,,,,,,,,,,,,,,,,,,,,,460.214,460.7806,m,1,0.5354,,460.7807,460.7809,,0,227,227,44,1,45,erkek,6188,281.1582,5195,0.5679,5,harmonic,1.55,5.448950754,m,w,,,,,,,
,,,,,,,,,,,579302,zxzczcczxzvvznzznznzznnmmnmmma,001,2024-02-15_17h02.41.402,VH_new_version2,2023.2.3,Win32,60.24096386,460.7821,461.7817,,,,,,,,,,,,,,,,,,,,,,,,,,461.7818,462.2813,z,1,0.4686,,462.2814,462.2816,,0,228,228,266,1,267,ebvace,,,,,6,notharmonic,2.95,,z,nw,,,,,,,
,,,,,,,,,,,579302,zxzczcczxzvvznzznznzznnmmnmmma,001,2024-02-15_17h02.41.402,VH_new_version2,2023.2.3,Win32,60.24096386,462.2825,463.2816,,,,,,,,,,,,,,,,,,,,,,,,,,463.2817,463.8815,z,1,0.5737,,463.8816,463.8819,,0,229,229,226,1,227,şüda,,,,,4,notharmonic,1.9,,z,nw,,,,,,,
,,,,,,,,,,,579302,zxzczcczxzvvznzznznzznnmmnmmma,001,2024-02-15_17h02.41.402,VH_new_version2,2023.2.3,Win32,60.24096386,463.883,464.8821,,,,,,,,,,,,,,,,,,,,,,,,,,464.8822,465.4818,z,1,0.5693,,465.482,465.4824,,0,230,230,176,1,177,çırna,,,,,5,harmonic,1.85,,z,nw,,,,,,,
,,,,,,,,,,,579302,zxzczcczxzvvznzznznzznnmmnmmma,001,2024-02-15_17h02.41.402,VH_new_version2,2023.2.3,Win32,60.24096386,465.4837,466.4813,,,,,,,,,,,,,,,,,,,,,,,,,,466.4813,467.1656,z,1,0.653,,467.1656,467.166,,0,231,231,214,1,215,dera,,,,,4,notharmonic,1.2,,z,nw,,,,,,,
,,,,,,,,,,,579302,zxzczcczxzvvznzznznzznnmmnmmma,001,2024-02-15_17h02.41.402,VH_new_version2,2023.2.3,Win32,60.24096386,467.1672,468.1654,,,,,,,,,,,,,,,,,,,,,,,,,,468.1655,468.7324,m,1,0.5353,,468.7325,468.7326,,0,232,232,86,1,87,takım,4370,198.5555,3726,0.4073,5,harmonic,1,5.297881922,m,w,,,,,,,
,,,,,,,,,,,579302,zxzczcczxzvvznzznznzznnmmnmmma,001,2024-02-15_17h02.41.402,VH_new_version2,2023.2.3,Win32,60.24096386,468.7337,469.7319,,,,,,,,,,,,,,,,,,,,,,,,,,469.7321,470.2994,z,1,0.5368,,470.2996,470.2999,,0,233,233,149,1,150,irgi,,,,,4,harmonic,1.8,,z,nw,,,,,,,
,,,,,,,,,,,579302,zxzczcczxzvvznzznznzznnmmnmmma,001,2024-02-15_17h02.41.402,VH_new_version2,2023.2.3,Win32,60.24096386,470.301,471.2993,,,,,,,,,,,,,,,,,,,,,,,,,,471.2994,471.9158,z,1,0.5854,,471.9159,471.916,,0,234,234,258,1,259,ihati,,,,,5,notharmonic,1.95,,z,nw,,,,,,,
,,,,,,,,,,,579302,zxzczcczxzvvznzznznzznnmmnmmma,001,2024-02-15_17h02.41.402,VH_new_version2,2023.2.3,Win32,60.24096386,471.917,472.9162,,,,,,,,,,,,,,,,,,,,,,,,,,472.9163,473.4328,m,1,0.4935,,473.4329,473.4333,,0,235,235,9,1,10,uçak,894,40.6198,752,0.0822,4,harmonic,1.4,4.608737781,m,w,,,,,,,
,,,,,,,,,,,579302,zxzczcczxzvvznzznznzznnmmnmmma,001,2024-02-15_17h02.41.402,VH_new_version2,2023.2.3,Win32,60.24096386,473.4342,474.4329,,,,,,,,,,,,,,,,,,,,,,,,,,474.433,475.0834,m,1,0.623,,475.0834,475.0837,,0,236,236,137,1,138,mutfak,1110,50.434,1032,0.1128,6,harmonic,1.95,4.702723414,m,w,,,,,,,
,,,,,,,,,,,579302,zxzczcczxzvvznzznznzznnmmnmmma,001,2024-02-15_17h02.41.402,VH_new_version2,2023.2.3,Win32,60.24096386,475.0849,476.0836,,,,,,,,,,,,,,,,,,,,,,,,,,476.0837,476.6337,m,1,0.5191,,476.6338,476.6342,,0,237,237,12,1,13,ağaç,1245,56.5679,1082,0.1183,4,harmonic,1.6,4.752570056,m,w,,,,,,,
,,,,,,,,,,,579302,zxzczcczxzvvznzznznzznnmmnmmma,001,2024-02-15_17h02.41.402,VH_new_version2,2023.2.3,Win32,60.24096386,476.6355,477.6339,,,,,,,,,,,,,,,,,,,,,,,,,,477.634,478.2835,z,1,0.6198,,478.2836,478.2838,,0,238,238,159,1,160,daro,,,,,4,harmonic,1.7,,z,nw,,,,,,,
,,,,,,,,,,,579302,zxzczcczxzvvznzznznzznnmmnmmma,001,2024-02-15_17h02.41.402,VH_new_version2,2023.2.3,Win32,60.24096386,478.2851,479.2843,,,,,,,,,,,,,,,,,,,,,,,,,,479.2844,479.7837,m,1,0.4748,,479.7838,479.784,,0,239,239,67,1,68,sosyal,5290,240.3566,4372,0.4779,6,harmonic,1.85,5.380856052,m,w,,,,,,,
,,,,,,,,,,,579302,zxzczcczxzvvznzznznzznnmmnmmma,001,2024-02-15_17h02.41.402,VH_new_version2,2023.2.3,Win32,60.24096386,479.7849,480.7848,,,,,,,,,,,,,,,,,,,,,,,,,,480.7849,481.3174,z,1,0.5083,,481.3175,481.3178,,0,240,240,241,1,242,akter,,,,,5,notharmonic,1.8,,z,nw,,,,,,,
,,,,,,,,,,,579302,zxzczcczxzvvznzznznzznnmmnmmma,001,2024-02-15_17h02.41.402,VH_new_version2,2023.2.3,Win32,60.24096386,481.3196,482.3172,,,,,,,,,,,,,,,,,,,,,,,,,,482.3173,482.8846,m,1,0.5358,,482.8847,482.8849,,0,241,241,36,1,37,gönül,1786,81.1488,1676,0.1832,5,harmonic,1.8,4.909282102,m,w,,,,,,,
,,,,,,,,,,,579302,zxzczcczxzvvznzznznzznnmmnmmma,001,2024-02-15_17h02.41.402,VH_new_version2,2023.2.3,Win32,60.24096386,482.8861,483.8851,,,,,,,,,,,,,,,,,,,,,,,,,,483.8851,484.7013,z,1,0.7839,,484.7014,484.7017,,0,242,242,280,1,281,icarar,,,,,6,notharmonic,2,,z,nw,,,,,,,
,,,,,,,,,,,579302,zxzczcczxzvvznzznznzznnmmnmmma,001,2024-02-15_17h02.41.402,VH_new_version2,2023.2.3,Win32,60.24096386,484.7027,485.7013,,,,,,,,,,,,,,,,,,,,,,,,,,485.7013,486.3851,z,1,0.6578,,486.3853,486.3856,,0,243,243,174,1,175,güzeh,,,,,5,harmonic,1.85,,z,nw,,,,,,,
,,,,,,,,,,,579302,zxzczcczxzvvznzznznzznnmmnmmma,001,2024-02-15_17h02.41.402,VH_new_version2,2023.2.3,Win32,60.24096386,486.3865,487.385,,,,,,,,,,,,,,,,,,,,,,,,,,487.3851,487.9567,m,1,0.5488,,487.9567,487.957,,0,244,244,14,1,15,ocak,1685,76.5597,1548,0.1692,4,harmonic,1.9,4.884000223,m,w,,,,,,,
,,,,,,,,,,,579302,zxzczcczxzvvznzznznzznnmmnmmma,001,2024-02-15_17h02.41.402,VH_new_version2,2023.2.3,Win32,60.24096386,487.9578,488.9519,,,,,,,,,,,,,,,,,,,,,,,,,,488.9519,489.5361,m,1,0.5611,,489.5362,489.5365,,0,245,245,30,1,31,pamuk,937,42.5736,826,0.0903,5,harmonic,1.9,4.629140375,m,w,,,,,,,
,,,,,,,,,,,579302,zxzczcczxzvvznzznznzznnmmnmmma,001,2024-02-15_17h02.41.402,VH_new_version2,2023.2.3,Win32,60.24096386,489.5375,490.5363,,,,,,,,,,,,,,,,,,,,,,,,,,490.5364,491.0694,m,1,0.5038,,491.0695,491.0699,,0,246,246,55,1,56,zeytin,904,41.0742,758,0.0829,6,harmonic,1.85,4.613569113,m,w,,,,,,,
,,,,,,,,,,,579302,zxzczcczxzvvznzznznzznnmmnmmma,001,2024-02-15_17h02.41.402,VH_new_version2,2023.2.3,Win32,60.24096386,491.0711,492.0696,,,,,,,,,,,,,,,,,,,,,,,,,,492.0699,492.636,m,1,0.5374,,492.6361,492.6364,,0,247,247,58,1,59,toprak,1989,90.3723,1762,0.1926,6,harmonic,1.9,4.956035335,m,w,,,,,,,
,,,,,,,,,,,579302,zxzczcczxzvvznzznznzznnmmnmmma,001,2024-02-15_17h02.41.402,VH_new_version2,2023.2.3,Win32,60.24096386,492.6373,493.6371,,,,,,,,,,,,,,,,,,,,,,,,,,493.6373,494.253,m,1,0.5859,,494.2531,494.2534,,0,248,248,76,1,77,koltuk,559,25.3987,476,0.052,6,harmonic,1.75,4.404811488,m,w,,,,,,,
,,,,,,,,,,,579302,zxzczcczxzvvznzznznzznnmmnmmma,001,2024-02-15_17h02.41.402,VH_new_version2,2023.2.3,Win32,60.24096386,494.2547,495.2528,,,,,,,,,,,,,,,,,,,,,,,,,,495.2528,495.8031,m,1,0.5198,,495.8032,495.8036,,0,249,249,59,1,60,zengin,2193,99.6412,2015,0.2203,6,harmonic,1.65,4.998438949,m,w,,,,,,,
,,,,,,,,,,,579302,zxzczcczxzvvznzznznzznnmmnmmma,001,2024-02-15_17h02.41.402,VH_new_version2,2023.2.3,Win32,60.24096386,495.8047,496.8035,,,,,,,,,,,,,,,,,,,,,,,,,,496.8035,497.3531,m,1,0.5222,,497.3532,497.3537,,0,250,250,83,1,84,şafak,616,27.9886,521,0.057,5,harmonic,1.8,4.446981175,m,w,,,,,,,
,,,,,,,,,,,579302,zxzczcczxzvvznzznznzznnmmnmmma,001,2024-02-15_17h02.41.402,VH_new_version2,2023.2.3,Win32,60.24096386,497.3548,498.3532,,,,,,,,,,,,,,,,,,,,,,,,,,498.3532,498.8203,m,1,0.4356,,498.8204,498.8207,,0,251,251,33,1,34,sayfa,1655,75.1966,1502,0.1642,5,harmonic,1.45,4.876198204,m,w,,,,,,,
,,,,,,,,,,,579302,zxzczcczxzvvznzznznzznnmmnmmma,001,2024-02-15_17h02.41.402,VH_new_version2,2023.2.3,Win32,60.24096386,498.8219,499.8198,,,,,,,,,,,,,,,,,,,,,,,,,,499.8198,500.4203,z,1,0.5694,,500.4204,500.4207,,0,252,252,243,1,244,kuyef,,,,,5,notharmonic,2.3,,z,nw,,,,,,,
,,,,,,,,,,,579302,zxzczcczxzvvznzznznzznnmmnmmma,001,2024-02-15_17h02.41.402,VH_new_version2,2023.2.3,Win32,60.24096386,500.4224,501.4209,,,,,,,,,,,,,,,,,,,,,,,,,,501.4211,502.0878,z,1,0.637,,502.0879,502.0883,,0,253,253,208,1,209,terbiy,,,,,6,harmonic,1.9,,z,nw,,,,,,,
,,,,,,,,,,,579302,zxzczcczxzvvznzznznzznnmmnmmma,001,2024-02-15_17h02.41.402,VH_new_version2,2023.2.3,Win32,60.24096386,502.0892,503.0873,,,,,,,,,,,,,,,,,,,,,,,,,,503.0874,503.8043,m,1,0.6891,,503.8044,503.8047,,0,254,254,90,1,91,insan,3684,167.3864,3486,0.3811,5,harmonic,1.55,5.223720169,m,w,,,,,,,
,,,,,,,,,,,579302,zxzczcczxzvvznzznznzznnmmnmmma,001,2024-02-15_17h02.41.402,VH_new_version2,2023.2.3,Win32,60.24096386,503.8059,504.8042,,,,,,,,,,,,,,,,,,,,,,,,,,504.8043,505.8383,m,1,1.0023,,505.8385,505.8389,,0,255,255,133,1,134,parmak,1268,57.6129,1165,0.1274,6,harmonic,1.75,4.760519736,m,w,,,,,,,
,,,,,,,,,,,579302,zxzczcczxzvvznzznznzznnmmnmmma,001,2024-02-15_17h02.41.402,VH_new_version2,2023.2.3,Win32,60.24096386,505.8399,506.8381,,,,,,,,,,,,,,,,,,,,,,,,,,506.8382,507.4056,z,1,0.5364,,507.4057,507.4061,,0,256,256,252,1,253,canit,,,,,5,notharmonic,1.8,,z,nw,,,,,,,
,,,,,,,,,,,579302,zxzczcczxzvvznzznznzznnmmnmmma,001,2024-02-15_17h02.41.402,VH_new_version2,2023.2.3,Win32,60.24096386,507.4074,508.4055,,,,,,,,,,,,,,,,,,,,,,,,,,508.4055,508.9547,z,1,0.5262,,508.9549,508.9551,,0,257,257,199,1,200,bartam,,,,,6,harmonic,1.85,,z,nw,,,,,,,
,,,,,,,,,,,579302,zxzczcczxzvvznzznznzznnmmnmmma,001,2024-02-15_17h02.41.402,VH_new_version2,2023.2.3,Win32,60.24096386,508.9564,509.9557,,,,,,,,,,,,,,,,,,,,,,,,,,509.9557,510.4722,m,1,0.4902,,510.4724,510.4729,,0,258,258,16,1,17,umut,1988,90.3268,1818,0.1987,4,harmonic,1.55,4.955816625,m,w,,,,,,,
,,,,,,,,,,,579302,zxzczcczxzvvznzznznzznnmmnmmma,001,2024-02-15_17h02.41.402,VH_new_version2,2023.2.3,Win32,60.24096386,510.4742,511.4725,,,,,,,,,,,,,,,,,,,,,,,,,,511.4726,512.0722,z,1,0.5722,,512.0723,512.0724,,0,259,259,247,1,248,fiyan,,,,,5,notharmonic,1.6,,z,nw,,,,,,,
,,,,,,,,,,,579302,zxzczcczxzvvznzznznzznnmmnmmma,001,2024-02-15_17h02.41.402,VH_new_version2,2023.2.3,Win32,60.24096386,512.0735,513.0728,,,,,,,,,,,,,,,,,,,,,,,,,,513.0729,513.7056,m,1,0.6074,,513.7057,513.7059,,0,260,260,10,1,11,eser,958,43.5277,892,0.0975,4,harmonic,1,4.63876572,m,w,,,,,,,
,,,,,,,,,,,579302,zxzczcczxzvvznzznznzznnmmnmmma,001,2024-02-15_17h02.41.402,VH_new_version2,2023.2.3,Win32,60.24096386,513.7071,514.7061,,,,,,,,,,,,,,,,,,,,,,,,,,514.7061,515.2733,z,1,0.5387,,515.2734,515.2738,,0,261,261,190,1,191,gopuk,,,,,5,harmonic,1.85,,z,nw,,,,,,,
,,,,,,,,,,,579302,zxzczcczxzvvznzznznzznnmmnmmma,001,2024-02-15_17h02.41.402,VH_new_version2,2023.2.3,Win32,60.24096386,515.2751,516.2725,,,,,,,,,,,,,,,,,,,,,,,,,,516.2725,516.8898,z,1,0.587,,516.8899,516.8903,,0,262,262,203,1,204,yağcır,,,,,6,harmonic,1.9,,z,nw,,,,,,,
,,,,,,,,,,,579302,zxzczcczxzvvznzznznzznnmmnmmma,001,2024-02-15_17h02.41.402,VH_new_version2,2023.2.3,Win32,60.24096386,516.892,517.89,,,,,,,,,,,,,,,,,,,,,,,,,,517.8902,518.3902,m,1,0.4723,,518.3904,518.3905,,0,263,263,64,1,65,teknik,3297,149.8026,2798,0.3059,6,harmonic,1.9,5.175519351,m,w,,,,,,,
,,,,,,,,,,,579302,zxzczcczxzvvznzznznzznnmmnmmma,001,2024-02-15_17h02.41.402,VH_new_version2,2023.2.3,Win32,60.24096386,518.3918,519.3901,,,,,,,,,,,,,,,,,,,,,,,,,,519.3901,520.0734,z,1,0.6527,,520.0735,520.0738,,0,264,264,222,1,223,laze,,,,,4,notharmonic,1.7,,z,nw,,,,,,,
,,,,,,,,,,,579302,zxzczcczxzvvznzznznzznnmmnmmma,001,2024-02-15_17h02.41.402,VH_new_version2,2023.2.3,Win32,60.24096386,520.075,521.074,,,,,,,,,,,,,,,,,,,,,,,,,,521.0742,521.6647,m,1,0.5684,,521.6649,521.6651,,0,265,265,52,1,53,buğday,746,33.8953,623,0.0681,6,harmonic,1.9,4.530139482,m,w,,,,,,,
,,,,,,,,,,,579302,zxzczcczxzvvznzznznzznnmmnmmma,001,2024-02-15_17h02.41.402,VH_new_version2,2023.2.3,Win32,60.24096386,521.6659,522.6573,,,,,,,,,,,,,,,,,,,,,,,,,,522.6574,523.2071,z,1,0.5261,,523.2071,523.2075,,0,266,266,278,1,279,avalün,,,,,6,notharmonic,2.2,,z,nw,,,,,,,
,,,,,,,,,,,579302,zxzczcczxzvvznzznznzznnmmnmmma,001,2024-02-15_17h02.41.402,VH_new_version2,2023.2.3,Win32,60.24096386,523.2085,524.2078,,,,,,,,,,,,,,,,,,,,,,,,,,524.2079,524.8079,z,1,0.5744,,524.808,524.8084,,0,267,267,191,1,192,pedrek,,,,,6,harmonic,2,,z,nw,,,,,,,
,,,,,,,,,,,579302,zxzczcczxzvvznzznznzznnmmnmmma,001,2024-02-15_17h02.41.402,VH_new_version2,2023.2.3,Win32,60.24096386,524.8098,525.8079,,,,,,,,,,,,,,,,,,,,,,,,,,525.808,526.4417,m,1,0.6027,,526.4419,526.4421,,0,268,268,103,1,104,resim,2506,113.8627,2188,0.2392,5,harmonic,1.4,5.056381478,m,w,,,,,,,
,,,,,,,,,,,579302,zxzczcczxzvvznzznznzznnmmnmmma,001,2024-02-15_17h02.41.402,VH_new_version2,2023.2.3,Win32,60.24096386,526.4431,527.441,,,,,,,,,,,,,,,,,,,,,,,,,,527.4411,527.9919,z,1,0.5196,,527.9919,527.9922,,0,269,269,204,1,205,kürfür,,,,,6,harmonic,1.95,,z,nw,,,,,,,
,,,,,,,,,,,579302,zxzczcczxzvvznzznznzznnmmnmmma,001,2024-02-15_17h02.41.402,VH_new_version2,2023.2.3,Win32,60.24096386,527.9931,528.9918,,,,,,,,,,,,,,,,,,,,,,,,,,528.9918,529.4914,z,1,0.475,,529.4915,529.4918,,0,270,270,147,1,148,üyöm,,,,,4,harmonic,1.95,,z,nw,,,,,,,
,,,,,,,,,,,579302,zxzczcczxzvvznzznznzznnmmnmmma,001,2024-02-15_17h02.41.402,VH_new_version2,2023.2.3,Win32,60.24096386,529.4926,530.4918,,,,,,,,,,,,,,,,,,,,,,,,,,530.4919,531.0831,m,1,0.5682,,531.0833,531.0834,,0,271,271,84,1,85,eğitim,4784,217.366,3846,0.4204,6,harmonic,1.5,5.337191613,m,w,,,,,,,
,,,,,,,,,,,579302,zxzczcczxzvvznzznznzznnmmnmmma,001,2024-02-15_17h02.41.402,VH_new_version2,2023.2.3,Win32,60.24096386,531.0843,532.0752,,,,,,,,,,,,,,,,,,,,,,,,,,532.0753,532.5925,m,1,0.4865,,532.5926,532.5929,,0,272,272,106,1,107,altın,2385,108.3649,2017,0.2205,5,harmonic,1,5.034888635,m,w,,,,,,,
,,,,,,,,,,,579302,zxzczcczxzvvznzznznzznnmmnmmma,001,2024-02-15_17h02.41.402,VH_new_version2,2023.2.3,Win32,60.24096386,532.594,533.5925,,,,,,,,,,,,,,,,,,,,,,,,,,533.5926,534.1754,z,1,0.5547,,534.1755,534.1757,,0,273,273,209,1,210,soğkal,,,,,6,harmonic,2.1,,z,nw,,,,,,,
,,,,,,,,,,,579302,zxzczcczxzvvznzznznzznnmmnmmma,001,2024-02-15_17h02.41.402,VH_new_version2,2023.2.3,Win32,60.24096386,534.1769,535.1762,,,,,,,,,,,,,,,,,,,,,,,,,,535.1763,535.7761,m,1,0.5685,,535.7762,535.7765,,0,274,274,81,1,82,hava,4975,226.0443,4398,0.4808,4,harmonic,1,5.35419356,m,w,,,,,,,
,,,,,,,,,,,579302,zxzczcczxzvvznzznznzznnmmnmmma,001,2024-02-15_17h02.41.402,VH_new_version2,2023.2.3,Win32,60.24096386,535.7777,536.7761,,,,,,,,,,,,,,,,,,,,,,,,,,536.7762,537.4093,m,1,0.6024,,537.4094,537.4096,,0,275,275,100,1,101,ekmek,2734,124.2221,2318,0.2534,5,harmonic,1.3,5.094198867,m,w,,,,,,,
,,,,,,,,,,,579302,zxzczcczxzvvznzznznzznnmmnmmma,001,2024-02-15_17h02.41.402,VH_new_version2,2023.2.3,Win32,60.24096386,537.4108,538.4099,,,,,,,,,,,,,,,,,,,,,,,,,,538.4099,539.0436,z,1,0.6033,,539.0438,539.0442,,0,276,276,239,1,240,kanel,,,,,5,notharmonic,1.9,,z,nw,,,,,,,
,,,,,,,,,,,579302,zxzczcczxzvvznzznznzznnmmnmmma,001,2024-02-15_17h02.41.402,VH_new_version2,2023.2.3,Win32,60.24096386,539.0457,540.043,,,,,,,,,,,,,,,,,,,,,,,,,,540.043,540.993,z,1,0.9202,,540.9931,540.9934,,0,277,277,276,1,277,hiyake,,,,,6,notharmonic,2.25,,z,nw,,,,,,,
,,,,,,,,,,,579302,zxzczcczxzvvznzznznzznnmmnmmma,001,2024-02-15_17h02.41.402,VH_new_version2,2023.2.3,Win32,60.24096386,540.9943,541.9934,,,,,,,,,,,,,,,,,,,,,,,,,,541.9936,542.5769,z,1,0.5528,,542.5771,542.5774,,0,278,278,198,1,199,tenlek,,,,,6,harmonic,1.85,,z,nw,,,,,,,
,,,,,,,,,,,579302,zxzczcczxzvvznzznznzznnmmnmmma,001,2024-02-15_17h02.41.402,VH_new_version2,2023.2.3,Win32,60.24096386,542.5789,543.5769,,,,,,,,,,,,,,,,,,,,,,,,,,543.577,544.0935,z,1,0.4908,,544.0937,544.094,,0,279,279,163,1,164,küvü,,,,,4,harmonic,1.7,,z,nw,,,,,,,
,,,,,,,,,,,579302,zxzczcczxzvvznzznznzznnmmnmmma,001,2024-02-15_17h02.41.402,VH_new_version2,2023.2.3,Win32,60.24096386,544.0953,545.0937,,,,,,,,,,,,,,,,,,,,,,,,,,545.0938,545.6102,z,1,0.4854,,545.6103,545.6105,,0,280,280,158,1,159,uzot,,,,,4,harmonic,1.9,,z,nw,,,,,,,
,,,,,,,,,,,579302,zxzczcczxzvvznzznznzznnmmnmmma,001,2024-02-15_17h02.41.402,VH_new_version2,2023.2.3,Win32,60.24096386,545.6116,546.611,,,,,,,,,,,,,,,,,,,,,,,,,,546.6111,547.1446,m,1,0.5023,,547.1448,547.145,,0,281,281,117,1,118,çiçek,2071,94.098,1772,0.1937,5,harmonic,1.95,4.973580393,m,w,,,,,,,
,,,,,,,,,,,579302,zxzczcczxzvvznzznznzznnmmnmmma,001,2024-02-15_17h02.41.402,VH_new_version2,2023.2.3,Win32,60.24096386,547.1463,548.1445,,,,,,,,,,,,,,,,,,,,,,,,,,548.1445,548.6781,m,1,0.5107,,548.6784,548.6788,,0,282,282,141,1,142,fındık,865,39.3022,769,0.0841,6,harmonic,1.95,4.594416861,m,w,,,,,,,
,,,,,,,,,,,579302,zxzczcczxzvvznzznznzznnmmnmmma,001,2024-02-15_17h02.41.402,VH_new_version2,2023.2.3,Win32,60.24096386,548.6801,549.6781,,,,,,,,,,,,,,,,,,,,,,,,,,549.6782,550.1618,m,1,0.4531,,550.162,552.3787,space,0,283,283,97,1,98,nefes,2871,130.4469,2553,0.2791,5,harmonic,1.8,5.115433763,m,w,2.1925,,,,,,
,,,,,,,,,,,579302,zxzczcczxzvvznzznznzznnmmnmmma,001,2024-02-15_17h02.41.402,VH_new_version2,2023.2.3,Win32,60.24096386,,,,,,,,,,,,,,,,,,,,,,,,,,,,,,,,,,,,,,,,,,,,,,,,,,,,,,,,552.4181,553.7299,space,1.2837,