welcome.started,welcome.stopped,key_resp_welc.keys,key_resp_welc.rt,key_resp_welc.duration,trials_2.thisRepN,trials_2.thisTrialN,trials_2.thisN,trials_2.thisIndex,trials_2.ran,Introduction,participant,Email Adresiniz,session,date,expName,psychopyVersion,OS,frameRate,fix.started,fix.stopped,Studypractice.started,Studypractice.stopped,key_resp_p.keys,key_resp_p.corr,key_resp_p.rt,key_resp_p.duration,rt,corr,FB.started,FB.stopped,trials.thisRepN,trials.thisTrialN,trials.thisN,trials.thisIndex,trials.ran,item_nr_p,target_p,isHarmonic_p,target_cond_p,CorrAns_p,inst2.started,inst2.stopped,key_resp_xx.keys,key_resp_xx.rt,key_resp_xx.duration,TestTrial.started,TestTrial.stopped,key_respTest.keys,key_respTest.corr,key_respTest.rt,key_respTest.duration,Pause.started,Pause.stopped,key_resp_pause.keys,trials_3.thisRepN,trials_3.thisTrialN,trials_3.thisN,trials_3.thisIndex,trials_3.ran,item_nr,target,BlogFreq,BlogFreqPm,BlogCD,BlogCDPc,WordLength,isHarmonic,old20,Zipf,CorrAns,word_cond,key_resp_pause.rt,key_resp_pause.duration,Bye.started,Bye.stopped,key_resp_bye.keys,key_resp_bye.rt,key_resp_bye.duration
0.013,5.338,space,5.303,,0,0,0,0,1,"Deneye hoş geldiniz,

Devam etmek için BOŞLUK tuşuna basınız.",581702,,001,2024-02-15_14h07.47.619,VH_new_version2,2023.2.3,MacIntel,58.82352941,,,,,,,,,,,,,,,,,,,,,,,,,,,,,,,,,,,,,,,,,,,,,,,,,,,,,,,,,,,,
5.34,18.07,space,12.702,,0,1,1,1,1,"Bu çalışma Valencia Üniversitesi kapsamında yürütülmektedir. Deneydeki göreviniz, ekrana çıkacak Türkçe sözcüklerin kelime olup olmadığını belirlemenizdir. Eğer sözcük gerçek bir kelime ise ""m"" tuşuna, değil ise ""z"" tuşuna basınız.   

Devam etmek için BOŞLUK tuşuna basınız.",581702,,001,2024-02-15_14h07.47.619,VH_new_version2,2023.2.3,MacIntel,58.82352941,,,,,,,,,,,,,,,,,,,,,,,,,,,,,,,,,,,,,,,,,,,,,,,,,,,,,,,,,,,,
18.071,23.82,space,5.715,,0,2,2,2,1,"Her sözcük için en fazla iki saniyede cevap vermeniz beklenmektedir. Aksi takdirde deney bir sonraki sözcük ile devam eder. 
Bu çalışmada oldukça hızlı ve doğru cevaplama yapmanız beklenmektedir.

Devam etmek için BOŞLUK tuşuna basınız.",581702,,001,2024-02-15_14h07.47.619,VH_new_version2,2023.2.3,MacIntel,58.82352941,,,,,,,,,,,,,,,,,,,,,,,,,,,,,,,,,,,,,,,,,,,,,,,,,,,,,,,,,,,,
23.822,27.787,space,3.932,,0,3,3,3,1,"Çalışmaya başlamadan önce ufak bir pratik yer almaktadır.
Kelimedir: ""m""
Kelime değildir: ""z""

Pratik teste başlamak için BOŞLUK tuşuna basınız. ",581702,,001,2024-02-15_14h07.47.619,VH_new_version2,2023.2.3,MacIntel,58.82352941,,,,,,,,,,,,,,,,,,,,,,,,,,,,,,,,,,,,,,,,,,,,,,,,,,,,,,,,,,,,
,,,,,,,,,,,581702,,001,2024-02-15_14h07.47.619,VH_new_version2,2023.2.3,MacIntel,58.82352941,27.802,28.788,28.788,30.238,z,1,1.425,,1.425,1,30.239,31.238,0,0,0,19,1,20,mımal,harmonic,nw,z,,,,,,,,,,,,,,,,,,,,,,,,,,,,,,,,,,,,,,
,,,,,,,,,,,581702,,001,2024-02-15_14h07.47.619,VH_new_version2,2023.2.3,MacIntel,58.82352941,31.239,32.237,32.237,32.537,z,1,0.279,,0.279,1,32.538,33.537,0,1,1,20,1,21,yoğuk,harmonic,nw,z,,,,,,,,,,,,,,,,,,,,,,,,,,,,,,,,,,,,,,
,,,,,,,,,,,581702,,001,2024-02-15_14h07.47.619,VH_new_version2,2023.2.3,MacIntel,58.82352941,33.538,34.538,34.538,35.604,z,1,1.044,,1.044,1,35.605,36.604,0,2,2,18,1,19,pimer,harmonic,nw,z,,,,,,,,,,,,,,,,,,,,,,,,,,,,,,,,,,,,,,
,,,,,,,,,,,581702,,001,2024-02-15_14h07.47.619,VH_new_version2,2023.2.3,MacIntel,58.82352941,36.605,37.604,37.604,38.687,z,0,1.062,,1.062,0,38.688,39.687,0,3,3,1,1,2,veri,harmonic,word,m,,,,,,,,,,,,,,,,,,,,,,,,,,,,,,,,,,,,,,
,,,,,,,,,,,581702,,001,2024-02-15_14h07.47.619,VH_new_version2,2023.2.3,MacIntel,58.82352941,39.688,40.688,40.688,43.388,m,1,2.683,,2.683,1,43.388,44.387,0,4,4,6,1,7,sebep,harmonic,word,m,,,,,,,,,,,,,,,,,,,,,,,,,,,,,,,,,,,,,,
,,,,,,,,,,,581702,,001,2024-02-15_14h07.47.619,VH_new_version2,2023.2.3,MacIntel,58.82352941,44.388,45.387,45.387,46.487,z,1,1.079,,1.079,1,46.488,47.488,0,5,5,16,1,17,ihlot,notharmonic,nw,z,,,,,,,,,,,,,,,,,,,,,,,,,,,,,,,,,,,,,,
,,,,,,,,,,,581702,,001,2024-02-15_14h07.47.619,VH_new_version2,2023.2.3,MacIntel,58.82352941,47.489,48.488,48.489,49.688,z,1,1.177,,1.177,1,49.689,50.688,0,6,6,14,1,15,mahne,notharmonic,nw,z,,,,,,,,,,,,,,,,,,,,,,,,,,,,,,,,,,,,,,
,,,,,,,,,,,581702,,001,2024-02-15_14h07.47.619,VH_new_version2,2023.2.3,MacIntel,58.82352941,50.69,51.688,51.688,52.321,m,1,0.609,,0.609,1,52.321,53.321,0,7,7,0,1,1,hazır,harmonic,word,m,,,,,,,,,,,,,,,,,,,,,,,,,,,,,,,,,,,,,,
,,,,,,,,,,,581702,,001,2024-02-15_14h07.47.619,VH_new_version2,2023.2.3,MacIntel,58.82352941,53.322,54.321,54.321,55.154,z,1,0.811,,0.811,1,55.155,56.155,0,8,8,23,1,24,zarim,notharmonic,nw,z,,,,,,,,,,,,,,,,,,,,,,,,,,,,,,,,,,,,,,
,,,,,,,,,,,581702,,001,2024-02-15_14h07.47.619,VH_new_version2,2023.2.3,MacIntel,58.82352941,56.156,57.155,57.155,57.654,m,1,0.476,,0.476,1,57.655,58.655,0,9,9,4,1,5,soğuk,harmonic,word,m,,,,,,,,,,,,,,,,,,,,,,,,,,,,,,,,,,,,,,
,,,,,,,,,,,581702,,001,2024-02-15_14h07.47.619,VH_new_version2,2023.2.3,MacIntel,58.82352941,58.656,59.655,59.655,60.288,m,1,0.618,,0.618,1,60.288,61.288,0,10,10,11,1,12,teslim,harmonic,word,m,,,,,,,,,,,,,,,,,,,,,,,,,,,,,,,,,,,,,,
,,,,,,,,,,,581702,,001,2024-02-15_14h07.47.619,VH_new_version2,2023.2.3,MacIntel,58.82352941,61.29,62.288,62.288,63.222,z,1,0.913,,0.913,1,63.222,64.221,0,11,11,12,1,13,tahip,notharmonic,nw,z,,,,,,,,,,,,,,,,,,,,,,,,,,,,,,,,,,,,,,
,,,,,,,,,,,581702,,001,2024-02-15_14h07.47.619,VH_new_version2,2023.2.3,MacIntel,58.82352941,64.221,65.222,65.222,65.738,m,1,0.497,,0.497,1,65.738,66.738,0,12,12,9,1,10,zarar,harmonic,word,m,,,,,,,,,,,,,,,,,,,,,,,,,,,,,,,,,,,,,,
,,,,,,,,,,,581702,,001,2024-02-15_14h07.47.619,VH_new_version2,2023.2.3,MacIntel,58.82352941,66.739,67.738,67.739,68.405,m,1,0.643,,0.643,1,68.405,69.406,0,13,13,7,1,8,oran,harmonic,word,m,,,,,,,,,,,,,,,,,,,,,,,,,,,,,,,,,,,,,,
,,,,,,,,,,,581702,,001,2024-02-15_14h07.47.619,VH_new_version2,2023.2.3,MacIntel,58.82352941,69.407,70.405,70.405,70.872,m,1,0.445,,0.445,1,70.872,71.872,0,14,14,2,1,3,yardım,harmonic,word,m,,,,,,,,,,,,,,,,,,,,,,,,,,,,,,,,,,,,,,
,,,,,,,,,,,581702,,001,2024-02-15_14h07.47.619,VH_new_version2,2023.2.3,MacIntel,58.82352941,71.872,72.872,72.872,73.272,m,0,0.378,,0.378,0,73.272,74.272,0,15,15,21,1,22,güçli,harmonic,nw,z,,,,,,,,,,,,,,,,,,,,,,,,,,,,,,,,,,,,,,
,,,,,,,,,,,581702,,001,2024-02-15_14h07.47.619,VH_new_version2,2023.2.3,MacIntel,58.82352941,74.273,75.271,75.271,75.955,z,1,0.663,,0.663,1,75.955,76.955,0,16,16,22,1,23,gizım,notharmonic,nw,z,,,,,,,,,,,,,,,,,,,,,,,,,,,,,,,,,,,,,,
,,,,,,,,,,,581702,,001,2024-02-15_14h07.47.619,VH_new_version2,2023.2.3,MacIntel,58.82352941,76.956,77.955,77.955,78.522,m,1,0.545,,0.545,1,78.522,79.522,0,17,17,10,1,11,nefret,harmonic,word,m,,,,,,,,,,,,,,,,,,,,,,,,,,,,,,,,,,,,,,
,,,,,,,,,,,581702,,001,2024-02-15_14h07.47.619,VH_new_version2,2023.2.3,MacIntel,58.82352941,79.523,80.522,80.522,80.971,m,1,0.427,,0.427,1,80.971,81.972,0,18,18,3,1,4,sevgi,harmonic,word,m,,,,,,,,,,,,,,,,,,,,,,,,,,,,,,,,,,,,,,
,,,,,,,,,,,581702,,001,2024-02-15_14h07.47.619,VH_new_version2,2023.2.3,MacIntel,58.82352941,81.973,82.972,82.972,83.472,m,1,0.479,,0.479,1,83.472,84.472,0,19,19,5,1,6,gizli,harmonic,word,m,,,,,,,,,,,,,,,,,,,,,,,,,,,,,,,,,,,,,,
,,,,,,,,,,,581702,,001,2024-02-15_14h07.47.619,VH_new_version2,2023.2.3,MacIntel,58.82352941,84.473,85.472,85.472,86.155,z,1,0.66,,0.66,1,86.156,87.155,0,20,20,17,1,18,pilar,notharmonic,nw,z,,,,,,,,,,,,,,,,,,,,,,,,,,,,,,,,,,,,,,
,,,,,,,,,,,581702,,001,2024-02-15_14h07.47.619,VH_new_version2,2023.2.3,MacIntel,58.82352941,87.155,88.156,88.156,88.855,z,1,0.684,,0.684,1,88.856,89.856,0,21,21,15,1,16,geki,harmonic,nw,z,,,,,,,,,,,,,,,,,,,,,,,,,,,,,,,,,,,,,,
,,,,,,,,,,,581702,,001,2024-02-15_14h07.47.619,VH_new_version2,2023.2.3,MacIntel,58.82352941,89.856,90.856,90.856,91.423,m,1,0.545,,0.545,1,91.423,92.423,0,22,22,8,1,9,bilim,harmonic,word,m,,,,,,,,,,,,,,,,,,,,,,,,,,,,,,,,,,,,,,
,,,,,,,,,,,581702,,001,2024-02-15_14h07.47.619,VH_new_version2,2023.2.3,MacIntel,58.82352941,92.425,93.423,93.423,94.172,z,1,0.737,,0.737,1,94.172,95.172,0,23,23,13,1,14,orat,harmonic,nw,z,,,,,,,,,,,,,,,,,,,,,,,,,,,,,,,,,,,,,,
,,,,,,,,,,,581702,,001,2024-02-15_14h07.47.619,VH_new_version2,2023.2.3,MacIntel,58.82352941,,,,,,,,,,,,,,,,,,,,,,,95.174,102.457,space,7.259,,,,,,,,,,,,,,,,,,,,,,,,,,,,,,,,,,
,,,,,,,,,,,581702,,001,2024-02-15_14h07.47.619,VH_new_version2,2023.2.3,MacIntel,58.82352941,102.483,103.474,,,,,,,,,,,,,,,,,,,,,,,,,,103.475,104.424,z,1,0.926,,104.425,104.428,,0,0,0,223,1,224,mame,,,,,4,notharmonic,1.65,,z,nw,,,,,,,
,,,,,,,,,,,581702,,001,2024-02-15_14h07.47.619,VH_new_version2,2023.2.3,MacIntel,58.82352941,104.429,105.423,,,,,,,,,,,,,,,,,,,,,,,,,,105.423,106.173,z,1,0.734,,106.173,106.174,,0,1,1,252,1,253,canit,,,,,5,notharmonic,1.8,,z,nw,,,,,,,
,,,,,,,,,,,581702,,001,2024-02-15_14h07.47.619,VH_new_version2,2023.2.3,MacIntel,58.82352941,106.175,107.173,,,,,,,,,,,,,,,,,,,,,,,,,,107.173,107.873,z,1,0.677,,107.873,107.873,,0,2,2,189,1,190,genek,,,,,5,harmonic,1.6,,z,nw,,,,,,,
,,,,,,,,,,,581702,,001,2024-02-15_14h07.47.619,VH_new_version2,2023.2.3,MacIntel,58.82352941,107.874,108.873,,,,,,,,,,,,,,,,,,,,,,,,,,108.873,109.557,m,1,0.661,,109.557,109.557,,0,3,3,116,1,117,nokta,2085,94.7341,1939,0.212,5,harmonic,1.5,4.976506334,m,w,,,,,,,
,,,,,,,,,,,581702,,001,2024-02-15_14h07.47.619,VH_new_version2,2023.2.3,MacIntel,58.82352941,109.559,110.557,,,,,,,,,,,,,,,,,,,,,,,,,,110.557,111.39,z,1,0.811,,111.39,111.39,,0,4,4,165,1,166,eyel,,,,,4,harmonic,1.65,,z,nw,,,,,,,
,,,,,,,,,,,581702,,001,2024-02-15_14h07.47.619,VH_new_version2,2023.2.3,MacIntel,58.82352941,111.392,112.39,,,,,,,,,,,,,,,,,,,,,,,,,,112.39,113.106,z,1,0.697,,113.107,113.107,,0,5,5,283,1,284,dimdat,,,,,6,notharmonic,2.05,,z,nw,,,,,,,
,,,,,,,,,,,581702,,001,2024-02-15_14h07.47.619,VH_new_version2,2023.2.3,MacIntel,58.82352941,113.108,114.107,,,,,,,,,,,,,,,,,,,,,,,,,,114.107,114.69,m,1,0.563,,114.69,114.69,,0,6,6,18,1,19,ülke,3121,141.8059,2801,0.3062,4,harmonic,1.65,5.151694301,m,w,,,,,,,
,,,,,,,,,,,581702,,001,2024-02-15_14h07.47.619,VH_new_version2,2023.2.3,MacIntel,58.82352941,114.691,115.69,,,,,,,,,,,,,,,,,,,,,,,,,,115.69,116.573,z,1,0.87,,116.573,116.573,,0,7,7,182,1,183,tesil,,,,,5,harmonic,1.45,,z,nw,,,,,,,
,,,,,,,,,,,581702,,001,2024-02-15_14h07.47.619,VH_new_version2,2023.2.3,MacIntel,58.82352941,116.574,117.573,,,,,,,,,,,,,,,,,,,,,,,,,,117.573,118.24,m,1,0.653,,118.24,118.24,,0,8,8,50,1,51,kurşun,604,27.4434,551,0.0602,6,harmonic,1.55,4.438437916,m,w,,,,,,,
,,,,,,,,,,,581702,,001,2024-02-15_14h07.47.619,VH_new_version2,2023.2.3,MacIntel,58.82352941,118.241,119.24,,,,,,,,,,,,,,,,,,,,,,,,,,119.24,120.04,z,1,0.78,,120.04,120.04,,0,9,9,276,1,277,hiyake,,,,,6,notharmonic,2.25,,z,nw,,,,,,,
,,,,,,,,,,,581702,,001,2024-02-15_14h07.47.619,VH_new_version2,2023.2.3,MacIntel,58.82352941,120.041,121.04,,,,,,,,,,,,,,,,,,,,,,,,,,121.04,121.69,m,1,0.628,,121.69,121.69,,0,10,10,102,1,103,toplum,2562,116.4071,2249,0.2459,6,harmonic,1.65,5.06597947,m,w,,,,,,,
,,,,,,,,,,,581702,,001,2024-02-15_14h07.47.619,VH_new_version2,2023.2.3,MacIntel,58.82352941,121.692,122.69,,,,,,,,,,,,,,,,,,,,,,,,,,122.69,123.523,m,1,0.811,,123.523,123.524,,0,11,11,119,1,120,cuma,1941,88.1913,1774,0.1939,4,harmonic,1.3,4.945425744,m,w,,,,,,,
,,,,,,,,,,,581702,,001,2024-02-15_14h07.47.619,VH_new_version2,2023.2.3,MacIntel,58.82352941,123.524,124.523,,,,,,,,,,,,,,,,,,,,,,,,,,124.523,125.124,m,1,0.584,,125.124,125.124,,0,12,12,41,1,42,hayal,4498,204.3713,4079,0.4459,5,harmonic,1.45,5.310419907,m,w,,,,,,,
,,,,,,,,,,,581702,,001,2024-02-15_14h07.47.619,VH_new_version2,2023.2.3,MacIntel,58.82352941,125.125,126.123,,,,,,,,,,,,,,,,,,,,,,,,,,126.124,126.873,z,1,0.73,,126.873,126.874,,0,13,13,174,1,175,güzeh,,,,,5,harmonic,1.85,,z,nw,,,,,,,
,,,,,,,,,,,581702,,001,2024-02-15_14h07.47.619,VH_new_version2,2023.2.3,MacIntel,58.82352941,126.874,127.874,,,,,,,,,,,,,,,,,,,,,,,,,,127.874,128.44,m,1,0.546,,128.44,128.441,,0,14,14,75,1,76,dergi,657,29.8515,592,0.0647,5,harmonic,1.3,4.474966159,m,w,,,,,,,
,,,,,,,,,,,581702,,001,2024-02-15_14h07.47.619,VH_new_version2,2023.2.3,MacIntel,58.82352941,128.441,129.44,,,,,,,,,,,,,,,,,,,,,,,,,,129.44,130.107,m,1,0.646,,130.107,130.108,,0,15,15,31,1,32,pembe,1549,70.3804,1327,0.1451,5,harmonic,2,4.847451731,m,w,,,,,,,
,,,,,,,,,,,581702,,001,2024-02-15_14h07.47.619,VH_new_version2,2023.2.3,MacIntel,58.82352941,130.109,131.107,,,,,,,,,,,,,,,,,,,,,,,,,,131.108,131.79,z,1,0.663,,131.79,131.791,,0,16,16,231,1,232,babi,,,,,4,notharmonic,1.4,,z,nw,,,,,,,
,,,,,,,,,,,581702,,001,2024-02-15_14h07.47.619,VH_new_version2,2023.2.3,MacIntel,58.82352941,131.791,132.79,,,,,,,,,,,,,,,,,,,,,,,,,,132.79,133.34,m,1,0.528,,133.34,133.34,,0,17,17,26,1,27,boyun,843,38.3026,777,0.0849,5,harmonic,1.05,4.583228255,m,w,,,,,,,
,,,,,,,,,,,581702,,001,2024-02-15_14h07.47.619,VH_new_version2,2023.2.3,MacIntel,58.82352941,133.341,134.34,,,,,,,,,,,,,,,,,,,,,,,,,,134.34,135.007,z,1,0.65,,135.007,135.007,,0,18,18,147,1,148,üyöm,,,,,4,harmonic,1.95,,z,nw,,,,,,,
,,,,,,,,,,,581702,,001,2024-02-15_14h07.47.619,VH_new_version2,2023.2.3,MacIntel,58.82352941,135.008,136.007,,,,,,,,,,,,,,,,,,,,,,,,,,136.007,136.54,m,1,0.513,,136.541,136.541,,0,19,19,8,1,9,ağız,824,37.4393,758,0.0829,4,harmonic,1.2,4.57332772,m,w,,,,,,,
,,,,,,,,,,,581702,,001,2024-02-15_14h07.47.619,VH_new_version2,2023.2.3,MacIntel,58.82352941,136.541,137.541,,,,,,,,,,,,,,,,,,,,,,,,,,137.541,138.156,z,1,0.594,,138.156,138.156,,0,20,20,176,1,177,çırna,,,,,5,harmonic,1.85,,z,nw,,,,,,,
,,,,,,,,,,,581702,,001,2024-02-15_14h07.47.619,VH_new_version2,2023.2.3,MacIntel,58.82352941,138.157,139.157,,,,,,,,,,,,,,,,,,,,,,,,,,139.157,139.607,m,1,0.439,,139.607,139.607,,0,21,21,40,1,41,temel,4231,192.2399,3851,0.421,5,harmonic,1.55,5.283843532,m,w,,,,,,,
,,,,,,,,,,,581702,,001,2024-02-15_14h07.47.619,VH_new_version2,2023.2.3,MacIntel,58.82352941,139.608,140.607,,,,,,,,,,,,,,,,,,,,,,,,,,140.607,141.308,m,1,0.679,,141.308,141.308,,0,22,22,69,1,70,yüksek,7909,359.3536,7119,0.7783,6,harmonic,1.7,5.555522,m,w,,,,,,,
,,,,,,,,,,,581702,,001,2024-02-15_14h07.47.619,VH_new_version2,2023.2.3,MacIntel,58.82352941,141.309,142.307,,,,,,,,,,,,,,,,,,,,,,,,,,142.307,142.974,z,1,0.646,,142.974,142.974,,0,23,23,242,1,243,sayke,,,,,5,notharmonic,1.9,,z,nw,,,,,,,
,,,,,,,,,,,581702,,001,2024-02-15_14h07.47.619,VH_new_version2,2023.2.3,MacIntel,58.82352941,142.975,143.974,,,,,,,,,,,,,,,,,,,,,,,,,,143.974,144.607,z,1,0.613,,144.607,144.608,,0,24,24,246,1,247,masil,,,,,5,notharmonic,1.7,,z,nw,,,,,,,
,,,,,,,,,,,581702,,001,2024-02-15_14h07.47.619,VH_new_version2,2023.2.3,MacIntel,58.82352941,144.608,145.607,,,,,,,,,,,,,,,,,,,,,,,,,,145.608,146.174,m,1,0.544,,146.174,146.175,,0,25,25,101,1,102,okul,2685,121.9958,2381,0.2603,4,harmonic,1.35,5.086344879,m,w,,,,,,,
,,,,,,,,,,,581702,,001,2024-02-15_14h07.47.619,VH_new_version2,2023.2.3,MacIntel,58.82352941,146.175,147.174,,,,,,,,,,,,,,,,,,,,,,,,,,147.174,147.824,z,1,0.636,,147.824,147.824,,0,26,26,202,1,203,cehret,,,,,6,harmonic,1.85,,z,nw,,,,,,,
,,,,,,,,,,,581702,,001,2024-02-15_14h07.47.619,VH_new_version2,2023.2.3,MacIntel,58.82352941,147.826,148.824,,,,,,,,,,,,,,,,,,,,,,,,,,148.824,149.358,m,1,0.512,,149.358,149.358,,0,27,27,133,1,134,parmak,1268,57.6129,1165,0.1274,6,harmonic,1.75,4.760519736,m,w,,,,,,,
,,,,,,,,,,,581702,,001,2024-02-15_14h07.47.619,VH_new_version2,2023.2.3,MacIntel,58.82352941,149.359,150.358,,,,,,,,,,,,,,,,,,,,,,,,,,150.358,150.991,z,1,0.613,,150.991,150.991,,0,28,28,245,1,246,gaset,,,,,5,notharmonic,1.85,,z,nw,,,,,,,
,,,,,,,,,,,581702,,001,2024-02-15_14h07.47.619,VH_new_version2,2023.2.3,MacIntel,58.82352941,150.992,151.991,,,,,,,,,,,,,,,,,,,,,,,,,,151.991,152.708,z,1,0.694,,152.708,152.708,,0,29,29,277,1,278,şeylam,,,,,6,notharmonic,2,,z,nw,,,,,,,
,,,,,,,,,,,581702,,001,2024-02-15_14h07.47.619,VH_new_version2,2023.2.3,MacIntel,58.82352941,152.709,153.708,,,,,,,,,,,,,,,,,,,,,,,,,,153.708,154.408,m,1,0.681,,154.408,154.408,,0,30,30,24,1,25,dokuz,802,36.4397,646,0.0706,5,harmonic,1.55,4.561574793,m,w,,,,,,,
,,,,,,,,,,,581702,,001,2024-02-15_14h07.47.619,VH_new_version2,2023.2.3,MacIntel,58.82352941,154.409,155.408,,,,,,,,,,,,,,,,,,,,,,,,,,155.408,156.025,m,1,0.594,,156.025,156.025,,0,31,31,96,1,97,şehir,2981,135.4448,2608,0.2851,5,harmonic,1.75,5.131762336,m,w,,,,,,,
,,,,,,,,,,,581702,,001,2024-02-15_14h07.47.619,VH_new_version2,2023.2.3,MacIntel,58.82352941,156.026,157.024,,,,,,,,,,,,,,,,,,,,,,,,,,157.024,157.658,z,1,0.611,,157.658,157.658,,0,32,32,282,1,283,daketi,,,,,6,notharmonic,1.8,,z,nw,,,,,,,
,,,,,,,,,,,581702,,001,2024-02-15_14h07.47.619,VH_new_version2,2023.2.3,MacIntel,58.82352941,157.659,158.658,,,,,,,,,,,,,,,,,,,,,,,,,,158.658,159.275,m,1,0.598,,159.275,159.275,,0,33,33,94,1,95,bebek,3301,149.9843,2794,0.3054,5,harmonic,1.6,5.176045801,m,w,,,,,,,
,,,,,,,,,,,581702,,001,2024-02-15_14h07.47.619,VH_new_version2,2023.2.3,MacIntel,58.82352941,159.276,160.275,,,,,,,,,,,,,,,,,,,,,,,,,,160.275,160.858,m,1,0.564,,160.858,160.858,,0,34,34,109,1,110,ürün,2268,103.0489,1954,0.2136,4,harmonic,1.1,5.01304336,m,w,,,,,,,
,,,,,,,,,,,581702,,001,2024-02-15_14h07.47.619,VH_new_version2,2023.2.3,MacIntel,58.82352941,160.859,161.858,,,,,,,,,,,,,,,,,,,,,,,,,,161.858,162.941,z,1,1.062,,162.942,162.942,,0,35,35,144,1,145,içke,,,,,4,harmonic,1.6,,z,nw,,,,,,,
,,,,,,,,,,,581702,,001,2024-02-15_14h07.47.619,VH_new_version2,2023.2.3,MacIntel,58.82352941,162.943,163.94,,,,,,,,,,,,,,,,,,,,,,,,,,163.94,164.558,m,1,0.598,,164.558,164.559,,0,36,36,60,1,61,nefret,2429,110.3641,2115,0.2312,6,harmonic,1.8,5.042827826,m,w,,,,,,,
,,,,,,,,,,,581702,,001,2024-02-15_14h07.47.619,VH_new_version2,2023.2.3,MacIntel,58.82352941,164.559,165.558,,,,,,,,,,,,,,,,,,,,,,,,,,165.558,166.208,z,1,0.628,,166.208,166.208,,0,37,37,264,1,265,şingan,,,,,6,notharmonic,2.15,,z,nw,,,,,,,
,,,,,,,,,,,581702,,001,2024-02-15_14h07.47.619,VH_new_version2,2023.2.3,MacIntel,58.82352941,166.209,167.208,,,,,,,,,,,,,,,,,,,,,,,,,,167.208,167.758,m,1,0.528,,167.758,167.759,,0,38,38,127,1,128,kaynak,1577,71.6526,1481,0.1619,6,harmonic,1.4,4.855231954,m,w,,,,,,,
,,,,,,,,,,,581702,,001,2024-02-15_14h07.47.619,VH_new_version2,2023.2.3,MacIntel,58.82352941,167.759,168.758,,,,,,,,,,,,,,,,,,,,,,,,,,168.758,169.308,m,1,0.532,,169.308,169.308,,0,39,39,84,1,85,eğitim,4784,217.366,3846,0.4204,6,harmonic,1.5,5.337191613,m,w,,,,,,,
,,,,,,,,,,,581702,,001,2024-02-15_14h07.47.619,VH_new_version2,2023.2.3,MacIntel,58.82352941,169.309,170.308,,,,,,,,,,,,,,,,,,,,,,,,,,170.308,170.941,z,1,0.611,,170.942,170.942,,0,40,40,257,1,258,seran,,,,,5,notharmonic,1.35,,z,nw,,,,,,,
,,,,,,,,,,,581702,,001,2024-02-15_14h07.47.619,VH_new_version2,2023.2.3,MacIntel,58.82352941,170.942,171.942,,,,,,,,,,,,,,,,,,,,,,,,,,171.942,172.508,m,1,0.554,,172.508,172.509,,0,41,41,5,1,6,üzüm,716,32.5322,588,0.0643,4,harmonic,1.45,4.512313434,m,w,,,,,,,
,,,,,,,,,,,581702,,001,2024-02-15_14h07.47.619,VH_new_version2,2023.2.3,MacIntel,58.82352941,172.509,173.508,,,,,,,,,,,,,,,,,,,,,,,,,,173.508,174.142,m,1,0.61,,174.142,174.142,,0,42,42,80,1,81,ahlak,641,29.1245,543,0.0594,5,harmonic,1.35,4.464258478,m,w,,,,,,,
,,,,,,,,,,,581702,,001,2024-02-15_14h07.47.619,VH_new_version2,2023.2.3,MacIntel,58.82352941,174.142,175.142,,,,,,,,,,,,,,,,,,,,,,,,,,175.142,175.808,m,1,0.646,,175.808,175.808,,0,43,43,114,1,115,ayak,2143,97.3694,1931,0.2111,4,harmonic,1,4.988422494,m,w,,,,,,,
,,,,,,,,,,,581702,,001,2024-02-15_14h07.47.619,VH_new_version2,2023.2.3,MacIntel,58.82352941,175.809,176.808,,,,,,,,,,,,,,,,,,,,,,,,,,176.808,177.358,m,1,0.528,,177.358,177.359,,0,44,44,87,1,88,sevgi,3950,179.4723,3467,0.379,5,harmonic,1.65,5.253997428,m,w,,,,,,,
,,,,,,,,,,,581702,,001,2024-02-15_14h07.47.619,VH_new_version2,2023.2.3,MacIntel,58.82352941,177.359,178.358,,,,,,,,,,,,,,,,,,,,,,,,,,178.358,178.758,m,1,0.379,,178.758,178.759,,0,45,45,81,1,82,hava,4975,226.0443,4398,0.4808,4,harmonic,1,5.35419356,m,w,,,,,,,
,,,,,,,,,,,581702,,001,2024-02-15_14h07.47.619,VH_new_version2,2023.2.3,MacIntel,58.82352941,178.759,179.758,,,,,,,,,,,,,,,,,,,,,,,,,,179.758,180.275,z,1,0.5,,180.275,180.275,,0,46,46,169,1,170,senez,,,,,5,harmonic,1.65,,z,nw,,,,,,,
,,,,,,,,,,,581702,,001,2024-02-15_14h07.47.619,VH_new_version2,2023.2.3,MacIntel,58.82352941,180.276,181.275,,,,,,,,,,,,,,,,,,,,,,,,,,181.275,181.875,m,1,0.578,,181.875,181.875,,0,47,47,126,1,127,millet,1658,75.3329,1508,0.1649,6,harmonic,1.7,4.876984686,m,w,,,,,,,
,,,,,,,,,,,581702,,001,2024-02-15_14h07.47.619,VH_new_version2,2023.2.3,MacIntel,58.82352941,181.876,182.875,,,,,,,,,,,,,,,,,,,,,,,,,,182.875,183.509,z,1,0.613,,183.509,183.509,,0,48,48,193,1,194,hatrak,,,,,6,harmonic,1.95,,z,nw,,,,,,,
,,,,,,,,,,,581702,,001,2024-02-15_14h07.47.619,VH_new_version2,2023.2.3,MacIntel,58.82352941,183.509,184.508,,,,,,,,,,,,,,,,,,,,,,,,,,184.508,185.008,m,1,0.489,,185.009,185.009,,0,49,49,89,1,90,sonuç,3768,171.203,3626,0.3964,5,harmonic,1.8,5.233511371,m,w,,,,,,,
,,,,,,,,,,,581702,,001,2024-02-15_14h07.47.619,VH_new_version2,2023.2.3,MacIntel,58.82352941,185.009,186.009,,,,,,,,,,,,,,,,,,,,,,,,,,186.009,186.609,z,1,0.579,,186.609,186.609,,0,50,50,263,1,264,magina,,,,,6,notharmonic,1.9,,z,nw,,,,,,,
,,,,,,,,,,,581702,,001,2024-02-15_14h07.47.619,VH_new_version2,2023.2.3,MacIntel,58.82352941,186.61,187.608,,,,,,,,,,,,,,,,,,,,,,,,,,187.608,188.175,m,1,0.55,,188.175,188.175,,0,51,51,121,1,122,usta,1823,82.8299,1478,0.1616,4,harmonic,1.5,4.918187137,m,w,,,,,,,
,,,,,,,,,,,581702,,001,2024-02-15_14h07.47.619,VH_new_version2,2023.2.3,MacIntel,58.82352941,188.176,189.175,,,,,,,,,,,,,,,,,,,,,,,,,,189.175,189.759,z,1,0.564,,189.759,189.759,,0,52,52,226,1,227,şüda,,,,,4,notharmonic,1.9,,z,nw,,,,,,,
,,,,,,,,,,,581702,,001,2024-02-15_14h07.47.619,VH_new_version2,2023.2.3,MacIntel,58.82352941,189.759,190.759,,,,,,,,,,,,,,,,,,,,,,,,,,190.759,191.209,m,1,0.431,,191.209,191.209,,0,53,53,70,1,71,gerçek,8983,408.1519,8058,0.8809,6,harmonic,1.7,5.610821823,m,w,,,,,,,
,,,,,,,,,,,581702,,001,2024-02-15_14h07.47.619,VH_new_version2,2023.2.3,MacIntel,58.82352941,191.21,192.209,,,,,,,,,,,,,,,,,,,,,,,,,,192.209,193.026,m,1,0.801,,193.026,193.026,,0,54,54,28,1,29,melek,878,39.8928,773,0.0845,5,harmonic,1.1,4.60089452,m,w,,,,,,,
,,,,,,,,,,,581702,,001,2024-02-15_14h07.47.619,VH_new_version2,2023.2.3,MacIntel,58.82352941,193.026,194.026,,,,,,,,,,,,,,,,,,,,,,,,,,194.026,194.626,z,1,0.582,,194.626,194.626,,0,55,55,179,1,180,şünle,,,,,5,harmonic,1.75,,z,nw,,,,,,,
,,,,,,,,,,,581702,,001,2024-02-15_14h07.47.619,VH_new_version2,2023.2.3,MacIntel,58.82352941,194.626,195.626,,,,,,,,,,,,,,,,,,,,,,,,,,195.626,196.659,m,1,1.014,,196.659,196.659,,0,56,56,27,1,28,sekiz,872,39.6202,803,0.0878,5,harmonic,1.45,4.597916663,m,w,,,,,,,
,,,,,,,,,,,581702,,001,2024-02-15_14h07.47.619,VH_new_version2,2023.2.3,MacIntel,58.82352941,196.66,197.659,,,,,,,,,,,,,,,,,,,,,,,,,,197.659,198.176,z,1,0.496,,198.176,198.176,,0,57,57,224,1,225,faer,,,,,4,notharmonic,1.9,,z,nw,,,,,,,
,,,,,,,,,,,581702,,001,2024-02-15_14h07.47.619,VH_new_version2,2023.2.3,MacIntel,58.82352941,198.177,199.176,,,,,,,,,,,,,,,,,,,,,,,,,,199.176,199.776,m,0,0.582,,199.776,199.776,,0,58,58,194,1,195,bufsay,,,,,6,harmonic,2.6,,z,nw,,,,,,,
,,,,,,,,,,,581702,,001,2024-02-15_14h07.47.619,VH_new_version2,2023.2.3,MacIntel,58.82352941,199.777,200.776,,,,,,,,,,,,,,,,,,,,,,,,,,200.776,201.476,z,1,0.687,,201.476,201.476,,0,59,59,260,1,261,dülda,,,,,5,notharmonic,1.95,,z,nw,,,,,,,
,,,,,,,,,,,581702,,001,2024-02-15_14h07.47.619,VH_new_version2,2023.2.3,MacIntel,58.82352941,201.477,202.478,,,,,,,,,,,,,,,,,,,,,,,,,,202.478,203.126,z,1,0.633,,203.126,203.126,,0,60,60,280,1,281,icarar,,,,,6,notharmonic,2,,z,nw,,,,,,,
,,,,,,,,,,,581702,,001,2024-02-15_14h07.47.619,VH_new_version2,2023.2.3,MacIntel,58.82352941,203.127,204.126,,,,,,,,,,,,,,,,,,,,,,,,,,204.126,204.809,m,1,0.663,,204.809,204.81,,0,61,61,97,1,98,nefes,2871,130.4469,2553,0.2791,5,harmonic,1.8,5.115433763,m,w,,,,,,,
,,,,,,,,,,,581702,,001,2024-02-15_14h07.47.619,VH_new_version2,2023.2.3,MacIntel,58.82352941,204.81,205.808,,,,,,,,,,,,,,,,,,,,,,,,,,205.808,206.443,m,1,0.615,,206.443,206.443,,0,62,62,34,1,35,çorba,1674,76.0599,1513,0.1654,5,harmonic,1.75,4.88115575,m,w,,,,,,,
,,,,,,,,,,,581702,,001,2024-02-15_14h07.47.619,VH_new_version2,2023.2.3,MacIntel,58.82352941,206.443,207.443,,,,,,,,,,,,,,,,,,,,,,,,,,207.443,207.959,m,1,0.496,,207.959,207.96,,0,63,63,38,1,39,fikir,2552,115.9528,2413,0.2638,5,harmonic,1.9,5.06428124,m,w,,,,,,,
,,,,,,,,,,,581702,,001,2024-02-15_14h07.47.619,VH_new_version2,2023.2.3,MacIntel,58.82352941,207.96,208.959,,,,,,,,,,,,,,,,,,,,,,,,,,208.959,209.493,m,1,0.513,,209.493,209.493,,0,64,64,57,1,58,bayram,1948,88.5094,1648,0.1802,6,harmonic,1.85,4.946989397,m,w,,,,,,,
,,,,,,,,,,,581702,,001,2024-02-15_14h07.47.619,VH_new_version2,2023.2.3,MacIntel,58.82352941,209.493,210.493,,,,,,,,,,,,,,,,,,,,,,,,,,210.493,211.143,z,1,0.638,,211.143,211.143,,0,65,65,268,1,269,mucepi,,,,,6,notharmonic,2.85,,z,nw,,,,,,,
,,,,,,,,,,,581702,,001,2024-02-15_14h07.47.619,VH_new_version2,2023.2.3,MacIntel,58.82352941,211.144,212.143,,,,,,,,,,,,,,,,,,,,,,,,,,212.143,212.86,z,1,0.697,,212.86,212.86,,0,66,66,172,1,173,çatuk,,,,,5,harmonic,1.8,,z,nw,,,,,,,
,,,,,,,,,,,581702,,001,2024-02-15_14h07.47.619,VH_new_version2,2023.2.3,MacIntel,58.82352941,212.86,213.859,,,,,,,,,,,,,,,,,,,,,,,,,,213.859,214.493,z,1,0.613,,214.493,214.493,,0,67,67,148,1,149,aşıç,,,,,4,harmonic,1.65,,z,nw,,,,,,,
,,,,,,,,,,,581702,,001,2024-02-15_14h07.47.619,VH_new_version2,2023.2.3,MacIntel,58.82352941,214.494,215.493,,,,,,,,,,,,,,,,,,,,,,,,,,215.493,216.176,m,1,0.662,,216.176,216.177,,0,68,68,16,1,17,umut,1988,90.3268,1818,0.1987,4,harmonic,1.55,4.955816625,m,w,,,,,,,
,,,,,,,,,,,581702,,001,2024-02-15_14h07.47.619,VH_new_version2,2023.2.3,MacIntel,58.82352941,216.177,217.176,,,,,,,,,,,,,,,,,,,,,,,,,,217.176,217.76,m,1,0.565,,217.76,217.76,,0,69,69,23,1,24,evet,12599,572.4486,11447,1.2514,4,harmonic,1.65,5.757736498,m,w,,,,,,,
,,,,,,,,,,,581702,,001,2024-02-15_14h07.47.619,VH_new_version2,2023.2.3,MacIntel,58.82352941,217.761,218.76,,,,,,,,,,,,,,,,,,,,,,,,,,218.76,219.393,m,1,0.62,,219.393,224.893,space,0,70,70,53,1,54,çıplak,819,37.2121,766,0.0837,6,harmonic,2,4.570684179,m,w,5.48,,,,,,
,,,,,,,,,,,581702,,001,2024-02-15_14h07.47.619,VH_new_version2,2023.2.3,MacIntel,58.82352941,224.894,225.893,,,,,,,,,,,,,,,,,,,,,,,,,,225.893,226.81,z,0,0.9,,226.81,226.811,,0,71,71,135,1,136,gündüz,1167,53.0239,1088,0.1189,6,harmonic,1.6,4.724471668,m,w,,,,,,,
,,,,,,,,,,,581702,,001,2024-02-15_14h07.47.619,VH_new_version2,2023.2.3,MacIntel,58.82352941,226.812,227.81,,,,,,,,,,,,,,,,,,,,,,,,,,227.81,229.01,m,1,1.179,,229.01,229.011,,0,72,72,10,1,11,eser,958,43.5277,892,0.0975,4,harmonic,1,4.63876572,m,w,,,,,,,
,,,,,,,,,,,581702,,001,2024-02-15_14h07.47.619,VH_new_version2,2023.2.3,MacIntel,58.82352941,229.011,230.01,,,,,,,,,,,,,,,,,,,,,,,,,,230.01,230.594,m,1,0.561,,230.594,230.594,,0,73,73,73,1,74,gemi,629,28.5793,544,0.0595,4,harmonic,1.1,4.456051587,m,w,,,,,,,
,,,,,,,,,,,581702,,001,2024-02-15_14h07.47.619,VH_new_version2,2023.2.3,MacIntel,58.82352941,230.595,231.593,,,,,,,,,,,,,,,,,,,,,,,,,,231.593,232.31,z,1,0.697,,232.31,232.31,,0,74,74,265,1,266,terhan,,,,,6,notharmonic,1.95,,z,nw,,,,,,,
,,,,,,,,,,,581702,,001,2024-02-15_14h07.47.619,VH_new_version2,2023.2.3,MacIntel,58.82352941,232.311,233.31,,,,,,,,,,,,,,,,,,,,,,,,,,233.31,233.91,m,1,0.579,,233.91,233.911,,0,75,75,30,1,31,pamuk,937,42.5736,826,0.0903,5,harmonic,1.9,4.629140375,m,w,,,,,,,
,,,,,,,,,,,581702,,001,2024-02-15_14h07.47.619,VH_new_version2,2023.2.3,MacIntel,58.82352941,233.911,234.91,,,,,,,,,,,,,,,,,,,,,,,,,,234.911,235.527,m,1,0.595,,235.527,235.527,,0,76,76,88,1,89,yorum,3801,172.7024,3473,0.3797,5,harmonic,1.1,5.237298373,m,w,,,,,,,
,,,,,,,,,,,581702,,001,2024-02-15_14h07.47.619,VH_new_version2,2023.2.3,MacIntel,58.82352941,235.528,236.527,,,,,,,,,,,,,,,,,,,,,,,,,,236.527,237.227,z,1,0.679,,237.227,237.227,,0,77,77,278,1,279,avalün,,,,,6,notharmonic,2.2,,z,nw,,,,,,,
,,,,,,,,,,,581702,,001,2024-02-15_14h07.47.619,VH_new_version2,2023.2.3,MacIntel,58.82352941,237.229,238.228,,,,,,,,,,,,,,,,,,,,,,,,,,238.228,238.861,m,1,0.613,,238.861,238.861,,0,78,78,46,1,47,hayat,7922,359.9443,7314,0.7996,5,harmonic,1.35,5.556235301,m,w,,,,,,,
,,,,,,,,,,,581702,,001,2024-02-15_14h07.47.619,VH_new_version2,2023.2.3,MacIntel,58.82352941,238.863,239.861,,,,,,,,,,,,,,,,,,,,,,,,,,239.861,240.494,z,1,0.62,,240.494,240.494,,0,79,79,195,1,196,çoflak,,,,,6,harmonic,2,,z,nw,,,,,,,
,,,,,,,,,,,581702,,001,2024-02-15_14h07.47.619,VH_new_version2,2023.2.3,MacIntel,58.82352941,240.495,241.494,,,,,,,,,,,,,,,,,,,,,,,,,,241.494,242.027,m,1,0.516,,242.027,242.028,,0,80,80,61,1,62,yağmur,2491,113.1812,2156,0.2357,6,harmonic,1.9,5.053774294,m,w,,,,,,,
,,,,,,,,,,,581702,,001,2024-02-15_14h07.47.619,VH_new_version2,2023.2.3,MacIntel,58.82352941,242.028,243.027,,,,,,,,,,,,,,,,,,,,,,,,,,243.027,243.744,z,1,0.696,,243.744,243.744,,0,81,81,222,1,223,laze,,,,,4,notharmonic,1.7,,z,nw,,,,,,,
,,,,,,,,,,,581702,,001,2024-02-15_14h07.47.619,VH_new_version2,2023.2.3,MacIntel,58.82352941,243.745,244.744,,,,,,,,,,,,,,,,,,,,,,,,,,244.744,245.327,z,1,0.563,,245.328,245.328,,0,82,82,157,1,158,öşek,,,,,4,harmonic,1.7,,z,nw,,,,,,,
,,,,,,,,,,,581702,,001,2024-02-15_14h07.47.619,VH_new_version2,2023.2.3,MacIntel,58.82352941,245.329,246.327,,,,,,,,,,,,,,,,,,,,,,,,,,246.327,247.411,z,1,1.068,,247.411,247.411,,0,83,83,221,1,222,mane,,,,,4,notharmonic,1.4,,z,nw,,,,,,,
,,,,,,,,,,,581702,,001,2024-02-15_14h07.47.619,VH_new_version2,2023.2.3,MacIntel,58.82352941,247.411,248.411,,,,,,,,,,,,,,,,,,,,,,,,,,248.411,248.961,z,1,0.528,,248.961,248.962,,0,84,84,146,1,147,öğne,,,,,4,harmonic,1.7,,z,nw,,,,,,,
,,,,,,,,,,,581702,,001,2024-02-15_14h07.47.619,VH_new_version2,2023.2.3,MacIntel,58.82352941,248.963,249.961,,,,,,,,,,,,,,,,,,,,,,,,,,249.961,250.477,z,1,0.501,,250.477,250.478,,0,85,85,228,1,229,idna,,,,,4,notharmonic,1.8,,z,nw,,,,,,,
,,,,,,,,,,,581702,,001,2024-02-15_14h07.47.619,VH_new_version2,2023.2.3,MacIntel,58.82352941,250.478,251.477,,,,,,,,,,,,,,,,,,,,,,,,,,251.478,252.028,m,1,0.531,,252.028,252.028,,0,86,86,19,1,20,baba,3645,165.6143,3131,0.3423,4,harmonic,1,5.219097833,m,w,,,,,,,
,,,,,,,,,,,581702,,001,2024-02-15_14h07.47.619,VH_new_version2,2023.2.3,MacIntel,58.82352941,252.029,253.027,,,,,,,,,,,,,,,,,,,,,,,,,,253.027,253.511,z,1,0.464,,253.511,253.511,,0,87,87,217,1,218,heka,,,,,4,notharmonic,1.75,,z,nw,,,,,,,
,,,,,,,,,,,581702,,001,2024-02-15_14h07.47.619,VH_new_version2,2023.2.3,MacIntel,58.82352941,253.512,254.511,,,,,,,,,,,,,,,,,,,,,,,,,,254.511,255.144,z,1,0.611,,255.144,255.144,,0,88,88,200,1,201,tuzrak,,,,,6,harmonic,1.95,,z,nw,,,,,,,
,,,,,,,,,,,581702,,001,2024-02-15_14h07.47.619,VH_new_version2,2023.2.3,MacIntel,58.82352941,255.145,256.144,,,,,,,,,,,,,,,,,,,,,,,,,,256.144,256.811,m,1,0.647,,256.811,256.811,,0,89,89,104,1,105,hediye,2501,113.6355,2224,0.2431,6,harmonic,1.7,5.055514027,m,w,,,,,,,
,,,,,,,,,,,581702,,001,2024-02-15_14h07.47.619,VH_new_version2,2023.2.3,MacIntel,58.82352941,256.811,257.811,,,,,,,,,,,,,,,,,,,,,,,,,,257.811,258.327,m,1,0.503,,258.328,258.328,,0,90,90,48,1,49,çocuk,10612,482.1672,8979,0.9816,5,harmonic,1.75,5.683197664,m,w,,,,,,,
,,,,,,,,,,,581702,,001,2024-02-15_14h07.47.619,VH_new_version2,2023.2.3,MacIntel,58.82352941,258.328,259.328,,,,,,,,,,,,,,,,,,,,,,,,,,259.328,259.994,z,1,0.651,,259.995,259.995,,0,91,91,271,1,272,yakele,,,,,6,notharmonic,2,,z,nw,,,,,,,
,,,,,,,,,,,581702,,001,2024-02-15_14h07.47.619,VH_new_version2,2023.2.3,MacIntel,58.82352941,259.995,260.994,,,,,,,,,,,,,,,,,,,,,,,,,,260.995,261.744,m,1,0.734,,261.745,261.745,,0,92,92,123,1,124,yıldız,1775,80.649,1532,0.1675,6,harmonic,1.6,4.906598987,m,w,,,,,,,
,,,,,,,,,,,581702,,001,2024-02-15_14h07.47.619,VH_new_version2,2023.2.3,MacIntel,58.82352941,261.745,262.744,,,,,,,,,,,,,,,,,,,,,,,,,,262.744,263.478,z,1,0.717,,263.478,263.478,,0,93,93,161,1,162,mağa,,,,,4,harmonic,1.15,,z,nw,,,,,,,
,,,,,,,,,,,581702,,001,2024-02-15_14h07.47.619,VH_new_version2,2023.2.3,MacIntel,58.82352941,263.478,264.478,,,,,,,,,,,,,,,,,,,,,,,,,,264.478,265.061,z,1,0.563,,265.061,265.061,,0,94,94,201,1,202,lingin,,,,,6,harmonic,1.6,,z,nw,,,,,,,
,,,,,,,,,,,581702,,001,2024-02-15_14h07.47.619,VH_new_version2,2023.2.3,MacIntel,58.82352941,265.062,266.061,,,,,,,,,,,,,,,,,,,,,,,,,,266.061,266.611,z,1,0.532,,266.611,266.612,,0,95,95,255,1,256,resap,,,,,5,notharmonic,1.9,,z,nw,,,,,,,
,,,,,,,,,,,581702,,001,2024-02-15_14h07.47.619,VH_new_version2,2023.2.3,MacIntel,58.82352941,266.612,267.611,,,,,,,,,,,,,,,,,,,,,,,,,,267.611,268.278,m,1,0.648,,268.278,268.279,,0,96,96,95,1,96,sanat,3121,141.8059,2485,0.2717,5,harmonic,1.4,5.151694301,m,w,,,,,,,
,,,,,,,,,,,581702,,001,2024-02-15_14h07.47.619,VH_new_version2,2023.2.3,MacIntel,58.82352941,268.279,269.278,,,,,,,,,,,,,,,,,,,,,,,,,,269.278,270.078,z,1,0.781,,270.078,270.078,,0,97,97,272,1,273,takime,,,,,6,notharmonic,1.5,,z,nw,,,,,,,
,,,,,,,,,,,581702,,001,2024-02-15_14h07.47.619,VH_new_version2,2023.2.3,MacIntel,58.82352941,270.079,271.078,,,,,,,,,,,,,,,,,,,,,,,,,,271.078,271.761,m,1,0.662,,271.761,271.761,,0,98,98,63,1,64,hizmet,3023,137.3531,2689,0.294,6,harmonic,1.75,5.137838466,m,w,,,,,,,
,,,,,,,,,,,581702,,001,2024-02-15_14h07.47.619,VH_new_version2,2023.2.3,MacIntel,58.82352941,271.762,272.761,,,,,,,,,,,,,,,,,,,,,,,,,,272.762,273.412,z,1,0.627,,273.412,273.413,,0,99,99,233,1,234,eali,,,,,4,notharmonic,1,,z,nw,,,,,,,
,,,,,,,,,,,581702,,001,2024-02-15_14h07.47.619,VH_new_version2,2023.2.3,MacIntel,58.82352941,273.413,274.412,,,,,,,,,,,,,,,,,,,,,,,,,,274.412,275.011,m,1,0.586,,275.011,275.012,,0,100,100,45,1,46,akşam,7480,339.8615,6833,0.747,5,harmonic,1.6,5.53130197,m,w,,,,,,,
,,,,,,,,,,,581702,,001,2024-02-15_14h07.47.619,VH_new_version2,2023.2.3,MacIntel,58.82352941,275.012,276.012,,,,,,,,,,,,,,,,,,,,,,,,,,276.012,276.845,m,1,0.82,,276.845,276.845,,0,101,101,12,1,13,ağaç,1245,56.5679,1082,0.1183,4,harmonic,1.6,4.752570056,m,w,,,,,,,
,,,,,,,,,,,581702,,001,2024-02-15_14h07.47.619,VH_new_version2,2023.2.3,MacIntel,58.82352941,276.845,277.844,,,,,,,,,,,,,,,,,,,,,,,,,,277.844,278.329,m,1,0.468,,278.329,278.329,,0,102,102,4,1,5,öfke,606,27.5342,542,0.0593,4,harmonic,1.85,4.439872463,m,w,,,,,,,
,,,,,,,,,,,581702,,001,2024-02-15_14h07.47.619,VH_new_version2,2023.2.3,MacIntel,58.82352941,278.329,279.328,,,,,,,,,,,,,,,,,,,,,,,,,,279.328,280.078,m,1,0.729,,280.078,280.078,,0,103,103,66,1,67,tercih,4577,207.9607,4282,0.4681,6,harmonic,1.7,5.317981271,m,w,,,,,,,
,,,,,,,,,,,581702,,001,2024-02-15_14h07.47.619,VH_new_version2,2023.2.3,MacIntel,58.82352941,280.079,281.078,,,,,,,,,,,,,,,,,,,,,,,,,,281.079,281.645,z,1,0.548,,281.645,281.645,,0,104,104,232,1,233,leda,,,,,4,notharmonic,1.6,,z,nw,,,,,,,
,,,,,,,,,,,581702,,001,2024-02-15_14h07.47.619,VH_new_version2,2023.2.3,MacIntel,58.82352941,281.646,282.645,,,,,,,,,,,,,,,,,,,,,,,,,,282.645,283.312,z,1,0.653,,283.312,283.312,,0,105,105,143,1,144,uçek,,,,,4,harmonic,1.85,,z,nw,,,,,,,
,,,,,,,,,,,581702,,001,2024-02-15_14h07.47.619,VH_new_version2,2023.2.3,MacIntel,58.82352941,283.312,284.312,,,,,,,,,,,,,,,,,,,,,,,,,,284.312,284.995,z,1,0.662,,284.995,284.996,,0,106,106,149,1,150,irgi,,,,,4,harmonic,1.8,,z,nw,,,,,,,
,,,,,,,,,,,581702,,001,2024-02-15_14h07.47.619,VH_new_version2,2023.2.3,MacIntel,58.82352941,284.996,285.995,,,,,,,,,,,,,,,,,,,,,,,,,,285.995,286.845,z,1,0.831,,286.845,286.845,,0,107,107,211,1,212,yıksık,,,,,6,harmonic,1.8,,z,nw,,,,,,,
,,,,,,,,,,,581702,,001,2024-02-15_14h07.47.619,VH_new_version2,2023.2.3,MacIntel,58.82352941,286.846,287.845,,,,,,,,,,,,,,,,,,,,,,,,,,287.845,288.412,z,1,0.547,,288.412,288.412,,0,108,108,213,1,214,zale,,,,,4,notharmonic,1.55,,z,nw,,,,,,,
,,,,,,,,,,,581702,,001,2024-02-15_14h07.47.619,VH_new_version2,2023.2.3,MacIntel,58.82352941,288.413,289.412,,,,,,,,,,,,,,,,,,,,,,,,,,289.412,290.078,z,1,0.653,,290.079,290.079,,0,109,109,234,1,235,ated,,,,,4,notharmonic,1.8,,z,nw,,,,,,,
,,,,,,,,,,,581702,,001,2024-02-15_14h07.47.619,VH_new_version2,2023.2.3,MacIntel,58.82352941,290.079,291.079,,,,,,,,,,,,,,,,,,,,,,,,,,291.079,291.979,z,1,0.879,,291.979,291.979,,0,110,110,270,1,271,meşkup,,,,,6,notharmonic,1.95,,z,nw,,,,,,,
,,,,,,,,,,,581702,,001,2024-02-15_14h07.47.619,VH_new_version2,2023.2.3,MacIntel,58.82352941,291.979,292.978,,,,,,,,,,,,,,,,,,,,,,,,,,292.978,293.812,m,1,0.813,,293.812,293.812,,0,111,111,78,1,79,şişe,478,21.7184,440,0.0481,4,harmonic,1.05,4.336827828,m,w,,,,,,,
,,,,,,,,,,,581702,,001,2024-02-15_14h07.47.619,VH_new_version2,2023.2.3,MacIntel,58.82352941,293.813,294.812,,,,,,,,,,,,,,,,,,,,,,,,,,294.812,295.495,z,1,0.662,,295.496,295.496,,0,112,112,156,1,157,obık,,,,,4,harmonic,1.95,,z,nw,,,,,,,
,,,,,,,,,,,581702,,001,2024-02-15_14h07.47.619,VH_new_version2,2023.2.3,MacIntel,58.82352941,295.496,296.496,,,,,,,,,,,,,,,,,,,,,,,,,,296.496,297.145,m,1,0.629,,297.145,297.145,,0,113,113,112,1,113,kelime,2185,99.2777,1971,0.2155,6,harmonic,1.25,4.996851707,m,w,,,,,,,
,,,,,,,,,,,581702,,001,2024-02-15_14h07.47.619,VH_new_version2,2023.2.3,MacIntel,58.82352941,297.146,298.146,,,,,,,,,,,,,,,,,,,,,,,,,,298.146,298.911,m,1,0.752,,298.911,298.911,,0,114,114,29,1,30,şarap,926,42.0738,787,0.086,5,harmonic,1.9,4.624011738,m,w,,,,,,,
,,,,,,,,,,,581702,,001,2024-02-15_14h07.47.619,VH_new_version2,2023.2.3,MacIntel,58.82352941,298.912,299.912,,,,,,,,,,,,,,,,,,,,,,,,,,299.912,300.796,z,1,0.863,,300.796,300.796,,0,115,115,215,1,216,zali,,,,,4,notharmonic,1.25,,z,nw,,,,,,,
,,,,,,,,,,,581702,,001,2024-02-15_14h07.47.619,VH_new_version2,2023.2.3,MacIntel,58.82352941,300.797,301.796,,,,,,,,,,,,,,,,,,,,,,,,,,301.796,302.428,z,1,0.618,,302.428,302.429,,0,116,116,167,1,168,ontan,,,,,5,harmonic,1.6,,z,nw,,,,,,,
,,,,,,,,,,,581702,,001,2024-02-15_14h07.47.619,VH_new_version2,2023.2.3,MacIntel,58.82352941,302.429,303.429,,,,,,,,,,,,,,,,,,,,,,,,,,303.429,304.079,z,1,0.63,,304.079,304.079,,0,117,117,171,1,172,faraç,,,,,5,harmonic,1.75,,z,nw,,,,,,,
,,,,,,,,,,,581702,,001,2024-02-15_14h07.47.619,VH_new_version2,2023.2.3,MacIntel,58.82352941,304.08,305.079,,,,,,,,,,,,,,,,,,,,,,,,,,305.079,305.829,m,1,0.731,,305.829,305.829,,0,118,118,15,1,16,ışık,1814,82.421,1635,0.1787,4,harmonic,1.6,4.916037879,m,w,,,,,,,
,,,,,,,,,,,581702,,001,2024-02-15_14h07.47.619,VH_new_version2,2023.2.3,MacIntel,58.82352941,305.83,306.829,,,,,,,,,,,,,,,,,,,,,,,,,,306.829,307.313,m,1,0.468,,307.313,307.313,,0,119,119,130,1,131,başarı,1398,63.5196,1300,0.1421,6,harmonic,1.2,4.802907755,m,w,,,,,,,
,,,,,,,,,,,581702,,001,2024-02-15_14h07.47.619,VH_new_version2,2023.2.3,MacIntel,58.82352941,307.313,308.313,,,,,,,,,,,,,,,,,,,,,,,,,,308.313,309.096,z,1,0.765,,309.096,309.096,,0,120,120,267,1,268,tapare,,,,,6,notharmonic,1.95,,z,nw,,,,,,,
,,,,,,,,,,,581702,,001,2024-02-15_14h07.47.619,VH_new_version2,2023.2.3,MacIntel,58.82352941,309.097,310.096,,,,,,,,,,,,,,,,,,,,,,,,,,310.096,310.863,z,1,0.749,,310.863,310.863,,0,121,121,256,1,257,betaş,,,,,5,notharmonic,1.85,,z,nw,,,,,,,
,,,,,,,,,,,581702,,001,2024-02-15_14h07.47.619,VH_new_version2,2023.2.3,MacIntel,58.82352941,310.864,311.863,,,,,,,,,,,,,,,,,,,,,,,,,,311.863,312.346,z,1,0.468,,312.346,312.346,,0,122,122,158,1,159,uzot,,,,,4,harmonic,1.9,,z,nw,,,,,,,
,,,,,,,,,,,581702,,001,2024-02-15_14h07.47.619,VH_new_version2,2023.2.3,MacIntel,58.82352941,312.347,313.346,,,,,,,,,,,,,,,,,,,,,,,,,,313.346,313.879,m,1,0.521,,313.879,313.879,,0,123,123,67,1,68,sosyal,5290,240.3566,4372,0.4779,6,harmonic,1.85,5.380856052,m,w,,,,,,,
,,,,,,,,,,,581702,,001,2024-02-15_14h07.47.619,VH_new_version2,2023.2.3,MacIntel,58.82352941,313.88,314.88,,,,,,,,,,,,,,,,,,,,,,,,,,314.88,315.596,m,1,0.698,,315.596,315.596,,0,124,124,7,1,8,inci,757,34.3951,686,0.075,4,harmonic,1.05,4.536496576,m,w,,,,,,,
,,,,,,,,,,,581702,,001,2024-02-15_14h07.47.619,VH_new_version2,2023.2.3,MacIntel,58.82352941,315.597,316.596,,,,,,,,,,,,,,,,,,,,,,,,,,316.596,317.463,m,1,0.851,,317.463,317.463,,0,125,125,139,1,140,teklif,913,41.4831,848,0.0927,6,harmonic,1.7,4.617871203,m,w,,,,,,,
,,,,,,,,,,,581702,,001,2024-02-15_14h07.47.619,VH_new_version2,2023.2.3,MacIntel,58.82352941,317.464,318.463,,,,,,,,,,,,,,,,,,,,,,,,,,318.463,318.979,m,1,0.497,,318.979,318.979,,0,126,126,110,1,111,akıl,2208,100.3228,2004,0.2191,4,harmonic,1,5.001399645,m,w,,,,,,,
,,,,,,,,,,,581702,,001,2024-02-15_14h07.47.619,VH_new_version2,2023.2.3,MacIntel,58.82352941,318.98,319.98,,,,,,,,,,,,,,,,,,,,,,,,,,319.98,320.463,m,1,0.463,,320.463,320.463,,0,127,127,21,1,22,kötü,9344,424.5543,8257,0.9027,4,harmonic,1.65,5.627933244,m,w,,,,,,,
,,,,,,,,,,,581702,,001,2024-02-15_14h07.47.619,VH_new_version2,2023.2.3,MacIntel,58.82352941,320.463,321.463,,,,,,,,,,,,,,,,,,,,,,,,,,321.463,322.146,z,1,0.664,,322.146,322.147,,0,128,128,210,1,211,bellet,,,,,6,harmonic,1.65,,z,nw,,,,,,,
,,,,,,,,,,,581702,,001,2024-02-15_14h07.47.619,VH_new_version2,2023.2.3,MacIntel,58.82352941,322.147,323.146,,,,,,,,,,,,,,,,,,,,,,,,,,323.146,323.83,z,1,0.664,,323.83,323.83,,0,129,129,241,1,242,akter,,,,,5,notharmonic,1.8,,z,nw,,,,,,,
,,,,,,,,,,,581702,,001,2024-02-15_14h07.47.619,VH_new_version2,2023.2.3,MacIntel,58.82352941,323.831,324.83,,,,,,,,,,,,,,,,,,,,,,,,,,324.83,325.363,z,0,0.513,,325.363,325.363,,0,130,130,56,1,57,meslek,1082,49.1618,976,0.1067,6,harmonic,1.9,4.691627776,m,w,,,,,,,
,,,,,,,,,,,581702,,001,2024-02-15_14h07.47.619,VH_new_version2,2023.2.3,MacIntel,58.82352941,325.364,326.363,,,,,,,,,,,,,,,,,,,,,,,,,,326.363,326.864,m,1,0.488,,326.864,326.864,,0,131,131,44,1,45,erkek,6188,281.1582,5195,0.5679,5,harmonic,1.55,5.448950754,m,w,,,,,,,
,,,,,,,,,,,581702,,001,2024-02-15_14h07.47.619,VH_new_version2,2023.2.3,MacIntel,58.82352941,326.864,327.863,,,,,,,,,,,,,,,,,,,,,,,,,,327.863,328.763,z,1,0.879,,328.763,328.763,,0,132,132,216,1,217,same,,,,,4,notharmonic,1.6,,z,nw,,,,,,,
,,,,,,,,,,,581702,,001,2024-02-15_14h07.47.619,VH_new_version2,2023.2.3,MacIntel,58.82352941,328.763,329.763,,,,,,,,,,,,,,,,,,,,,,,,,,329.763,330.33,m,1,0.554,,330.33,330.33,,0,133,133,36,1,37,gönül,1786,81.1488,1676,0.1832,5,harmonic,1.8,4.909282102,m,w,,,,,,,
,,,,,,,,,,,581702,,001,2024-02-15_14h07.47.619,VH_new_version2,2023.2.3,MacIntel,58.82352941,330.331,331.33,,,,,,,,,,,,,,,,,,,,,,,,,,331.33,331.98,z,1,0.633,,331.98,331.98,,0,134,134,187,1,188,ahfam,,,,,5,harmonic,1.85,,z,nw,,,,,,,
,,,,,,,,,,,581702,,001,2024-02-15_14h07.47.619,VH_new_version2,2023.2.3,MacIntel,58.82352941,331.981,332.981,,,,,,,,,,,,,,,,,,,,,,,,,,332.981,333.647,m,1,0.646,,333.647,333.647,,0,135,135,129,1,130,peynir,1421,64.5646,1248,0.1364,6,harmonic,1.9,4.809994465,m,w,,,,,,,
,,,,,,,,,,,581702,,001,2024-02-15_14h07.47.619,VH_new_version2,2023.2.3,MacIntel,58.82352941,333.647,334.647,,,,,,,,,,,,,,,,,,,,,,,,,,334.647,335.197,m,1,0.535,,335.197,335.197,,0,136,136,71,1,72,boya,918,41.7103,799,0.0873,4,harmonic,1,4.620243314,m,w,,,,,,,
,,,,,,,,,,,581702,,001,2024-02-15_14h07.47.619,VH_new_version2,2023.2.3,MacIntel,58.82352941,335.198,336.197,,,,,,,,,,,,,,,,,,,,,,,,,,336.197,337.13,z,1,0.914,,337.13,337.13,,0,137,137,248,1,249,talif,,,,,5,notharmonic,1.5,,z,nw,,,,,,,
,,,,,,,,,,,581702,,001,2024-02-15_14h07.47.619,VH_new_version2,2023.2.3,MacIntel,58.82352941,337.131,338.13,,,,,,,,,,,,,,,,,,,,,,,,,,338.13,338.68,m,1,0.53,,338.68,338.68,,0,138,138,47,1,48,yemek,9626,437.3673,8311,0.9086,5,harmonic,1.35,5.64084631,m,w,,,,,,,
,,,,,,,,,,,581702,,001,2024-02-15_14h07.47.619,VH_new_version2,2023.2.3,MacIntel,58.82352941,338.681,339.68,,,,,,,,,,,,,,,,,,,,,,,,,,339.68,340.18,m,1,0.478,,340.18,340.18,,0,139,139,65,1,66,destek,3328,151.2111,3065,0.3351,6,harmonic,1.85,5.179583673,m,w,,,,,,,
,,,,,,,,,,,581702,,001,2024-02-15_14h07.47.619,VH_new_version2,2023.2.3,MacIntel,58.82352941,340.181,341.18,,,,,,,,,,,,,,,,,,,,,,,,,,341.181,341.597,m,1,0.396,,341.597,341.598,,0,140,140,91,1,92,yeşil,3445,156.5271,2946,0.3221,5,harmonic,1.8,5.194589539,m,w,,,,,,,
,,,,,,,,,,,581702,,001,2024-02-15_14h07.47.619,VH_new_version2,2023.2.3,MacIntel,58.82352941,341.598,342.597,,,,,,,,,,,,,,,,,,,,,,,,,,342.597,342.997,m,1,0.379,,342.997,359.948,space,0,141,141,33,1,34,sayfa,1655,75.1966,1502,0.1642,5,harmonic,1.45,4.876198204,m,w,16.933,,,,,,
,,,,,,,,,,,581702,,001,2024-02-15_14h07.47.619,VH_new_version2,2023.2.3,MacIntel,58.82352941,359.95,360.948,,,,,,,,,,,,,,,,,,,,,,,,,,360.948,362.331,z,1,1.363,,362.331,362.332,,0,142,142,243,1,244,kuyef,,,,,5,notharmonic,2.3,,z,nw,,,,,,,
,,,,,,,,,,,581702,,001,2024-02-15_14h07.47.619,VH_new_version2,2023.2.3,MacIntel,58.82352941,362.333,363.331,,,,,,,,,,,,,,,,,,,,,,,,,,363.331,363.898,z,1,0.549,,363.898,363.898,,0,143,143,152,1,153,ebür,,,,,4,harmonic,1.95,,z,nw,,,,,,,
,,,,,,,,,,,581702,,001,2024-02-15_14h07.47.619,VH_new_version2,2023.2.3,MacIntel,58.82352941,363.899,364.897,,,,,,,,,,,,,,,,,,,,,,,,,,364.897,365.598,z,1,0.68,,365.598,365.598,,0,144,144,235,1,236,mate,,,,,4,notharmonic,1.65,,z,nw,,,,,,,
,,,,,,,,,,,581702,,001,2024-02-15_14h07.47.619,VH_new_version2,2023.2.3,MacIntel,58.82352941,365.599,366.598,,,,,,,,,,,,,,,,,,,,,,,,,,366.598,367.264,m,1,0.646,,367.265,367.265,,0,145,145,106,1,107,altın,2385,108.3649,2017,0.2205,5,harmonic,1,5.034888635,m,w,,,,,,,
,,,,,,,,,,,581702,,001,2024-02-15_14h07.47.619,VH_new_version2,2023.2.3,MacIntel,58.82352941,367.266,368.265,,,,,,,,,,,,,,,,,,,,,,,,,,368.265,369.098,z,1,0.813,,369.098,369.099,,0,146,146,279,1,280,tevaha,,,,,6,notharmonic,2,,z,nw,,,,,,,
,,,,,,,,,,,581702,,001,2024-02-15_14h07.47.619,VH_new_version2,2023.2.3,MacIntel,58.82352941,369.099,370.098,,,,,,,,,,,,,,,,,,,,,,,,,,370.098,370.765,z,1,0.645,,370.765,370.765,,0,147,147,170,1,171,telen,,,,,5,harmonic,1.15,,z,nw,,,,,,,
,,,,,,,,,,,581702,,001,2024-02-15_14h07.47.619,VH_new_version2,2023.2.3,MacIntel,58.82352941,370.765,371.764,,,,,,,,,,,,,,,,,,,,,,,,,,371.764,372.331,z,1,0.548,,372.331,372.332,,0,148,148,192,1,193,kumgun,,,,,6,harmonic,1.85,,z,nw,,,,,,,
,,,,,,,,,,,581702,,001,2024-02-15_14h07.47.619,VH_new_version2,2023.2.3,MacIntel,58.82352941,372.333,373.332,,,,,,,,,,,,,,,,,,,,,,,,,,373.332,373.982,m,1,0.631,,373.983,373.983,,0,149,149,1,1,2,ufuk,437,19.8555,403,0.0441,4,harmonic,1.85,4.297880828,m,w,,,,,,,
,,,,,,,,,,,581702,,001,2024-02-15_14h07.47.619,VH_new_version2,2023.2.3,MacIntel,58.82352941,373.984,374.982,,,,,,,,,,,,,,,,,,,,,,,,,,374.982,375.698,z,1,0.699,,375.698,375.698,,0,150,150,164,1,165,üdel,,,,,4,harmonic,1.95,,z,nw,,,,,,,
,,,,,,,,,,,581702,,001,2024-02-15_14h07.47.619,VH_new_version2,2023.2.3,MacIntel,58.82352941,375.699,376.698,,,,,,,,,,,,,,,,,,,,,,,,,,376.698,377.265,z,1,0.553,,377.265,377.265,,0,151,151,150,1,151,acuz,,,,,4,harmonic,1.65,,z,nw,,,,,,,
,,,,,,,,,,,581702,,001,2024-02-15_14h07.47.619,VH_new_version2,2023.2.3,MacIntel,58.82352941,377.265,378.265,,,,,,,,,,,,,,,,,,,,,,,,,,378.265,378.798,z,1,0.513,,378.798,378.799,,0,152,152,199,1,200,bartam,,,,,6,harmonic,1.85,,z,nw,,,,,,,
,,,,,,,,,,,581702,,001,2024-02-15_14h07.47.619,VH_new_version2,2023.2.3,MacIntel,58.82352941,378.799,379.798,,,,,,,,,,,,,,,,,,,,,,,,,,379.798,380.515,m,1,0.697,,380.515,380.515,,0,153,153,134,1,135,araç,1182,53.7054,1050,0.1148,4,harmonic,1.25,4.730017956,m,w,,,,,,,
,,,,,,,,,,,581702,,001,2024-02-15_14h07.47.619,VH_new_version2,2023.2.3,MacIntel,58.82352941,380.516,381.515,,,,,,,,,,,,,,,,,,,,,,,,,,381.515,382.165,z,1,0.629,,382.165,382.165,,0,154,154,155,1,156,megi,,,,,4,harmonic,1.8,,z,nw,,,,,,,
,,,,,,,,,,,581702,,001,2024-02-15_14h07.47.619,VH_new_version2,2023.2.3,MacIntel,58.82352941,382.166,383.165,,,,,,,,,,,,,,,,,,,,,,,,,,383.165,383.832,z,1,0.647,,383.832,383.832,,0,155,155,240,1,241,makek,,,,,5,notharmonic,1.9,,z,nw,,,,,,,
,,,,,,,,,,,581702,,001,2024-02-15_14h07.47.619,VH_new_version2,2023.2.3,MacIntel,58.82352941,383.832,384.832,,,,,,,,,,,,,,,,,,,,,,,,,,384.832,385.415,z,1,0.57,,385.415,385.415,,0,156,156,145,1,146,oyoz,,,,,4,harmonic,1.9,,z,nw,,,,,,,
,,,,,,,,,,,581702,,001,2024-02-15_14h07.47.619,VH_new_version2,2023.2.3,MacIntel,58.82352941,385.416,386.415,,,,,,,,,,,,,,,,,,,,,,,,,,386.415,387.215,z,1,0.784,,387.215,387.215,,0,157,157,254,1,255,hadir,,,,,5,notharmonic,1.4,,z,nw,,,,,,,
,,,,,,,,,,,581702,,001,2024-02-15_14h07.47.619,VH_new_version2,2023.2.3,MacIntel,58.82352941,387.216,388.215,,,,,,,,,,,,,,,,,,,,,,,,,,388.215,388.915,z,1,0.679,,388.915,388.915,,0,158,158,251,1,252,madit,,,,,5,notharmonic,1.9,,z,nw,,,,,,,
,,,,,,,,,,,581702,,001,2024-02-15_14h07.47.619,VH_new_version2,2023.2.3,MacIntel,58.82352941,388.916,389.914,,,,,,,,,,,,,,,,,,,,,,,,,,389.914,390.698,m,1,0.762,,390.699,390.699,,0,159,159,117,1,118,çiçek,2071,94.098,1772,0.1937,5,harmonic,1.95,4.973580393,m,w,,,,,,,
,,,,,,,,,,,581702,,001,2024-02-15_14h07.47.619,VH_new_version2,2023.2.3,MacIntel,58.82352941,390.699,391.699,,,,,,,,,,,,,,,,,,,,,,,,,,391.699,392.598,m,1,0.885,,392.599,392.599,,0,160,160,14,1,15,ocak,1685,76.5597,1548,0.1692,4,harmonic,1.9,4.884000223,m,w,,,,,,,
,,,,,,,,,,,581702,,001,2024-02-15_14h07.47.619,VH_new_version2,2023.2.3,MacIntel,58.82352941,392.599,393.599,,,,,,,,,,,,,,,,,,,,,,,,,,393.599,394.215,z,1,0.603,,394.215,394.215,,0,161,161,247,1,248,fiyan,,,,,5,notharmonic,1.6,,z,nw,,,,,,,
,,,,,,,,,,,581702,,001,2024-02-15_14h07.47.619,VH_new_version2,2023.2.3,MacIntel,58.82352941,394.216,395.215,,,,,,,,,,,,,,,,,,,,,,,,,,395.215,395.932,m,1,0.697,,395.932,395.932,,0,162,162,74,1,75,çatı,469,21.3095,379,0.0414,4,harmonic,1,4.32857326,m,w,,,,,,,
,,,,,,,,,,,581702,,001,2024-02-15_14h07.47.619,VH_new_version2,2023.2.3,MacIntel,58.82352941,395.933,396.932,,,,,,,,,,,,,,,,,,,,,,,,,,396.932,397.532,m,1,0.578,,397.532,397.533,,0,163,163,132,1,133,abla,1287,58.4762,1156,0.1264,4,harmonic,1,4.766979143,m,w,,,,,,,
,,,,,,,,,,,581702,,001,2024-02-15_14h07.47.619,VH_new_version2,2023.2.3,MacIntel,58.82352941,397.533,398.531,,,,,,,,,,,,,,,,,,,,,,,,,,398.531,399.366,m,1,0.814,,399.366,399.366,,0,164,164,125,1,126,bardak,1728,78.5135,1569,0.1715,6,harmonic,1.6,4.894944338,m,w,,,,,,,
,,,,,,,,,,,581702,,001,2024-02-15_14h07.47.619,VH_new_version2,2023.2.3,MacIntel,58.82352941,399.366,400.366,,,,,,,,,,,,,,,,,,,,,,,,,,400.366,401.015,m,1,0.63,,401.015,401.016,,0,165,165,32,1,33,güney,1639,74.4697,1439,0.1573,5,harmonic,1.65,4.871979604,m,w,,,,,,,
,,,,,,,,,,,581702,,001,2024-02-15_14h07.47.619,VH_new_version2,2023.2.3,MacIntel,58.82352941,401.016,402.016,,,,,,,,,,,,,,,,,,,,,,,,,,402.016,402.532,m,1,0.504,,402.532,402.532,,0,166,166,58,1,59,toprak,1989,90.3723,1762,0.1926,6,harmonic,1.9,4.956035335,m,w,,,,,,,
,,,,,,,,,,,581702,,001,2024-02-15_14h07.47.619,VH_new_version2,2023.2.3,MacIntel,58.82352941,402.533,403.532,,,,,,,,,,,,,,,,,,,,,,,,,,403.532,404.065,m,1,0.51,,404.065,404.065,,0,167,167,107,1,108,isim,2366,107.5017,2163,0.2365,4,harmonic,1,5.031415332,m,w,,,,,,,
,,,,,,,,,,,581702,,001,2024-02-15_14h07.47.619,VH_new_version2,2023.2.3,MacIntel,58.82352941,404.066,405.066,,,,,,,,,,,,,,,,,,,,,,,,,,405.066,405.465,m,1,0.388,,405.466,405.466,,0,168,168,49,1,50,çeyrek,540,24.5355,477,0.0521,6,harmonic,1.9,4.389794913,m,w,,,,,,,
,,,,,,,,,,,581702,,001,2024-02-15_14h07.47.619,VH_new_version2,2023.2.3,MacIntel,58.82352941,405.466,406.466,,,,,,,,,,,,,,,,,,,,,,,,,,406.466,407.166,z,1,0.68,,407.166,407.166,,0,169,169,184,1,185,nekir,,,,,5,harmonic,1.6,,z,nw,,,,,,,
,,,,,,,,,,,581702,,001,2024-02-15_14h07.47.619,VH_new_version2,2023.2.3,MacIntel,58.82352941,407.167,408.166,,,,,,,,,,,,,,,,,,,,,,,,,,408.166,408.766,z,1,0.579,,408.766,408.766,,0,170,170,197,1,198,zemkin,,,,,6,harmonic,1.85,,z,nw,,,,,,,
,,,,,,,,,,,581702,,001,2024-02-15_14h07.47.619,VH_new_version2,2023.2.3,MacIntel,58.82352941,408.767,409.766,,,,,,,,,,,,,,,,,,,,,,,,,,409.766,410.349,m,1,0.569,,410.349,410.349,,0,171,171,140,1,141,kimlik,867,39.393,726,0.0794,6,harmonic,1.7,4.595419056,m,w,,,,,,,
,,,,,,,,,,,581702,,001,2024-02-15_14h07.47.619,VH_new_version2,2023.2.3,MacIntel,58.82352941,410.35,411.348,,,,,,,,,,,,,,,,,,,,,,,,,,411.349,412.032,z,1,0.662,,412.032,412.033,,0,172,172,178,1,179,güzül,,,,,5,harmonic,1.65,,z,nw,,,,,,,
,,,,,,,,,,,581702,,001,2024-02-15_14h07.47.619,VH_new_version2,2023.2.3,MacIntel,58.82352941,412.033,413.033,,,,,,,,,,,,,,,,,,,,,,,,,,413.033,413.883,z,1,0.833,,413.883,413.883,,0,173,173,205,1,206,hücmet,,,,,6,harmonic,1.85,,z,nw,,,,,,,
,,,,,,,,,,,581702,,001,2024-02-15_14h07.47.619,VH_new_version2,2023.2.3,MacIntel,58.82352941,413.883,414.883,,,,,,,,,,,,,,,,,,,,,,,,,,414.883,415.583,m,1,0.684,,415.583,415.583,,0,174,174,20,1,21,süre,8679,394.3393,8119,0.8876,4,harmonic,1,5.595870061,m,w,,,,,,,
,,,,,,,,,,,581702,,001,2024-02-15_14h07.47.619,VH_new_version2,2023.2.3,MacIntel,58.82352941,415.583,416.583,,,,,,,,,,,,,,,,,,,,,,,,,,416.583,417.45,z,1,0.844,,417.45,417.45,,0,175,175,204,1,205,kürfür,,,,,6,harmonic,1.95,,z,nw,,,,,,,
,,,,,,,,,,,581702,,001,2024-02-15_14h07.47.619,VH_new_version2,2023.2.3,MacIntel,58.82352941,417.45,418.449,,,,,,,,,,,,,,,,,,,,,,,,,,418.449,419.033,z,1,0.563,,419.033,419.033,,0,176,176,208,1,209,terbiy,,,,,6,harmonic,1.9,,z,nw,,,,,,,
,,,,,,,,,,,581702,,001,2024-02-15_14h07.47.619,VH_new_version2,2023.2.3,MacIntel,58.82352941,419.034,420.033,,,,,,,,,,,,,,,,,,,,,,,,,,420.033,420.583,z,1,0.529,,420.583,420.583,,0,177,177,159,1,160,daro,,,,,4,harmonic,1.7,,z,nw,,,,,,,
,,,,,,,,,,,581702,,001,2024-02-15_14h07.47.619,VH_new_version2,2023.2.3,MacIntel,58.82352941,420.584,421.583,,,,,,,,,,,,,,,,,,,,,,,,,,421.583,422.283,m,1,0.68,,422.283,422.283,,0,178,178,64,1,65,teknik,3297,149.8026,2798,0.3059,6,harmonic,1.9,5.175519351,m,w,,,,,,,
,,,,,,,,,,,581702,,001,2024-02-15_14h07.47.619,VH_new_version2,2023.2.3,MacIntel,58.82352941,422.283,423.283,,,,,,,,,,,,,,,,,,,,,,,,,,423.283,423.933,m,1,0.634,,423.933,423.933,,0,179,179,62,1,63,kültür,2566,116.5889,2206,0.2412,6,harmonic,1.55,5.066657205,m,w,,,,,,,
,,,,,,,,,,,581702,,001,2024-02-15_14h07.47.619,VH_new_version2,2023.2.3,MacIntel,58.82352941,423.934,424.933,,,,,,,,,,,,,,,,,,,,,,,,,,424.933,425.516,z,1,0.563,,425.516,425.517,,0,180,180,250,1,251,hapef,,,,,5,notharmonic,1.95,,z,nw,,,,,,,
,,,,,,,,,,,581702,,001,2024-02-15_14h07.47.619,VH_new_version2,2023.2.3,MacIntel,58.82352941,425.517,426.516,,,,,,,,,,,,,,,,,,,,,,,,,,426.517,427.032,z,1,0.504,,427.032,427.032,,0,181,181,249,1,250,sisaj,,,,,5,notharmonic,2,,z,nw,,,,,,,
,,,,,,,,,,,581702,,001,2024-02-15_14h07.47.619,VH_new_version2,2023.2.3,MacIntel,58.82352941,427.033,428.033,,,,,,,,,,,,,,,,,,,,,,,,,,428.033,428.683,m,1,0.634,,428.683,428.683,,0,182,182,137,1,138,mutfak,1110,50.434,1032,0.1128,6,harmonic,1.95,4.702723414,m,w,,,,,,,
,,,,,,,,,,,581702,,001,2024-02-15_14h07.47.619,VH_new_version2,2023.2.3,MacIntel,58.82352941,428.684,429.683,,,,,,,,,,,,,,,,,,,,,,,,,,429.683,430.183,z,1,0.479,,430.183,430.183,,0,183,183,190,1,191,gopuk,,,,,5,harmonic,1.85,,z,nw,,,,,,,
,,,,,,,,,,,581702,,001,2024-02-15_14h07.47.619,VH_new_version2,2023.2.3,MacIntel,58.82352941,430.184,431.183,,,,,,,,,,,,,,,,,,,,,,,,,,431.183,432.233,z,1,1.031,,432.233,432.233,,0,184,184,191,1,192,pedrek,,,,,6,harmonic,2,,z,nw,,,,,,,
,,,,,,,,,,,581702,,001,2024-02-15_14h07.47.619,VH_new_version2,2023.2.3,MacIntel,58.82352941,432.234,433.233,,,,,,,,,,,,,,,,,,,,,,,,,,433.233,433.933,m,1,0.68,,433.933,433.933,,0,185,185,17,1,18,sarı,2072,94.1435,1838,0.2009,4,harmonic,1,4.97379034,m,w,,,,,,,
,,,,,,,,,,,581702,,001,2024-02-15_14h07.47.619,VH_new_version2,2023.2.3,MacIntel,58.82352941,433.934,434.933,,,,,,,,,,,,,,,,,,,,,,,,,,434.934,435.632,z,1,0.685,,435.632,435.633,,0,186,186,163,1,164,küvü,,,,,4,harmonic,1.7,,z,nw,,,,,,,
,,,,,,,,,,,581702,,001,2024-02-15_14h07.47.619,VH_new_version2,2023.2.3,MacIntel,58.82352941,435.633,436.633,,,,,,,,,,,,,,,,,,,,,,,,,,436.633,437.566,z,1,0.92,,437.566,437.566,,0,187,187,183,1,184,çapal,,,,,5,harmonic,1.6,,z,nw,,,,,,,
,,,,,,,,,,,581702,,001,2024-02-15_14h07.47.619,VH_new_version2,2023.2.3,MacIntel,58.82352941,437.567,438.567,,,,,,,,,,,,,,,,,,,,,,,,,,438.567,439.133,z,1,0.545,,439.134,439.134,,0,188,188,269,1,270,sakate,,,,,6,notharmonic,1.8,,z,nw,,,,,,,
,,,,,,,,,,,581702,,001,2024-02-15_14h07.47.619,VH_new_version2,2023.2.3,MacIntel,58.82352941,439.134,440.133,,,,,,,,,,,,,,,,,,,,,,,,,,440.134,440.7,z,1,0.546,,440.7,440.7,,0,189,189,225,1,226,elda,,,,,4,notharmonic,1.6,,z,nw,,,,,,,
,,,,,,,,,,,581702,,001,2024-02-15_14h07.47.619,VH_new_version2,2023.2.3,MacIntel,58.82352941,440.701,441.7,,,,,,,,,,,,,,,,,,,,,,,,,,441.7,442.35,m,1,0.628,,442.35,442.35,,0,190,190,83,1,84,şafak,616,27.9886,521,0.057,5,harmonic,1.8,4.446981175,m,w,,,,,,,
,,,,,,,,,,,581702,,001,2024-02-15_14h07.47.619,VH_new_version2,2023.2.3,MacIntel,58.82352941,442.351,443.35,,,,,,,,,,,,,,,,,,,,,,,,,,443.35,444.033,m,1,0.663,,444.034,444.034,,0,191,191,3,1,4,otuz,583,26.4892,556,0.0608,4,harmonic,1.45,4.423068842,m,w,,,,,,,
,,,,,,,,,,,581702,,001,2024-02-15_14h07.47.619,VH_new_version2,2023.2.3,MacIntel,58.82352941,444.034,445.034,,,,,,,,,,,,,,,,,,,,,,,,,,445.034,445.7,m,1,0.646,,445.7,445.701,,0,192,192,22,1,23,özel,9726,441.9109,8559,0.9357,4,harmonic,1.35,5.645334714,m,w,,,,,,,
,,,,,,,,,,,581702,,001,2024-02-15_14h07.47.619,VH_new_version2,2023.2.3,MacIntel,58.82352941,445.701,446.7,,,,,,,,,,,,,,,,,,,,,,,,,,446.7,447.25,m,1,0.533,,447.25,447.251,,0,193,193,76,1,77,koltuk,559,25.3987,476,0.052,6,harmonic,1.75,4.404811488,m,w,,,,,,,
,,,,,,,,,,,581702,,001,2024-02-15_14h07.47.619,VH_new_version2,2023.2.3,MacIntel,58.82352941,447.251,448.25,,,,,,,,,,,,,,,,,,,,,,,,,,448.25,449.317,z,1,1.047,,449.317,449.317,,0,194,194,238,1,239,labin,,,,,5,notharmonic,1.65,,z,nw,,,,,,,
,,,,,,,,,,,581702,,001,2024-02-15_14h07.47.619,VH_new_version2,2023.2.3,MacIntel,58.82352941,449.317,450.317,,,,,,,,,,,,,,,,,,,,,,,,,,450.317,450.95,z,1,0.613,,450.95,450.951,,0,195,195,196,1,197,etçime,,,,,6,harmonic,1.9,,z,nw,,,,,,,
,,,,,,,,,,,581702,,001,2024-02-15_14h07.47.619,VH_new_version2,2023.2.3,MacIntel,58.82352941,450.951,451.95,,,,,,,,,,,,,,,,,,,,,,,,,,451.951,452.467,z,1,0.497,,452.467,452.467,,0,196,196,258,1,259,ihati,,,,,5,notharmonic,1.95,,z,nw,,,,,,,
,,,,,,,,,,,581702,,001,2024-02-15_14h07.47.619,VH_new_version2,2023.2.3,MacIntel,58.82352941,452.468,453.466,,,,,,,,,,,,,,,,,,,,,,,,,,453.466,454.234,m,1,0.748,,454.234,454.234,,0,197,197,25,1,26,orman,819,37.2121,705,0.0771,5,harmonic,1.3,4.570684179,m,w,,,,,,,
,,,,,,,,,,,581702,,001,2024-02-15_14h07.47.619,VH_new_version2,2023.2.3,MacIntel,58.82352941,454.235,455.234,,,,,,,,,,,,,,,,,,,,,,,,,,455.234,456.034,z,1,0.78,,456.034,456.034,,0,198,198,275,1,276,teşbuz,,,,,6,notharmonic,2.75,,z,nw,,,,,,,
,,,,,,,,,,,581702,,001,2024-02-15_14h07.47.619,VH_new_version2,2023.2.3,MacIntel,58.82352941,456.035,457.033,,,,,,,,,,,,,,,,,,,,,,,,,,457.033,457.668,z,1,0.613,,457.668,457.668,,0,199,199,259,1,260,kiyaf,,,,,5,notharmonic,1.95,,z,nw,,,,,,,
,,,,,,,,,,,581702,,001,2024-02-15_14h07.47.619,VH_new_version2,2023.2.3,MacIntel,58.82352941,457.67,458.668,,,,,,,,,,,,,,,,,,,,,,,,,,458.668,459.316,m,1,0.632,,459.317,459.317,,0,200,200,35,1,36,araba,1704,77.423,1485,0.1623,5,harmonic,1,4.888869995,m,w,,,,,,,
,,,,,,,,,,,581702,,001,2024-02-15_14h07.47.619,VH_new_version2,2023.2.3,MacIntel,58.82352941,459.318,460.318,,,,,,,,,,,,,,,,,,,,,,,,,,460.318,461.034,z,1,0.697,,461.034,461.034,,0,201,201,160,1,161,ünte,,,,,4,harmonic,1.65,,z,nw,,,,,,,
,,,,,,,,,,,581702,,001,2024-02-15_14h07.47.619,VH_new_version2,2023.2.3,MacIntel,58.82352941,461.035,462.034,,,,,,,,,,,,,,,,,,,,,,,,,,462.034,462.801,m,1,0.748,,462.801,462.802,,0,202,202,11,1,12,öykü,958,43.5277,849,0.0928,4,harmonic,1.9,4.63876572,m,w,,,,,,,
,,,,,,,,,,,581702,,001,2024-02-15_14h07.47.619,VH_new_version2,2023.2.3,MacIntel,58.82352941,462.802,463.801,,,,,,,,,,,,,,,,,,,,,,,,,,463.801,464.801,m,1,0.979,,464.801,464.801,,0,203,203,111,1,112,balık,2189,99.4595,1817,0.1986,5,harmonic,1,4.997646272,m,w,,,,,,,
,,,,,,,,,,,581702,,001,2024-02-15_14h07.47.619,VH_new_version2,2023.2.3,MacIntel,58.82352941,464.802,465.801,,,,,,,,,,,,,,,,,,,,,,,,,,465.801,466.468,m,1,0.65,,466.468,466.468,,0,204,204,122,1,123,kapı,1792,81.4214,1566,0.1712,4,harmonic,1,4.910738566,m,w,,,,,,,
,,,,,,,,,,,581702,,001,2024-02-15_14h07.47.619,VH_new_version2,2023.2.3,MacIntel,58.82352941,466.469,467.468,,,,,,,,,,,,,,,,,,,,,,,,,,467.468,468.234,z,1,0.752,,468.234,468.235,,0,205,205,273,1,274,kalkeş,,,,,6,notharmonic,1.85,,z,nw,,,,,,,
,,,,,,,,,,,581702,,001,2024-02-15_14h07.47.619,VH_new_version2,2023.2.3,MacIntel,58.82352941,468.235,469.234,,,,,,,,,,,,,,,,,,,,,,,,,,469.234,469.984,m,1,0.733,,469.985,469.985,,0,206,206,99,1,100,altı,2782,126.403,2571,0.2811,4,harmonic,1,5.101757381,m,w,,,,,,,
,,,,,,,,,,,581702,,001,2024-02-15_14h07.47.619,VH_new_version2,2023.2.3,MacIntel,58.82352941,469.986,470.985,,,,,,,,,,,,,,,,,,,,,,,,,,470.985,471.651,z,1,0.645,,471.652,471.652,,0,207,207,142,1,143,öbeh,,,,,4,harmonic,1.95,,z,nw,,,,,,,
,,,,,,,,,,,581702,,001,2024-02-15_14h07.47.619,VH_new_version2,2023.2.3,MacIntel,58.82352941,471.652,472.651,,,,,,,,,,,,,,,,,,,,,,,,,,472.651,473.218,m,1,0.549,,473.218,473.218,,0,208,208,138,1,139,ödül,1063,48.2985,926,0.1012,4,harmonic,1.7,4.683933643,m,w,,,,,,,
,,,,,,,,,,,581702,,001,2024-02-15_14h07.47.619,VH_new_version2,2023.2.3,MacIntel,58.82352941,473.219,474.218,,,,,,,,,,,,,,,,,,,,,,,,,,474.218,474.935,m,1,0.696,,474.935,474.935,,0,209,209,52,1,53,buğday,746,33.8953,623,0.0681,6,harmonic,1.9,4.530139482,m,w,,,,,,,
,,,,,,,,,,,581702,,001,2024-02-15_14h07.47.619,VH_new_version2,2023.2.3,MacIntel,58.82352941,474.935,475.935,,,,,,,,,,,,,,,,,,,,,,,,,,475.935,476.535,z,1,0.587,,476.535,476.535,,0,210,210,218,1,219,ecmu,,,,,4,notharmonic,2,,z,nw,,,,,,,
,,,,,,,,,,,581702,,001,2024-02-15_14h07.47.619,VH_new_version2,2023.2.3,MacIntel,58.82352941,476.535,477.535,,,,,,,,,,,,,,,,,,,,,,,,,,477.535,478.118,z,1,0.569,,478.118,478.118,,0,211,211,219,1,220,anel,,,,,4,notharmonic,1.7,,z,nw,,,,,,,
,,,,,,,,,,,581702,,001,2024-02-15_14h07.47.619,VH_new_version2,2023.2.3,MacIntel,58.82352941,478.119,479.119,,,,,,,,,,,,,,,,,,,,,,,,,,479.119,479.668,z,1,0.533,,479.668,485.551,space,0,212,212,262,1,263,barali,,,,,6,notharmonic,1.95,,z,nw,5.873,,,,,,
,,,,,,,,,,,581702,,001,2024-02-15_14h07.47.619,VH_new_version2,2023.2.3,MacIntel,58.82352941,485.552,486.552,,,,,,,,,,,,,,,,,,,,,,,,,,486.552,487.501,z,1,0.929,,487.502,487.502,,0,213,213,261,1,262,eksan,,,,,5,notharmonic,1.7,,z,nw,,,,,,,
,,,,,,,,,,,581702,,001,2024-02-15_14h07.47.619,VH_new_version2,2023.2.3,MacIntel,58.82352941,487.502,488.502,,,,,,,,,,,,,,,,,,,,,,,,,,488.502,489.085,m,1,0.563,,489.085,489.085,,0,214,214,100,1,101,ekmek,2734,124.2221,2318,0.2534,5,harmonic,1.3,5.094198867,m,w,,,,,,,
,,,,,,,,,,,581702,,001,2024-02-15_14h07.47.619,VH_new_version2,2023.2.3,MacIntel,58.82352941,489.086,490.085,,,,,,,,,,,,,,,,,,,,,,,,,,490.085,490.685,m,1,0.58,,490.685,490.685,,0,215,215,105,1,106,hasta,2431,110.455,2140,0.2339,5,harmonic,1,5.04318538,m,w,,,,,,,
,,,,,,,,,,,581702,,001,2024-02-15_14h07.47.619,VH_new_version2,2023.2.3,MacIntel,58.82352941,490.686,491.685,,,,,,,,,,,,,,,,,,,,,,,,,,491.685,492.168,m,1,0.462,,492.168,492.169,,0,216,216,72,1,73,uğur,787,35.7582,666,0.0728,4,harmonic,1.6,4.553375649,m,w,,,,,,,
,,,,,,,,,,,581702,,001,2024-02-15_14h07.47.619,VH_new_version2,2023.2.3,MacIntel,58.82352941,492.169,493.169,,,,,,,,,,,,,,,,,,,,,,,,,,493.169,493.768,z,1,0.583,,493.768,493.769,,0,217,217,253,1,254,mafke,,,,,5,notharmonic,1.9,,z,nw,,,,,,,
,,,,,,,,,,,581702,,001,2024-02-15_14h07.47.619,VH_new_version2,2023.2.3,MacIntel,58.82352941,493.769,494.769,,,,,,,,,,,,,,,,,,,,,,,,,,494.769,495.335,z,1,0.548,,495.335,495.335,,0,218,218,209,1,210,soğkal,,,,,6,harmonic,2.1,,z,nw,,,,,,,
,,,,,,,,,,,581702,,001,2024-02-15_14h07.47.619,VH_new_version2,2023.2.3,MacIntel,58.82352941,495.336,496.335,,,,,,,,,,,,,,,,,,,,,,,,,,496.335,496.802,z,1,0.447,,496.802,496.802,,0,219,219,266,1,267,ebvace,,,,,6,notharmonic,2.95,,z,nw,,,,,,,
,,,,,,,,,,,581702,,001,2024-02-15_14h07.47.619,VH_new_version2,2023.2.3,MacIntel,58.82352941,496.803,497.802,,,,,,,,,,,,,,,,,,,,,,,,,,497.802,498.219,z,1,0.395,,498.219,498.219,,0,220,220,206,1,207,teşcik,,,,,6,harmonic,1.9,,z,nw,,,,,,,
,,,,,,,,,,,581702,,001,2024-02-15_14h07.47.619,VH_new_version2,2023.2.3,MacIntel,58.82352941,498.219,499.219,,,,,,,,,,,,,,,,,,,,,,,,,,499.219,499.852,m,1,0.616,,499.852,499.852,,0,221,221,2,1,3,iğne,515,23.3996,455,0.0497,4,harmonic,1.65,4.369208434,m,w,,,,,,,
,,,,,,,,,,,581702,,001,2024-02-15_14h07.47.619,VH_new_version2,2023.2.3,MacIntel,58.82352941,499.853,500.852,,,,,,,,,,,,,,,,,,,,,,,,,,500.852,501.586,z,1,0.712,,501.586,501.586,,0,222,222,239,1,240,kanel,,,,,5,notharmonic,1.9,,z,nw,,,,,,,
,,,,,,,,,,,581702,,001,2024-02-15_14h07.47.619,VH_new_version2,2023.2.3,MacIntel,58.82352941,501.586,502.585,,,,,,,,,,,,,,,,,,,,,,,,,,502.586,503.169,z,1,0.567,,503.169,503.169,,0,223,223,186,1,187,erbik,,,,,5,harmonic,1.75,,z,nw,,,,,,,
,,,,,,,,,,,581702,,001,2024-02-15_14h07.47.619,VH_new_version2,2023.2.3,MacIntel,58.82352941,503.17,504.169,,,,,,,,,,,,,,,,,,,,,,,,,,504.169,504.802,m,1,0.617,,504.802,504.803,,0,224,224,6,1,7,avuç,729,33.1229,659,0.072,4,harmonic,1.85,4.520128353,m,w,,,,,,,
,,,,,,,,,,,581702,,001,2024-02-15_14h07.47.619,VH_new_version2,2023.2.3,MacIntel,58.82352941,504.804,505.802,,,,,,,,,,,,,,,,,,,,,,,,,,505.802,506.404,m,1,0.583,,506.404,506.404,,0,225,225,92,1,93,yarın,3440,156.3,3222,0.3522,5,harmonic,1,5.193958978,m,w,,,,,,,
,,,,,,,,,,,581702,,001,2024-02-15_14h07.47.619,VH_new_version2,2023.2.3,MacIntel,58.82352941,506.404,507.402,,,,,,,,,,,,,,,,,,,,,,,,,,507.402,508.102,z,1,0.68,,508.102,508.102,,0,226,226,181,1,182,masus,,,,,5,harmonic,1.7,,z,nw,,,,,,,
,,,,,,,,,,,581702,,001,2024-02-15_14h07.47.619,VH_new_version2,2023.2.3,MacIntel,58.82352941,508.103,509.102,,,,,,,,,,,,,,,,,,,,,,,,,,509.102,509.619,m,1,0.497,,509.619,509.619,,0,227,227,42,1,43,şeker,4708,213.9128,4170,0.4559,5,harmonic,1.6,5.330236772,m,w,,,,,,,
,,,,,,,,,,,581702,,001,2024-02-15_14h07.47.619,VH_new_version2,2023.2.3,MacIntel,58.82352941,509.62,510.619,,,,,,,,,,,,,,,,,,,,,,,,,,510.619,511.536,z,1,0.902,,511.536,511.536,,0,228,228,244,1,245,kimık,,,,,5,notharmonic,2,,z,nw,,,,,,,
,,,,,,,,,,,581702,,001,2024-02-15_14h07.47.619,VH_new_version2,2023.2.3,MacIntel,58.82352941,511.537,512.536,,,,,,,,,,,,,,,,,,,,,,,,,,512.536,513.102,z,1,0.548,,513.103,513.103,,0,229,229,154,1,155,afap,,,,,4,harmonic,1.7,,z,nw,,,,,,,
,,,,,,,,,,,581702,,001,2024-02-15_14h07.47.619,VH_new_version2,2023.2.3,MacIntel,58.82352941,513.103,514.102,,,,,,,,,,,,,,,,,,,,,,,,,,514.102,514.669,z,1,0.55,,514.669,514.67,,0,230,230,212,1,213,yeryek,,,,,6,harmonic,1.9,,z,nw,,,,,,,
,,,,,,,,,,,581702,,001,2024-02-15_14h07.47.619,VH_new_version2,2023.2.3,MacIntel,58.82352941,514.67,515.669,,,,,,,,,,,,,,,,,,,,,,,,,,515.669,516.336,m,1,0.653,,516.336,516.336,,0,231,231,59,1,60,zengin,2193,99.6412,2015,0.2203,6,harmonic,1.65,4.998438949,m,w,,,,,,,
,,,,,,,,,,,581702,,001,2024-02-15_14h07.47.619,VH_new_version2,2023.2.3,MacIntel,58.82352941,516.336,517.336,,,,,,,,,,,,,,,,,,,,,,,,,,517.336,518.019,z,1,0.667,,518.019,518.02,,0,232,232,230,1,231,asez,,,,,4,notharmonic,1.9,,z,nw,,,,,,,
,,,,,,,,,,,581702,,001,2024-02-15_14h07.47.619,VH_new_version2,2023.2.3,MacIntel,58.82352941,518.02,519.019,,,,,,,,,,,,,,,,,,,,,,,,,,519.019,519.685,m,1,0.647,,519.685,519.686,,0,233,233,0,1,1,ödev,191,8.6783,175,0.0191,4,harmonic,1.6,3.938434659,m,w,,,,,,,
,,,,,,,,,,,581702,,001,2024-02-15_14h07.47.619,VH_new_version2,2023.2.3,MacIntel,58.82352941,519.686,520.686,,,,,,,,,,,,,,,,,,,,,,,,,,520.686,521.419,z,1,0.713,,521.419,521.42,,0,234,234,207,1,208,dendek,,,,,6,harmonic,1.8,,z,nw,,,,,,,
,,,,,,,,,,,581702,,001,2024-02-15_14h07.47.619,VH_new_version2,2023.2.3,MacIntel,58.82352941,521.42,522.419,,,,,,,,,,,,,,,,,,,,,,,,,,522.419,523.019,z,1,0.578,,523.019,523.019,,0,235,235,166,1,167,dokoş,,,,,5,harmonic,2,,z,nw,,,,,,,
,,,,,,,,,,,581702,,001,2024-02-15_14h07.47.619,VH_new_version2,2023.2.3,MacIntel,58.82352941,523.02,524.019,,,,,,,,,,,,,,,,,,,,,,,,,,524.02,524.653,m,1,0.618,,524.653,524.653,,0,236,236,86,1,87,takım,4370,198.5555,3726,0.4073,5,harmonic,1,5.297881922,m,w,,,,,,,
,,,,,,,,,,,581702,,001,2024-02-15_14h07.47.619,VH_new_version2,2023.2.3,MacIntel,58.82352941,524.653,525.653,,,,,,,,,,,,,,,,,,,,,,,,,,525.653,526.319,z,1,0.646,,526.32,526.32,,0,237,237,177,1,178,akapı,,,,,5,harmonic,1.8,,z,nw,,,,,,,
,,,,,,,,,,,581702,,001,2024-02-15_14h07.47.619,VH_new_version2,2023.2.3,MacIntel,58.82352941,526.32,527.32,,,,,,,,,,,,,,,,,,,,,,,,,,527.32,527.903,z,1,0.565,,527.903,527.903,,0,238,238,173,1,174,pirbe,,,,,5,harmonic,1.9,,z,nw,,,,,,,
,,,,,,,,,,,581702,,001,2024-02-15_14h07.47.619,VH_new_version2,2023.2.3,MacIntel,58.82352941,527.903,528.903,,,,,,,,,,,,,,,,,,,,,,,,,,528.903,529.52,m,1,0.596,,529.52,529.52,,0,239,239,37,1,38,cümle,1911,86.8283,1765,0.193,5,harmonic,1.85,4.938661298,m,w,,,,,,,
,,,,,,,,,,,581702,,001,2024-02-15_14h07.47.619,VH_new_version2,2023.2.3,MacIntel,58.82352941,529.521,530.52,,,,,,,,,,,,,,,,,,,,,,,,,,530.52,531.503,m,1,0.963,,531.503,531.503,,0,240,240,136,1,137,tebrik,1117,50.7521,1102,0.1205,6,harmonic,1.85,4.705454017,m,w,,,,,,,
,,,,,,,,,,,581702,,001,2024-02-15_14h07.47.619,VH_new_version2,2023.2.3,MacIntel,58.82352941,531.504,532.503,,,,,,,,,,,,,,,,,,,,,,,,,,532.503,533.337,z,1,0.812,,533.337,533.337,,0,241,241,220,1,221,nica,,,,,4,notharmonic,1.75,,z,nw,,,,,,,
,,,,,,,,,,,581702,,001,2024-02-15_14h07.47.619,VH_new_version2,2023.2.3,MacIntel,58.82352941,533.338,534.336,,,,,,,,,,,,,,,,,,,,,,,,,,534.337,534.953,m,1,0.596,,534.953,534.954,,0,242,242,79,1,80,erik,376,17.0839,335,0.0366,4,harmonic,1,4.232587021,m,w,,,,,,,
,,,,,,,,,,,581702,,001,2024-02-15_14h07.47.619,VH_new_version2,2023.2.3,MacIntel,58.82352941,534.954,535.953,,,,,,,,,,,,,,,,,,,,,,,,,,535.953,536.636,m,1,0.661,,536.636,536.637,,0,243,243,54,1,55,elbise,883,40.12,786,0.0859,6,harmonic,1.9,4.603360924,m,w,,,,,,,
,,,,,,,,,,,581702,,001,2024-02-15_14h07.47.619,VH_new_version2,2023.2.3,MacIntel,58.82352941,536.637,537.637,,,,,,,,,,,,,,,,,,,,,,,,,,537.637,538.387,m,1,0.729,,538.387,538.387,,0,244,244,103,1,104,resim,2506,113.8627,2188,0.2392,5,harmonic,1.4,5.056381478,m,w,,,,,,,
,,,,,,,,,,,581702,,001,2024-02-15_14h07.47.619,VH_new_version2,2023.2.3,MacIntel,58.82352941,538.387,539.386,,,,,,,,,,,,,,,,,,,,,,,,,,539.386,539.87,m,1,0.461,,539.87,539.87,,0,245,245,51,1,52,yaprak,739,33.5772,678,0.0741,6,harmonic,1.7,4.526044478,m,w,,,,,,,
,,,,,,,,,,,581702,,001,2024-02-15_14h07.47.619,VH_new_version2,2023.2.3,MacIntel,58.82352941,539.87,540.87,,,,,,,,,,,,,,,,,,,,,,,,,,540.87,541.37,m,1,0.488,,541.37,541.37,,0,246,246,85,1,86,güneş,4371,198.6009,3610,0.3946,5,harmonic,1.7,5.297981212,m,w,,,,,,,
,,,,,,,,,,,581702,,001,2024-02-15_14h07.47.619,VH_new_version2,2023.2.3,MacIntel,58.82352941,541.371,542.37,,,,,,,,,,,,,,,,,,,,,,,,,,542.37,543.036,z,1,0.644,,543.036,543.036,,0,247,247,180,1,181,finer,,,,,5,harmonic,1.65,,z,nw,,,,,,,
,,,,,,,,,,,581702,,001,2024-02-15_14h07.47.619,VH_new_version2,2023.2.3,MacIntel,58.82352941,543.037,544.037,,,,,,,,,,,,,,,,,,,,,,,,,,544.037,544.769,z,1,0.712,,544.769,544.769,,0,248,248,281,1,282,tashin,,,,,6,notharmonic,1.85,,z,nw,,,,,,,
,,,,,,,,,,,581702,,001,2024-02-15_14h07.47.619,VH_new_version2,2023.2.3,MacIntel,58.82352941,544.769,545.77,,,,,,,,,,,,,,,,,,,,,,,,,,545.77,546.537,z,1,0.748,,546.537,546.537,,0,249,249,229,1,230,irar,,,,,4,notharmonic,1.65,,z,nw,,,,,,,
,,,,,,,,,,,581702,,001,2024-02-15_14h07.47.619,VH_new_version2,2023.2.3,MacIntel,58.82352941,546.538,547.537,,,,,,,,,,,,,,,,,,,,,,,,,,547.537,548.12,m,1,0.565,,548.12,548.121,,0,250,250,128,1,129,merkez,1445,65.6551,1255,0.1372,6,harmonic,1.8,4.817268467,m,w,,,,,,,
,,,,,,,,,,,581702,,001,2024-02-15_14h07.47.619,VH_new_version2,2023.2.3,MacIntel,58.82352941,548.121,549.12,,,,,,,,,,,,,,,,,,,,,,,,,,549.12,549.653,m,1,0.512,,549.653,549.653,,0,251,251,9,1,10,uçak,894,40.6198,752,0.0822,4,harmonic,1.4,4.608737781,m,w,,,,,,,
,,,,,,,,,,,581702,,001,2024-02-15_14h07.47.619,VH_new_version2,2023.2.3,MacIntel,58.82352941,549.654,550.654,,,,,,,,,,,,,,,,,,,,,,,,,,550.654,551.503,z,1,0.837,,551.504,551.504,,0,252,252,188,1,189,yahat,,,,,5,harmonic,1.8,,z,nw,,,,,,,
,,,,,,,,,,,581702,,001,2024-02-15_14h07.47.619,VH_new_version2,2023.2.3,MacIntel,58.82352941,551.504,552.504,,,,,,,,,,,,,,,,,,,,,,,,,,552.504,553.137,z,1,0.62,,553.137,553.137,,0,253,253,151,1,152,uban,,,,,4,harmonic,1.35,,z,nw,,,,,,,
,,,,,,,,,,,581702,,001,2024-02-15_14h07.47.619,VH_new_version2,2023.2.3,MacIntel,58.82352941,553.138,554.137,,,,,,,,,,,,,,,,,,,,,,,,,,554.137,554.787,m,1,0.628,,554.787,554.787,,0,254,254,124,1,125,sultan,1756,79.7857,1368,0.1496,6,harmonic,1.55,4.90192506,m,w,,,,,,,
,,,,,,,,,,,581702,,001,2024-02-15_14h07.47.619,VH_new_version2,2023.2.3,MacIntel,58.82352941,554.788,555.787,,,,,,,,,,,,,,,,,,,,,,,,,,555.788,556.338,m,1,0.528,,556.338,556.338,,0,255,255,120,1,121,yedi,1880,85.4197,1729,0.189,4,harmonic,1,4.931558042,m,w,,,,,,,
,,,,,,,,,,,581702,,001,2024-02-15_14h07.47.619,VH_new_version2,2023.2.3,MacIntel,58.82352941,556.34,557.337,,,,,,,,,,,,,,,,,,,,,,,,,,557.337,557.854,m,1,0.496,,557.854,557.855,,0,256,256,43,1,44,bilgi,5981,271.7529,5353,0.5852,5,harmonic,1.5,5.434174187,m,w,,,,,,,
,,,,,,,,,,,581702,,001,2024-02-15_14h07.47.619,VH_new_version2,2023.2.3,MacIntel,58.82352941,557.856,558.854,,,,,,,,,,,,,,,,,,,,,,,,,,558.854,559.354,m,1,0.477,,559.354,559.354,,0,257,257,39,1,40,mayıs,2630,119.4968,2294,0.2508,5,harmonic,1.75,5.077356275,m,w,,,,,,,
,,,,,,,,,,,581702,,001,2024-02-15_14h07.47.619,VH_new_version2,2023.2.3,MacIntel,58.82352941,559.355,560.354,,,,,,,,,,,,,,,,,,,,,,,,,,560.354,560.937,m,1,0.563,,560.937,560.938,,0,258,258,115,1,116,doğu,2105,95.6429,1823,0.1993,4,harmonic,1.05,4.980652736,m,w,,,,,,,
,,,,,,,,,,,581702,,001,2024-02-15_14h07.47.619,VH_new_version2,2023.2.3,MacIntel,58.82352941,560.938,561.938,,,,,,,,,,,,,,,,,,,,,,,,,,561.938,562.403,m,1,0.446,,562.403,562.404,,0,259,259,68,1,69,devlet,5766,261.9842,4854,0.5306,6,harmonic,1.65,5.4182751,m,w,,,,,,,
,,,,,,,,,,,581702,,001,2024-02-15_14h07.47.619,VH_new_version2,2023.2.3,MacIntel,58.82352941,562.404,563.404,,,,,,,,,,,,,,,,,,,,,,,,,,563.404,563.804,m,1,0.379,,563.804,563.804,,0,260,260,90,1,91,insan,3684,167.3864,3486,0.3811,5,harmonic,1.55,5.223720169,m,w,,,,,,,
,,,,,,,,,,,581702,,001,2024-02-15_14h07.47.619,VH_new_version2,2023.2.3,MacIntel,58.82352941,563.805,564.804,,,,,,,,,,,,,,,,,,,,,,,,,,564.804,565.321,m,1,0.498,,565.321,565.321,,0,261,261,141,1,142,fındık,865,39.3022,769,0.0841,6,harmonic,1.95,4.594416861,m,w,,,,,,,
,,,,,,,,,,,581702,,001,2024-02-15_14h07.47.619,VH_new_version2,2023.2.3,MacIntel,58.82352941,565.322,566.321,,,,,,,,,,,,,,,,,,,,,,,,,,566.321,566.971,m,1,0.631,,566.971,566.972,,0,262,262,93,1,94,olay,3415,155.1641,3179,0.3475,4,harmonic,1.5,5.190791247,m,w,,,,,,,
,,,,,,,,,,,581702,,001,2024-02-15_14h07.47.619,VH_new_version2,2023.2.3,MacIntel,58.82352941,566.973,567.971,,,,,,,,,,,,,,,,,,,,,,,,,,567.971,568.638,z,1,0.645,,568.638,568.638,,0,263,263,185,1,186,birpi,,,,,5,harmonic,1.75,,z,nw,,,,,,,
,,,,,,,,,,,581702,,001,2024-02-15_14h07.47.619,VH_new_version2,2023.2.3,MacIntel,58.82352941,568.638,569.638,,,,,,,,,,,,,,,,,,,,,,,,,,569.638,570.188,z,1,0.53,,570.188,570.188,,0,264,264,214,1,215,dera,,,,,4,notharmonic,1.2,,z,nw,,,,,,,
,,,,,,,,,,,581702,,001,2024-02-15_14h07.47.619,VH_new_version2,2023.2.3,MacIntel,58.82352941,570.188,571.188,,,,,,,,,,,,,,,,,,,,,,,,,,571.188,571.671,z,1,0.466,,571.671,571.671,,0,265,265,236,1,237,alte,,,,,4,notharmonic,1.7,,z,nw,,,,,,,
,,,,,,,,,,,581702,,001,2024-02-15_14h07.47.619,VH_new_version2,2023.2.3,MacIntel,58.82352941,571.672,572.671,,,,,,,,,,,,,,,,,,,,,,,,,,572.671,573.321,m,1,0.63,,573.321,573.321,,0,266,266,113,1,114,görev,2159,98.0964,1998,0.2184,5,harmonic,1.75,4.99165307,m,w,,,,,,,
,,,,,,,,,,,581702,,001,2024-02-15_14h07.47.619,VH_new_version2,2023.2.3,MacIntel,58.82352941,573.322,574.321,,,,,,,,,,,,,,,,,,,,,,,,,,574.321,574.805,m,1,0.463,,574.805,574.805,,0,267,267,82,1,83,oyun,4926,223.8179,3995,0.4367,4,harmonic,1,5.349894817,m,w,,,,,,,
,,,,,,,,,,,581702,,001,2024-02-15_14h07.47.619,VH_new_version2,2023.2.3,MacIntel,58.82352941,574.806,575.804,,,,,,,,,,,,,,,,,,,,,,,,,,575.804,576.404,m,1,0.578,,576.405,576.405,,0,268,268,98,1,99,bilim,2828,128.4931,2382,0.2604,5,harmonic,1,5.108879807,m,w,,,,,,,
,,,,,,,,,,,581702,,001,2024-02-15_14h07.47.619,VH_new_version2,2023.2.3,MacIntel,58.82352941,576.406,577.404,,,,,,,,,,,,,,,,,,,,,,,,,,577.404,578.238,z,1,0.812,,578.238,578.238,,0,269,269,274,1,275,çanese,,,,,6,notharmonic,2,,z,nw,,,,,,,
,,,,,,,,,,,581702,,001,2024-02-15_14h07.47.619,VH_new_version2,2023.2.3,MacIntel,58.82352941,578.239,579.238,,,,,,,,,,,,,,,,,,,,,,,,,,579.238,579.755,m,1,0.504,,579.755,579.755,,0,270,270,55,1,56,zeytin,904,41.0742,758,0.0829,6,harmonic,1.85,4.613569113,m,w,,,,,,,
,,,,,,,,,,,581702,,001,2024-02-15_14h07.47.619,VH_new_version2,2023.2.3,MacIntel,58.82352941,579.755,580.755,,,,,,,,,,,,,,,,,,,,,,,,,,580.755,581.238,m,1,0.465,,581.238,581.238,,0,271,271,77,1,78,çanta,639,29.0336,551,0.0602,5,harmonic,1.6,4.462900889,m,w,,,,,,,
,,,,,,,,,,,581702,,001,2024-02-15_14h07.47.619,VH_new_version2,2023.2.3,MacIntel,58.82352941,581.239,582.238,,,,,,,,,,,,,,,,,,,,,,,,,,582.238,582.938,z,1,0.679,,582.938,582.938,,0,272,272,203,1,204,yağcır,,,,,6,harmonic,1.9,,z,nw,,,,,,,
,,,,,,,,,,,581702,,001,2024-02-15_14h07.47.619,VH_new_version2,2023.2.3,MacIntel,58.82352941,582.939,583.938,,,,,,,,,,,,,,,,,,,,,,,,,,583.938,584.488,z,1,0.53,,584.488,584.488,,0,273,273,153,1,154,uyko,,,,,4,harmonic,1.95,,z,nw,,,,,,,
,,,,,,,,,,,581702,,001,2024-02-15_14h07.47.619,VH_new_version2,2023.2.3,MacIntel,58.82352941,584.489,585.488,,,,,,,,,,,,,,,,,,,,,,,,,,585.488,586.021,z,1,0.512,,586.021,586.022,,0,274,274,162,1,163,möre,,,,,4,harmonic,1.65,,z,nw,,,,,,,
,,,,,,,,,,,581702,,001,2024-02-15_14h07.47.619,VH_new_version2,2023.2.3,MacIntel,58.82352941,586.022,587.021,,,,,,,,,,,,,,,,,,,,,,,,,,587.021,587.505,z,1,0.463,,587.505,587.505,,0,275,275,237,1,238,masem,,,,,5,notharmonic,1.7,,z,nw,,,,,,,
,,,,,,,,,,,581702,,001,2024-02-15_14h07.47.619,VH_new_version2,2023.2.3,MacIntel,58.82352941,587.506,588.505,,,,,,,,,,,,,,,,,,,,,,,,,,588.505,589.172,m,1,0.647,,589.172,589.172,,0,276,276,108,1,109,hayvan,2363,107.3653,1894,0.2071,6,harmonic,1.5,5.030863942,m,w,,,,,,,
,,,,,,,,,,,581702,,001,2024-02-15_14h07.47.619,VH_new_version2,2023.2.3,MacIntel,58.82352941,589.173,590.172,,,,,,,,,,,,,,,,,,,,,,,,,,590.172,590.988,m,1,0.795,,590.988,590.988,,0,277,277,118,1,119,fırsat,1952,88.6911,1863,0.2037,6,harmonic,1.85,4.947880041,m,w,,,,,,,
,,,,,,,,,,,581702,,001,2024-02-15_14h07.47.619,VH_new_version2,2023.2.3,MacIntel,58.82352941,590.989,591.988,,,,,,,,,,,,,,,,,,,,,,,,,,591.988,592.621,z,1,0.613,,592.622,592.622,,0,278,278,198,1,199,tenlek,,,,,6,harmonic,1.85,,z,nw,,,,,,,
,,,,,,,,,,,581702,,001,2024-02-15_14h07.47.619,VH_new_version2,2023.2.3,MacIntel,58.82352941,592.622,593.622,,,,,,,,,,,,,,,,,,,,,,,,,,593.622,594.238,z,1,0.6,,594.238,594.238,,0,279,279,175,1,176,sakça,,,,,5,harmonic,1.55,,z,nw,,,,,,,
,,,,,,,,,,,581702,,001,2024-02-15_14h07.47.619,VH_new_version2,2023.2.3,MacIntel,58.82352941,594.239,595.238,,,,,,,,,,,,,,,,,,,,,,,,,,595.238,595.822,m,1,0.563,,595.822,595.822,,0,280,280,13,1,14,kedi,1646,74.7877,1394,0.1524,4,harmonic,1.1,4.873830177,m,w,,,,,,,
,,,,,,,,,,,581702,,001,2024-02-15_14h07.47.619,VH_new_version2,2023.2.3,MacIntel,58.82352941,595.823,596.822,,,,,,,,,,,,,,,,,,,,,,,,,,596.822,597.438,z,1,0.601,,597.439,597.439,,0,281,281,227,1,228,esta,,,,,4,notharmonic,1.7,,z,nw,,,,,,,
,,,,,,,,,,,581702,,001,2024-02-15_14h07.47.619,VH_new_version2,2023.2.3,MacIntel,58.82352941,597.439,598.438,,,,,,,,,,,,,,,,,,,,,,,,,,598.439,599.005,z,1,0.546,,599.005,599.005,,0,282,282,168,1,169,bovon,,,,,5,harmonic,2,,z,nw,,,,,,,
,,,,,,,,,,,581702,,001,2024-02-15_14h07.47.619,VH_new_version2,2023.2.3,MacIntel,58.82352941,599.006,600.005,,,,,,,,,,,,,,,,,,,,,,,,,,600.005,600.639,m,1,0.613,,600.639,607.556,space,0,283,283,131,1,132,doğa,1381,62.7472,1180,0.129,4,harmonic,1,4.797594351,m,w,6.898,,,,,,
,,,,,,,,,,,581702,,001,2024-02-15_14h07.47.619,VH_new_version2,2023.2.3,MacIntel,58.82352941,,,,,,,,,,,,,,,,,,,,,,,,,,,,,,,,,,,,,,,,,,,,,,,,,,,,,,,,607.557,609.556,space,1.973,