welcome.started,welcome.stopped,key_resp_welc.keys,key_resp_welc.rt,key_resp_welc.duration,trials_2.thisRepN,trials_2.thisTrialN,trials_2.thisN,trials_2.thisIndex,trials_2.ran,Introduction,participant,Email Adresiniz,session,date,expName,psychopyVersion,OS,frameRate,fix.started,fix.stopped,Studypractice.started,Studypractice.stopped,key_resp_p.keys,key_resp_p.corr,key_resp_p.rt,key_resp_p.duration,rt,corr,FB.started,FB.stopped,trials.thisRepN,trials.thisTrialN,trials.thisN,trials.thisIndex,trials.ran,item_nr_p,target_p,isHarmonic_p,target_cond_p,CorrAns_p,inst2.started,inst2.stopped,key_resp_xx.keys,key_resp_xx.rt,key_resp_xx.duration,TestTrial.started,TestTrial.stopped,key_respTest.keys,key_respTest.corr,key_respTest.rt,key_respTest.duration,Pause.started,Pause.stopped,key_resp_pause.keys,trials_3.thisRepN,trials_3.thisTrialN,trials_3.thisN,trials_3.thisIndex,trials_3.ran,item_nr,target,BlogFreq,BlogFreqPm,BlogCD,BlogCDPc,WordLength,isHarmonic,old20,Zipf,CorrAns,word_cond,key_resp_pause.rt,key_resp_pause.duration,Bye.started,Bye.stopped,key_resp_bye.keys,key_resp_bye.rt,key_resp_bye.duration
0.0357,1.8684,space,1.8239,,0,0,0,0,1,"Deneye hoş geldiniz,

Devam etmek için BOŞLUK tuşuna basınız.",878415,,001,2024-02-17_22h37.14.107,VH_new_version2,2023.2.3,Win32,59.88023952,,,,,,,,,,,,,,,,,,,,,,,,,,,,,,,,,,,,,,,,,,,,,,,,,,,,,,,,,,,,
1.8686,2.4015,space,0.5174,,0,1,1,1,1,"Bu çalışma Valencia Üniversitesi kapsamında yürütülmektedir. Deneydeki göreviniz, ekrana çıkacak Türkçe sözcüklerin kelime olup olmadığını belirlemenizdir. Eğer sözcük gerçek bir kelime ise ""m"" tuşuna, değil ise ""z"" tuşuna basınız.   

Devam etmek için BOŞLUK tuşuna basınız.",878415,,001,2024-02-17_22h37.14.107,VH_new_version2,2023.2.3,Win32,59.88023952,,,,,,,,,,,,,,,,,,,,,,,,,,,,,,,,,,,,,,,,,,,,,,,,,,,,,,,,,,,,
2.4018,3.0663,space,0.6492,,0,2,2,2,1,"Her sözcük için en fazla iki saniyede cevap vermeniz beklenmektedir. Aksi takdirde deney bir sonraki sözcük ile devam eder. 
Bu çalışmada oldukça hızlı ve doğru cevaplama yapmanız beklenmektedir.

Devam etmek için BOŞLUK tuşuna basınız.",878415,,001,2024-02-17_22h37.14.107,VH_new_version2,2023.2.3,Win32,59.88023952,,,,,,,,,,,,,,,,,,,,,,,,,,,,,,,,,,,,,,,,,,,,,,,,,,,,,,,,,,,,
3.0666,3.3474,space,0.2623,,0,3,3,3,1,"Çalışmaya başlamadan önce ufak bir pratik yer almaktadır.
Kelimedir: ""m""
Kelime değildir: ""z""

Pratik teste başlamak için BOŞLUK tuşuna basınız. ",878415,,001,2024-02-17_22h37.14.107,VH_new_version2,2023.2.3,Win32,59.88023952,,,,,,,,,,,,,,,,,,,,,,,,,,,,,,,,,,,,,,,,,,,,,,,,,,,,,,,,,,,,
,,,,,,,,,,,878415,,001,2024-02-17_22h37.14.107,VH_new_version2,2023.2.3,Win32,59.88023952,3.3582,4.3474,4.3475,23.2978,z,1,18.9305,,18.9305,1,23.2979,24.2999,0,0,0,12,1,13,tahip,notharmonic,nw,z,,,,,,,,,,,,,,,,,,,,,,,,,,,,,,,,,,,,,,
,,,,,,,,,,,878415,,001,2024-02-17_22h37.14.107,VH_new_version2,2023.2.3,Win32,59.88023952,24.3005,25.2999,25.3,25.8338,z,1,0.5182,,0.5182,1,25.8338,26.8316,0,1,1,23,1,24,zarim,notharmonic,nw,z,,,,,,,,,,,,,,,,,,,,,,,,,,,,,,,,,,,,,,
,,,,,,,,,,,878415,,001,2024-02-17_22h37.14.107,VH_new_version2,2023.2.3,Win32,59.88023952,26.832,27.8323,27.8323,28.3668,z,1,0.517,,0.517,1,28.3668,29.3665,0,2,2,21,1,22,güçli,harmonic,nw,z,,,,,,,,,,,,,,,,,,,,,,,,,,,,,,,,,,,,,,
,,,,,,,,,,,878415,,001,2024-02-17_22h37.14.107,VH_new_version2,2023.2.3,Win32,59.88023952,29.3669,30.3633,30.3637,30.7986,z,0,0.415,,0.415,0,30.7986,31.7974,0,3,3,6,1,7,sebep,harmonic,word,m,,,,,,,,,,,,,,,,,,,,,,,,,,,,,,,,,,,,,,
,,,,,,,,,,,878415,,001,2024-02-17_22h37.14.107,VH_new_version2,2023.2.3,Win32,59.88023952,31.7984,32.7968,32.7971,33.4327,m,1,0.6161,,0.6161,1,33.4327,34.43,0,4,4,1,1,2,veri,harmonic,word,m,,,,,,,,,,,,,,,,,,,,,,,,,,,,,,,,,,,,,,
,,,,,,,,,,,878415,,001,2024-02-17_22h37.14.107,VH_new_version2,2023.2.3,Win32,59.88023952,34.431,35.4297,35.43,35.9829,m,1,0.533,,0.533,1,35.9829,36.9799,0,5,5,8,1,9,bilim,harmonic,word,m,,,,,,,,,,,,,,,,,,,,,,,,,,,,,,,,,,,,,,
,,,,,,,,,,,878415,,001,2024-02-17_22h37.14.107,VH_new_version2,2023.2.3,Win32,59.88023952,36.9819,37.9826,37.9826,38.6671,m,1,0.6678,,0.6678,1,38.6672,39.6667,0,6,6,2,1,3,yardım,harmonic,word,m,,,,,,,,,,,,,,,,,,,,,,,,,,,,,,,,,,,,,,
,,,,,,,,,,,878415,,001,2024-02-17_22h37.14.107,VH_new_version2,2023.2.3,Win32,59.88023952,39.6671,40.6633,40.6636,41.4129,m,1,0.7232,,0.7232,1,41.4131,42.4163,0,7,7,9,1,10,zarar,harmonic,word,m,,,,,,,,,,,,,,,,,,,,,,,,,,,,,,,,,,,,,,
,,,,,,,,,,,878415,,001,2024-02-17_22h37.14.107,VH_new_version2,2023.2.3,Win32,59.88023952,42.4166,43.4131,43.4134,44.0128,z,1,0.5695,,0.5695,1,44.0131,45.0131,0,8,8,13,1,14,orat,harmonic,nw,z,,,,,,,,,,,,,,,,,,,,,,,,,,,,,,,,,,,,,,
,,,,,,,,,,,878415,,001,2024-02-17_22h37.14.107,VH_new_version2,2023.2.3,Win32,59.88023952,45.0152,46.0128,46.0128,46.632,z,1,0.5983,,0.5983,1,46.632,47.6307,0,9,9,16,1,17,ihlot,notharmonic,nw,z,,,,,,,,,,,,,,,,,,,,,,,,,,,,,,,,,,,,,,
,,,,,,,,,,,878415,,001,2024-02-17_22h37.14.107,VH_new_version2,2023.2.3,Win32,59.88023952,47.6313,48.6295,48.6296,49.2463,m,1,0.5843,,0.5843,1,49.2465,50.2464,0,10,10,0,1,1,hazır,harmonic,word,m,,,,,,,,,,,,,,,,,,,,,,,,,,,,,,,,,,,,,,
,,,,,,,,,,,878415,,001,2024-02-17_22h37.14.107,VH_new_version2,2023.2.3,Win32,59.88023952,50.2483,51.2462,51.2465,51.7178,m,1,0.4505,,0.4505,1,51.7178,52.7135,0,11,11,5,1,6,gizli,harmonic,word,m,,,,,,,,,,,,,,,,,,,,,,,,,,,,,,,,,,,,,,
,,,,,,,,,,,878415,,001,2024-02-17_22h37.14.107,VH_new_version2,2023.2.3,Win32,59.88023952,52.715,53.7133,53.7137,54.3465,z,1,0.6027,,0.6027,1,54.3468,55.3465,0,12,12,19,1,20,mımal,harmonic,nw,z,,,,,,,,,,,,,,,,,,,,,,,,,,,,,,,,,,,,,,
,,,,,,,,,,,878415,,001,2024-02-17_22h37.14.107,VH_new_version2,2023.2.3,Win32,59.88023952,55.3477,56.3463,56.3465,56.9301,z,1,0.5573,,0.5573,1,56.9303,57.9296,0,13,13,20,1,21,yoğuk,harmonic,nw,z,,,,,,,,,,,,,,,,,,,,,,,,,,,,,,,,,,,,,,
,,,,,,,,,,,878415,,001,2024-02-17_22h37.14.107,VH_new_version2,2023.2.3,Win32,59.88023952,57.9317,58.9297,58.9299,59.4628,z,1,0.5006,,0.5006,1,59.4632,60.4629,0,14,14,14,1,15,mahne,notharmonic,nw,z,,,,,,,,,,,,,,,,,,,,,,,,,,,,,,,,,,,,,,
,,,,,,,,,,,878415,,001,2024-02-17_22h37.14.107,VH_new_version2,2023.2.3,Win32,59.88023952,60.465,61.4634,61.4637,62.0466,z,1,0.5594,,0.5594,1,62.0468,63.0461,0,15,15,15,1,16,geki,harmonic,nw,z,,,,,,,,,,,,,,,,,,,,,,,,,,,,,,,,,,,,,,
,,,,,,,,,,,878415,,001,2024-02-17_22h37.14.107,VH_new_version2,2023.2.3,Win32,59.88023952,63.0476,64.0465,64.0469,64.6508,z,0,0.5844,,0.5844,0,64.6509,65.647,0,16,16,10,1,11,nefret,harmonic,word,m,,,,,,,,,,,,,,,,,,,,,,,,,,,,,,,,,,,,,,
,,,,,,,,,,,878415,,001,2024-02-17_22h37.14.107,VH_new_version2,2023.2.3,Win32,59.88023952,65.6487,66.6465,66.6467,67.4464,m,1,0.7764,,0.7764,1,67.4466,68.4472,0,17,17,4,1,5,soğuk,harmonic,word,m,,,,,,,,,,,,,,,,,,,,,,,,,,,,,,,,,,,,,,
,,,,,,,,,,,878415,,001,2024-02-17_22h37.14.107,VH_new_version2,2023.2.3,Win32,59.88023952,68.4486,69.4476,69.4479,70.0968,z,1,0.6249,,0.6249,1,70.097,71.1002,0,18,18,22,1,23,gizım,notharmonic,nw,z,,,,,,,,,,,,,,,,,,,,,,,,,,,,,,,,,,,,,,
,,,,,,,,,,,878415,,001,2024-02-17_22h37.14.107,VH_new_version2,2023.2.3,Win32,59.88023952,71.1005,72.0962,72.0964,73.0129,m,1,0.8872,,0.8872,1,73.0129,74.013,0,19,19,11,1,12,teslim,harmonic,word,m,,,,,,,,,,,,,,,,,,,,,,,,,,,,,,,,,,,,,,
,,,,,,,,,,,878415,,001,2024-02-17_22h37.14.107,VH_new_version2,2023.2.3,Win32,59.88023952,74.0151,75.0131,75.0132,75.6633,z,1,0.6228,,0.6228,1,75.6636,76.6631,0,20,20,18,1,19,pimer,harmonic,nw,z,,,,,,,,,,,,,,,,,,,,,,,,,,,,,,,,,,,,,,
,,,,,,,,,,,878415,,001,2024-02-17_22h37.14.107,VH_new_version2,2023.2.3,Win32,59.88023952,76.6654,77.6629,77.6631,78.2803,z,1,0.5933,,0.5933,1,78.2807,79.2797,0,21,21,17,1,18,pilar,notharmonic,nw,z,,,,,,,,,,,,,,,,,,,,,,,,,,,,,,,,,,,,,,
,,,,,,,,,,,878415,,001,2024-02-17_22h37.14.107,VH_new_version2,2023.2.3,Win32,59.88023952,79.281,80.2797,80.2799,81.001,m,1,0.7004,,0.7004,1,81.001,81.9984,0,22,22,3,1,4,sevgi,harmonic,word,m,,,,,,,,,,,,,,,,,,,,,,,,,,,,,,,,,,,,,,
,,,,,,,,,,,878415,,001,2024-02-17_22h37.14.107,VH_new_version2,2023.2.3,Win32,59.88023952,81.9986,82.997,82.9971,83.5494,z,0,0.5324,,0.5324,0,83.5496,84.5467,0,23,23,7,1,8,oran,harmonic,word,m,,,,,,,,,,,,,,,,,,,,,,,,,,,,,,,,,,,,,,
,,,,,,,,,,,878415,,001,2024-02-17_22h37.14.107,VH_new_version2,2023.2.3,Win32,59.88023952,,,,,,,,,,,,,,,,,,,,,,,84.5488,85.6016,space,1.0341,,,,,,,,,,,,,,,,,,,,,,,,,,,,,,,,,,
,,,,,,,,,,,878415,,001,2024-02-17_22h37.14.107,VH_new_version2,2023.2.3,Win32,59.88023952,85.6458,86.6133,,,,,,,,,,,,,,,,,,,,,,,,,,86.6134,87.2132,m,1,0.5853,,87.2133,87.2142,,0,0,0,41,1,42,hayal,4498,204.3713,4079,0.4459,5,harmonic,1.45,5.310419907,m,w,,,,,,,
,,,,,,,,,,,878415,,001,2024-02-17_22h37.14.107,VH_new_version2,2023.2.3,Win32,59.88023952,87.2156,88.2132,,,,,,,,,,,,,,,,,,,,,,,,,,88.2134,88.8464,z,1,0.6171,,88.8465,88.8467,,0,1,1,183,1,184,çapal,,,,,5,harmonic,1.6,,z,nw,,,,,,,
,,,,,,,,,,,878415,,001,2024-02-17_22h37.14.107,VH_new_version2,2023.2.3,Win32,59.88023952,88.8471,89.8465,,,,,,,,,,,,,,,,,,,,,,,,,,89.8466,90.413,m,1,0.558,,90.4131,90.4133,,0,2,2,117,1,118,çiçek,2071,94.098,1772,0.1937,5,harmonic,1.95,4.973580393,m,w,,,,,,,
,,,,,,,,,,,878415,,001,2024-02-17_22h37.14.107,VH_new_version2,2023.2.3,Win32,59.88023952,90.4137,91.4133,,,,,,,,,,,,,,,,,,,,,,,,,,91.4134,91.963,m,1,0.5363,,91.9631,91.9633,,0,3,3,7,1,8,inci,757,34.3951,686,0.075,4,harmonic,1.05,4.536496576,m,w,,,,,,,
,,,,,,,,,,,878415,,001,2024-02-17_22h37.14.107,VH_new_version2,2023.2.3,Win32,59.88023952,91.9638,92.9632,,,,,,,,,,,,,,,,,,,,,,,,,,92.9633,93.3797,m,1,0.3996,,93.3798,93.3799,,0,4,4,26,1,27,boyun,843,38.3026,777,0.0849,5,harmonic,1.05,4.583228255,m,w,,,,,,,
,,,,,,,,,,,878415,,001,2024-02-17_22h37.14.107,VH_new_version2,2023.2.3,Win32,59.88023952,93.3804,94.3799,,,,,,,,,,,,,,,,,,,,,,,,,,94.3801,94.9131,m,1,0.5249,,94.9132,94.9133,,0,5,5,24,1,25,dokuz,802,36.4397,646,0.0706,5,harmonic,1.55,4.561574793,m,w,,,,,,,
,,,,,,,,,,,878415,,001,2024-02-17_22h37.14.107,VH_new_version2,2023.2.3,Win32,59.88023952,94.9137,95.9131,,,,,,,,,,,,,,,,,,,,,,,,,,95.9132,96.4133,m,0,0.4825,,96.4133,96.4135,,0,6,6,235,1,236,mate,,,,,4,notharmonic,1.65,,z,nw,,,,,,,
,,,,,,,,,,,878415,,001,2024-02-17_22h37.14.107,VH_new_version2,2023.2.3,Win32,59.88023952,96.414,97.4129,,,,,,,,,,,,,,,,,,,,,,,,,,97.413,98.2465,z,1,0.8137,,98.2465,98.2467,,0,7,7,191,1,192,pedrek,,,,,6,harmonic,2,,z,nw,,,,,,,
,,,,,,,,,,,878415,,001,2024-02-17_22h37.14.107,VH_new_version2,2023.2.3,Win32,59.88023952,98.2471,99.2466,,,,,,,,,,,,,,,,,,,,,,,,,,99.2467,99.9632,z,1,0.6988,,99.9634,99.9635,,0,8,8,228,1,229,idna,,,,,4,notharmonic,1.8,,z,nw,,,,,,,
,,,,,,,,,,,878415,,001,2024-02-17_22h37.14.107,VH_new_version2,2023.2.3,Win32,59.88023952,99.964,100.9631,,,,,,,,,,,,,,,,,,,,,,,,,,100.9631,101.7632,z,1,0.7863,,101.7632,101.7633,,0,9,9,207,1,208,dendek,,,,,6,harmonic,1.8,,z,nw,,,,,,,
,,,,,,,,,,,878415,,001,2024-02-17_22h37.14.107,VH_new_version2,2023.2.3,Win32,59.88023952,101.7638,102.7632,,,,,,,,,,,,,,,,,,,,,,,,,,102.7634,103.3301,m,1,0.5489,,103.3302,103.3304,,0,10,10,6,1,7,avuç,729,33.1229,659,0.072,4,harmonic,1.85,4.520128353,m,w,,,,,,,
,,,,,,,,,,,878415,,001,2024-02-17_22h37.14.107,VH_new_version2,2023.2.3,Win32,59.88023952,103.3307,104.3298,,,,,,,,,,,,,,,,,,,,,,,,,,104.3298,105.08,z,1,0.7321,,105.08,105.0801,,0,11,11,190,1,191,gopuk,,,,,5,harmonic,1.85,,z,nw,,,,,,,
,,,,,,,,,,,878415,,001,2024-02-17_22h37.14.107,VH_new_version2,2023.2.3,Win32,59.88023952,105.0806,106.0797,,,,,,,,,,,,,,,,,,,,,,,,,,106.0798,106.7798,z,1,0.6876,,106.7799,106.7801,,0,12,12,204,1,205,kürfür,,,,,6,harmonic,1.95,,z,nw,,,,,,,
,,,,,,,,,,,878415,,001,2024-02-17_22h37.14.107,VH_new_version2,2023.2.3,Win32,59.88023952,106.7805,107.7798,,,,,,,,,,,,,,,,,,,,,,,,,,107.7799,108.5965,z,1,0.8068,,108.5966,108.5968,,0,13,13,170,1,171,telen,,,,,5,harmonic,1.15,,z,nw,,,,,,,
,,,,,,,,,,,878415,,001,2024-02-17_22h37.14.107,VH_new_version2,2023.2.3,Win32,59.88023952,108.5972,109.5966,,,,,,,,,,,,,,,,,,,,,,,,,,109.5967,110.0964,z,1,0.4859,,110.0966,110.0967,,0,14,14,219,1,220,anel,,,,,4,notharmonic,1.7,,z,nw,,,,,,,
,,,,,,,,,,,878415,,001,2024-02-17_22h37.14.107,VH_new_version2,2023.2.3,Win32,59.88023952,110.0971,111.0966,,,,,,,,,,,,,,,,,,,,,,,,,,111.0966,111.6802,m,1,0.5754,,111.6802,111.6803,,0,15,15,51,1,52,yaprak,739,33.5772,678,0.0741,6,harmonic,1.7,4.526044478,m,w,,,,,,,
,,,,,,,,,,,878415,,001,2024-02-17_22h37.14.107,VH_new_version2,2023.2.3,Win32,59.88023952,111.6807,112.68,,,,,,,,,,,,,,,,,,,,,,,,,,112.6801,113.3966,z,1,0.6966,,113.3967,113.3969,,0,16,16,153,1,154,uyko,,,,,4,harmonic,1.95,,z,nw,,,,,,,
,,,,,,,,,,,878415,,001,2024-02-17_22h37.14.107,VH_new_version2,2023.2.3,Win32,59.88023952,113.3973,114.3967,,,,,,,,,,,,,,,,,,,,,,,,,,114.3968,115.1799,m,1,0.7637,,115.18,115.1802,,0,17,17,16,1,17,umut,1988,90.3268,1818,0.1987,4,harmonic,1.55,4.955816625,m,w,,,,,,,
,,,,,,,,,,,878415,,001,2024-02-17_22h37.14.107,VH_new_version2,2023.2.3,Win32,59.88023952,115.1807,116.18,,,,,,,,,,,,,,,,,,,,,,,,,,116.1801,116.7298,z,1,0.5316,,116.7298,116.7299,,0,18,18,218,1,219,ecmu,,,,,4,notharmonic,2,,z,nw,,,,,,,
,,,,,,,,,,,878415,,001,2024-02-17_22h37.14.107,VH_new_version2,2023.2.3,Win32,59.88023952,116.7304,117.73,,,,,,,,,,,,,,,,,,,,,,,,,,117.7301,118.5633,m,1,0.8151,,118.5634,118.5636,,0,19,19,103,1,104,resim,2506,113.8627,2188,0.2392,5,harmonic,1.4,5.056381478,m,w,,,,,,,
,,,,,,,,,,,878415,,001,2024-02-17_22h37.14.107,VH_new_version2,2023.2.3,Win32,59.88023952,118.564,119.5633,,,,,,,,,,,,,,,,,,,,,,,,,,119.5633,120.0132,m,0,0.4371,,120.0133,120.0134,,0,20,20,174,1,175,güzeh,,,,,5,harmonic,1.85,,z,nw,,,,,,,
,,,,,,,,,,,878415,,001,2024-02-17_22h37.14.107,VH_new_version2,2023.2.3,Win32,59.88023952,120.0138,121.0134,,,,,,,,,,,,,,,,,,,,,,,,,,121.0134,121.5131,z,0,0.4845,,121.5131,121.5131,,0,21,21,74,1,75,çatı,469,21.3095,379,0.0414,4,harmonic,1,4.32857326,m,w,,,,,,,
,,,,,,,,,,,878415,,001,2024-02-17_22h37.14.107,VH_new_version2,2023.2.3,Win32,59.88023952,121.5134,122.5133,,,,,,,,,,,,,,,,,,,,,,,,,,122.5134,123.213,z,1,0.684,,123.2131,123.2131,,0,22,22,283,1,284,dimdat,,,,,6,notharmonic,2.05,,z,nw,,,,,,,
,,,,,,,,,,,878415,,001,2024-02-17_22h37.14.107,VH_new_version2,2023.2.3,Win32,59.88023952,123.2136,124.2133,,,,,,,,,,,,,,,,,,,,,,,,,,124.2133,124.8299,z,1,0.6046,,124.8299,124.8301,,0,23,23,171,1,172,faraç,,,,,5,harmonic,1.75,,z,nw,,,,,,,
,,,,,,,,,,,878415,,001,2024-02-17_22h37.14.107,VH_new_version2,2023.2.3,Win32,59.88023952,124.8305,125.83,,,,,,,,,,,,,,,,,,,,,,,,,,125.8301,126.3966,z,1,0.5515,,126.3967,126.3969,,0,24,24,180,1,181,finer,,,,,5,harmonic,1.65,,z,nw,,,,,,,
,,,,,,,,,,,878415,,001,2024-02-17_22h37.14.107,VH_new_version2,2023.2.3,Win32,59.88023952,126.3974,127.3967,,,,,,,,,,,,,,,,,,,,,,,,,,127.3967,127.8631,z,0,0.4588,,127.8631,127.8633,,0,25,25,127,1,128,kaynak,1577,71.6526,1481,0.1619,6,harmonic,1.4,4.855231954,m,w,,,,,,,
,,,,,,,,,,,878415,,001,2024-02-17_22h37.14.107,VH_new_version2,2023.2.3,Win32,59.88023952,127.8636,128.8635,,,,,,,,,,,,,,,,,,,,,,,,,,128.8635,129.4131,z,1,0.5435,,129.4131,129.4133,,0,26,26,244,1,245,kimık,,,,,5,notharmonic,2,,z,nw,,,,,,,
,,,,,,,,,,,878415,,001,2024-02-17_22h37.14.107,VH_new_version2,2023.2.3,Win32,59.88023952,129.4136,130.4135,,,,,,,,,,,,,,,,,,,,,,,,,,130.4136,130.9965,m,1,0.5676,,130.9966,130.9968,,0,27,27,108,1,109,hayvan,2363,107.3653,1894,0.2071,6,harmonic,1.5,5.030863942,m,w,,,,,,,
,,,,,,,,,,,878415,,001,2024-02-17_22h37.14.107,VH_new_version2,2023.2.3,Win32,59.88023952,130.9972,131.9967,,,,,,,,,,,,,,,,,,,,,,,,,,131.9967,132.5799,z,1,0.5657,,132.58,132.5801,,0,28,28,265,1,266,terhan,,,,,6,notharmonic,1.95,,z,nw,,,,,,,
,,,,,,,,,,,878415,,001,2024-02-17_22h37.14.107,VH_new_version2,2023.2.3,Win32,59.88023952,132.5806,133.58,,,,,,,,,,,,,,,,,,,,,,,,,,133.5801,134.13,z,1,0.5303,,134.1302,134.1303,,0,29,29,143,1,144,uçek,,,,,4,harmonic,1.85,,z,nw,,,,,,,
,,,,,,,,,,,878415,,001,2024-02-17_22h37.14.107,VH_new_version2,2023.2.3,Win32,59.88023952,134.1309,135.1302,,,,,,,,,,,,,,,,,,,,,,,,,,135.1302,135.7799,m,1,0.639,,135.78,135.7801,,0,30,30,84,1,85,eğitim,4784,217.366,3846,0.4204,6,harmonic,1.5,5.337191613,m,w,,,,,,,
,,,,,,,,,,,878415,,001,2024-02-17_22h37.14.107,VH_new_version2,2023.2.3,Win32,59.88023952,135.7806,136.7801,,,,,,,,,,,,,,,,,,,,,,,,,,136.7801,137.3632,m,1,0.5755,,137.3633,137.3635,,0,31,31,116,1,117,nokta,2085,94.7341,1939,0.212,5,harmonic,1.5,4.976506334,m,w,,,,,,,
,,,,,,,,,,,878415,,001,2024-02-17_22h37.14.107,VH_new_version2,2023.2.3,Win32,59.88023952,137.3638,138.3634,,,,,,,,,,,,,,,,,,,,,,,,,,138.3635,139.0633,z,1,0.6895,,139.0633,139.0635,,0,32,32,201,1,202,lingin,,,,,6,harmonic,1.6,,z,nw,,,,,,,
,,,,,,,,,,,878415,,001,2024-02-17_22h37.14.107,VH_new_version2,2023.2.3,Win32,59.88023952,139.0638,140.0633,,,,,,,,,,,,,,,,,,,,,,,,,,140.0633,140.5799,z,1,0.5039,,140.58,140.5802,,0,33,33,194,1,195,bufsay,,,,,6,harmonic,2.6,,z,nw,,,,,,,
,,,,,,,,,,,878415,,001,2024-02-17_22h37.14.107,VH_new_version2,2023.2.3,Win32,59.88023952,140.5806,141.5801,,,,,,,,,,,,,,,,,,,,,,,,,,141.5802,142.1966,m,1,0.603,,142.1967,142.1969,,0,34,34,50,1,51,kurşun,604,27.4434,551,0.0602,6,harmonic,1.55,4.438437916,m,w,,,,,,,
,,,,,,,,,,,878415,,001,2024-02-17_22h37.14.107,VH_new_version2,2023.2.3,Win32,59.88023952,142.1974,143.1967,,,,,,,,,,,,,,,,,,,,,,,,,,143.1967,143.8133,z,1,0.601,,143.8133,143.8136,,0,35,35,162,1,163,möre,,,,,4,harmonic,1.65,,z,nw,,,,,,,
,,,,,,,,,,,878415,,001,2024-02-17_22h37.14.107,VH_new_version2,2023.2.3,Win32,59.88023952,143.8141,144.8134,,,,,,,,,,,,,,,,,,,,,,,,,,144.8134,145.2966,z,1,0.4669,,145.2968,145.2969,,0,36,36,211,1,212,yıksık,,,,,6,harmonic,1.8,,z,nw,,,,,,,
,,,,,,,,,,,878415,,001,2024-02-17_22h37.14.107,VH_new_version2,2023.2.3,Win32,59.88023952,145.2975,146.2964,,,,,,,,,,,,,,,,,,,,,,,,,,146.2965,146.8466,m,1,0.5409,,146.8467,146.8469,,0,37,37,97,1,98,nefes,2871,130.4469,2553,0.2791,5,harmonic,1.8,5.115433763,m,w,,,,,,,
,,,,,,,,,,,878415,,001,2024-02-17_22h37.14.107,VH_new_version2,2023.2.3,Win32,59.88023952,146.8473,147.8465,,,,,,,,,,,,,,,,,,,,,,,,,,147.8465,148.63,z,1,0.774,,148.63,148.6302,,0,38,38,203,1,204,yağcır,,,,,6,harmonic,1.9,,z,nw,,,,,,,
,,,,,,,,,,,878415,,001,2024-02-17_22h37.14.107,VH_new_version2,2023.2.3,Win32,59.88023952,148.6306,149.6301,,,,,,,,,,,,,,,,,,,,,,,,,,149.6302,150.2467,m,1,0.5988,,150.2468,150.2471,,0,39,39,10,1,11,eser,958,43.5277,892,0.0975,4,harmonic,1,4.63876572,m,w,,,,,,,
,,,,,,,,,,,878415,,001,2024-02-17_22h37.14.107,VH_new_version2,2023.2.3,Win32,59.88023952,150.2475,151.2469,,,,,,,,,,,,,,,,,,,,,,,,,,151.247,151.8304,z,1,0.5773,,151.8305,151.8305,,0,40,40,199,1,200,bartam,,,,,6,harmonic,1.85,,z,nw,,,,,,,
,,,,,,,,,,,878415,,001,2024-02-17_22h37.14.107,VH_new_version2,2023.2.3,Win32,59.88023952,151.8308,152.8301,,,,,,,,,,,,,,,,,,,,,,,,,,152.8302,153.4631,m,1,0.6166,,153.4632,153.4634,,0,41,41,67,1,68,sosyal,5290,240.3566,4372,0.4779,6,harmonic,1.85,5.380856052,m,w,,,,,,,
,,,,,,,,,,,878415,,001,2024-02-17_22h37.14.107,VH_new_version2,2023.2.3,Win32,59.88023952,153.4638,154.4631,,,,,,,,,,,,,,,,,,,,,,,,,,154.4631,155.1466,z,1,0.6729,,155.1466,155.1467,,0,42,42,274,1,275,çanese,,,,,6,notharmonic,2,,z,nw,,,,,,,
,,,,,,,,,,,878415,,001,2024-02-17_22h37.14.107,VH_new_version2,2023.2.3,Win32,59.88023952,155.1474,156.1465,,,,,,,,,,,,,,,,,,,,,,,,,,156.1466,156.8132,z,1,0.6473,,156.8132,156.8134,,0,43,43,225,1,226,elda,,,,,4,notharmonic,1.6,,z,nw,,,,,,,
,,,,,,,,,,,878415,,001,2024-02-17_22h37.14.107,VH_new_version2,2023.2.3,Win32,59.88023952,156.8138,157.8131,,,,,,,,,,,,,,,,,,,,,,,,,,157.8131,158.23,m,1,0.398,,158.23,158.23,,0,44,44,102,1,103,toplum,2562,116.4071,2249,0.2459,6,harmonic,1.65,5.06597947,m,w,,,,,,,
,,,,,,,,,,,878415,,001,2024-02-17_22h37.14.107,VH_new_version2,2023.2.3,Win32,59.88023952,158.2304,159.2301,,,,,,,,,,,,,,,,,,,,,,,,,,159.2302,159.6635,m,1,0.4138,,159.6636,159.6638,,0,45,45,98,1,99,bilim,2828,128.4931,2382,0.2604,5,harmonic,1,5.108879807,m,w,,,,,,,
,,,,,,,,,,,878415,,001,2024-02-17_22h37.14.107,VH_new_version2,2023.2.3,Win32,59.88023952,159.6642,160.6635,,,,,,,,,,,,,,,,,,,,,,,,,,160.6636,161.0133,m,1,0.3422,,161.0134,161.0135,,0,46,46,138,1,139,ödül,1063,48.2985,926,0.1012,4,harmonic,1.7,4.683933643,m,w,,,,,,,
,,,,,,,,,,,878415,,001,2024-02-17_22h37.14.107,VH_new_version2,2023.2.3,Win32,59.88023952,161.0139,162.0133,,,,,,,,,,,,,,,,,,,,,,,,,,162.0134,162.6799,z,1,0.6596,,162.6801,162.6802,,0,47,47,150,1,151,acuz,,,,,4,harmonic,1.65,,z,nw,,,,,,,
,,,,,,,,,,,878415,,001,2024-02-17_22h37.14.107,VH_new_version2,2023.2.3,Win32,59.88023952,162.6806,163.6802,,,,,,,,,,,,,,,,,,,,,,,,,,163.6803,164.2135,z,1,0.5133,,164.2137,164.2138,,0,48,48,222,1,223,laze,,,,,4,notharmonic,1.7,,z,nw,,,,,,,
,,,,,,,,,,,878415,,001,2024-02-17_22h37.14.107,VH_new_version2,2023.2.3,Win32,59.88023952,164.2143,165.2136,,,,,,,,,,,,,,,,,,,,,,,,,,165.2136,165.78,m,1,0.5513,,165.78,165.7802,,0,49,49,25,1,26,orman,819,37.2121,705,0.0771,5,harmonic,1.3,4.570684179,m,w,,,,,,,
,,,,,,,,,,,878415,,001,2024-02-17_22h37.14.107,VH_new_version2,2023.2.3,Win32,59.88023952,165.7807,166.7798,,,,,,,,,,,,,,,,,,,,,,,,,,166.7799,167.3965,z,1,0.6041,,167.3965,167.3966,,0,50,50,156,1,157,obık,,,,,4,harmonic,1.95,,z,nw,,,,,,,
,,,,,,,,,,,878415,,001,2024-02-17_22h37.14.107,VH_new_version2,2023.2.3,Win32,59.88023952,167.3969,168.3965,,,,,,,,,,,,,,,,,,,,,,,,,,168.3966,169.0301,z,1,0.6242,,169.0302,169.0304,,0,51,51,254,1,255,hadir,,,,,5,notharmonic,1.4,,z,nw,,,,,,,
,,,,,,,,,,,878415,,001,2024-02-17_22h37.14.107,VH_new_version2,2023.2.3,Win32,59.88023952,169.0307,170.0302,,,,,,,,,,,,,,,,,,,,,,,,,,170.0302,170.5467,m,1,0.5018,,170.5468,170.547,,0,52,52,133,1,134,parmak,1268,57.6129,1165,0.1274,6,harmonic,1.75,4.760519736,m,w,,,,,,,
,,,,,,,,,,,878415,,001,2024-02-17_22h37.14.107,VH_new_version2,2023.2.3,Win32,59.88023952,170.5473,171.5469,,,,,,,,,,,,,,,,,,,,,,,,,,171.5469,172.2969,z,1,0.732,,172.297,172.2972,,0,53,53,149,1,150,irgi,,,,,4,harmonic,1.8,,z,nw,,,,,,,
,,,,,,,,,,,878415,,001,2024-02-17_22h37.14.107,VH_new_version2,2023.2.3,Win32,59.88023952,172.2976,173.2968,,,,,,,,,,,,,,,,,,,,,,,,,,173.2969,173.8468,m,1,0.5307,,173.8468,173.847,,0,54,54,90,1,91,insan,3684,167.3864,3486,0.3811,5,harmonic,1.55,5.223720169,m,w,,,,,,,
,,,,,,,,,,,878415,,001,2024-02-17_22h37.14.107,VH_new_version2,2023.2.3,Win32,59.88023952,173.8475,174.8468,,,,,,,,,,,,,,,,,,,,,,,,,,174.8469,175.4136,z,1,0.5477,,175.4137,175.4138,,0,55,55,214,1,215,dera,,,,,4,notharmonic,1.2,,z,nw,,,,,,,
,,,,,,,,,,,878415,,001,2024-02-17_22h37.14.107,VH_new_version2,2023.2.3,Win32,59.88023952,175.4143,176.4135,,,,,,,,,,,,,,,,,,,,,,,,,,176.4136,176.9302,m,1,0.5,,176.9302,176.9302,,0,56,56,70,1,71,gerçek,8983,408.1519,8058,0.8809,6,harmonic,1.7,5.610821823,m,w,,,,,,,
,,,,,,,,,,,878415,,001,2024-02-17_22h37.14.107,VH_new_version2,2023.2.3,Win32,59.88023952,176.9308,177.9302,,,,,,,,,,,,,,,,,,,,,,,,,,177.9303,178.4968,z,1,0.5574,,178.4969,178.4969,,0,57,57,242,1,243,sayke,,,,,5,notharmonic,1.9,,z,nw,,,,,,,
,,,,,,,,,,,878415,,001,2024-02-17_22h37.14.107,VH_new_version2,2023.2.3,Win32,59.88023952,178.4974,179.497,,,,,,,,,,,,,,,,,,,,,,,,,,179.4972,180.0301,z,1,0.5218,,180.0301,180.0302,,0,58,58,282,1,283,daketi,,,,,6,notharmonic,1.8,,z,nw,,,,,,,
,,,,,,,,,,,878415,,001,2024-02-17_22h37.14.107,VH_new_version2,2023.2.3,Win32,59.88023952,180.0307,181.0302,,,,,,,,,,,,,,,,,,,,,,,,,,181.0302,181.5969,z,1,0.5486,,181.5969,181.5971,,0,59,59,202,1,203,cehret,,,,,6,harmonic,1.85,,z,nw,,,,,,,
,,,,,,,,,,,878415,,001,2024-02-17_22h37.14.107,VH_new_version2,2023.2.3,Win32,59.88023952,181.5976,182.5969,,,,,,,,,,,,,,,,,,,,,,,,,,182.5971,183.1466,m,0,0.5315,,183.1467,183.1468,,0,60,60,189,1,190,genek,,,,,5,harmonic,1.6,,z,nw,,,,,,,
,,,,,,,,,,,878415,,001,2024-02-17_22h37.14.107,VH_new_version2,2023.2.3,Win32,59.88023952,183.1471,184.1469,,,,,,,,,,,,,,,,,,,,,,,,,,184.147,184.78,m,1,0.6178,,184.7801,184.7804,,0,61,61,129,1,130,peynir,1421,64.5646,1248,0.1364,6,harmonic,1.9,4.809994465,m,w,,,,,,,
,,,,,,,,,,,878415,,001,2024-02-17_22h37.14.107,VH_new_version2,2023.2.3,Win32,59.88023952,184.7808,185.7803,,,,,,,,,,,,,,,,,,,,,,,,,,185.7803,186.6802,z,1,0.8811,,186.6803,186.6805,,0,62,62,237,1,238,masem,,,,,5,notharmonic,1.7,,z,nw,,,,,,,
,,,,,,,,,,,878415,,001,2024-02-17_22h37.14.107,VH_new_version2,2023.2.3,Win32,59.88023952,186.6809,187.6802,,,,,,,,,,,,,,,,,,,,,,,,,,187.6803,188.2971,m,1,0.5987,,188.2972,188.2973,,0,63,63,141,1,142,fındık,865,39.3022,769,0.0841,6,harmonic,1.95,4.594416861,m,w,,,,,,,
,,,,,,,,,,,878415,,001,2024-02-17_22h37.14.107,VH_new_version2,2023.2.3,Win32,59.88023952,188.2978,189.2968,,,,,,,,,,,,,,,,,,,,,,,,,,189.2969,190.1303,z,1,0.8153,,190.1304,190.1305,,0,64,64,205,1,206,hücmet,,,,,6,harmonic,1.85,,z,nw,,,,,,,
,,,,,,,,,,,878415,,001,2024-02-17_22h37.14.107,VH_new_version2,2023.2.3,Win32,59.88023952,190.1311,191.1302,,,,,,,,,,,,,,,,,,,,,,,,,,191.1303,191.5801,m,1,0.4399,,191.5801,191.5803,,0,65,65,91,1,92,yeşil,3445,156.5271,2946,0.3221,5,harmonic,1.8,5.194589539,m,w,,,,,,,
,,,,,,,,,,,878415,,001,2024-02-17_22h37.14.107,VH_new_version2,2023.2.3,Win32,59.88023952,191.5807,192.5803,,,,,,,,,,,,,,,,,,,,,,,,,,192.5803,193.0302,m,1,0.4426,,193.0303,193.0303,,0,66,66,99,1,100,altı,2782,126.403,2571,0.2811,4,harmonic,1,5.101757381,m,w,,,,,,,
,,,,,,,,,,,878415,,001,2024-02-17_22h37.14.107,VH_new_version2,2023.2.3,Win32,59.88023952,193.0306,194.0302,,,,,,,,,,,,,,,,,,,,,,,,,,194.0304,194.5133,m,1,0.4692,,194.5133,194.5134,,0,67,67,131,1,132,doğa,1381,62.7472,1180,0.129,4,harmonic,1,4.797594351,m,w,,,,,,,
,,,,,,,,,,,878415,,001,2024-02-17_22h37.14.107,VH_new_version2,2023.2.3,Win32,59.88023952,194.5137,195.5133,,,,,,,,,,,,,,,,,,,,,,,,,,195.5134,195.9467,m,1,0.4234,,195.9467,195.9468,,0,68,68,48,1,49,çocuk,10612,482.1672,8979,0.9816,5,harmonic,1.75,5.683197664,m,w,,,,,,,
,,,,,,,,,,,878415,,001,2024-02-17_22h37.14.107,VH_new_version2,2023.2.3,Win32,59.88023952,195.9472,196.9467,,,,,,,,,,,,,,,,,,,,,,,,,,196.9467,197.3634,m,1,0.399,,197.3635,197.3635,,0,69,69,37,1,38,cümle,1911,86.8283,1765,0.193,5,harmonic,1.85,4.938661298,m,w,,,,,,,
,,,,,,,,,,,878415,,001,2024-02-17_22h37.14.107,VH_new_version2,2023.2.3,Win32,59.88023952,197.3639,198.3637,,,,,,,,,,,,,,,,,,,,,,,,,,198.3637,198.98,z,1,0.5968,,198.9801,201.0636,space,0,70,70,234,1,235,ated,,,,,4,notharmonic,1.8,,z,nw,2.0765,,,,,,
,,,,,,,,,,,878415,,001,2024-02-17_22h37.14.107,VH_new_version2,2023.2.3,Win32,59.88023952,201.0737,202.0636,,,,,,,,,,,,,,,,,,,,,,,,,,202.0637,202.7134,z,1,0.6336,,202.7134,202.7135,,0,71,71,252,1,253,canit,,,,,5,notharmonic,1.8,,z,nw,,,,,,,
,,,,,,,,,,,878415,,001,2024-02-17_22h37.14.107,VH_new_version2,2023.2.3,Win32,59.88023952,202.7139,203.7137,,,,,,,,,,,,,,,,,,,,,,,,,,203.7138,204.2969,m,1,0.5743,,204.2969,204.2971,,0,72,72,112,1,113,kelime,2185,99.2777,1971,0.2155,6,harmonic,1.25,4.996851707,m,w,,,,,,,
,,,,,,,,,,,878415,,001,2024-02-17_22h37.14.107,VH_new_version2,2023.2.3,Win32,59.88023952,204.2975,205.2969,,,,,,,,,,,,,,,,,,,,,,,,,,205.297,205.8806,m,1,0.5646,,205.8806,205.8808,,0,73,73,121,1,122,usta,1823,82.8299,1478,0.1616,4,harmonic,1.5,4.918187137,m,w,,,,,,,
,,,,,,,,,,,878415,,001,2024-02-17_22h37.14.107,VH_new_version2,2023.2.3,Win32,59.88023952,205.8812,206.8807,,,,,,,,,,,,,,,,,,,,,,,,,,206.8808,207.3802,m,1,0.4812,,207.3802,207.3803,,0,74,74,62,1,63,kültür,2566,116.5889,2206,0.2412,6,harmonic,1.55,5.066657205,m,w,,,,,,,
,,,,,,,,,,,878415,,001,2024-02-17_22h37.14.107,VH_new_version2,2023.2.3,Win32,59.88023952,207.3806,208.3801,,,,,,,,,,,,,,,,,,,,,,,,,,208.3801,208.6639,m,0,0.2635,,208.664,208.6641,,0,75,75,172,1,173,çatuk,,,,,5,harmonic,1.8,,z,nw,,,,,,,
,,,,,,,,,,,878415,,001,2024-02-17_22h37.14.107,VH_new_version2,2023.2.3,Win32,59.88023952,208.6647,209.6639,,,,,,,,,,,,,,,,,,,,,,,,,,209.6639,210.247,m,0,0.5655,,210.2471,210.2473,,0,76,76,276,1,277,hiyake,,,,,6,notharmonic,2.25,,z,nw,,,,,,,
,,,,,,,,,,,878415,,001,2024-02-17_22h37.14.107,VH_new_version2,2023.2.3,Win32,59.88023952,210.2478,211.2473,,,,,,,,,,,,,,,,,,,,,,,,,,211.2474,211.6803,z,1,0.4152,,211.6804,211.6805,,0,77,77,216,1,217,same,,,,,4,notharmonic,1.6,,z,nw,,,,,,,
,,,,,,,,,,,878415,,001,2024-02-17_22h37.14.107,VH_new_version2,2023.2.3,Win32,59.88023952,211.6813,212.6802,,,,,,,,,,,,,,,,,,,,,,,,,,212.6803,213.1804,m,1,0.4809,,213.1806,213.1806,,0,78,78,132,1,133,abla,1287,58.4762,1156,0.1264,4,harmonic,1,4.766979143,m,w,,,,,,,
,,,,,,,,,,,878415,,001,2024-02-17_22h37.14.107,VH_new_version2,2023.2.3,Win32,59.88023952,213.1811,214.1804,,,,,,,,,,,,,,,,,,,,,,,,,,214.1805,214.6636,m,1,0.471,,214.6636,214.6638,,0,79,79,87,1,88,sevgi,3950,179.4723,3467,0.379,5,harmonic,1.65,5.253997428,m,w,,,,,,,
,,,,,,,,,,,878415,,001,2024-02-17_22h37.14.107,VH_new_version2,2023.2.3,Win32,59.88023952,214.6642,215.6635,,,,,,,,,,,,,,,,,,,,,,,,,,215.6636,216.297,z,1,0.6252,,216.297,216.2972,,0,80,80,193,1,194,hatrak,,,,,6,harmonic,1.95,,z,nw,,,,,,,
,,,,,,,,,,,878415,,001,2024-02-17_22h37.14.107,VH_new_version2,2023.2.3,Win32,59.88023952,216.2976,217.297,,,,,,,,,,,,,,,,,,,,,,,,,,217.2971,218.0468,z,1,0.7349,,218.0469,218.047,,0,81,81,257,1,258,seran,,,,,5,notharmonic,1.35,,z,nw,,,,,,,
,,,,,,,,,,,878415,,001,2024-02-17_22h37.14.107,VH_new_version2,2023.2.3,Win32,59.88023952,218.0473,219.0469,,,,,,,,,,,,,,,,,,,,,,,,,,219.047,219.5469,z,1,0.4879,,219.547,219.5472,,0,82,82,152,1,153,ebür,,,,,4,harmonic,1.95,,z,nw,,,,,,,
,,,,,,,,,,,878415,,001,2024-02-17_22h37.14.107,VH_new_version2,2023.2.3,Win32,59.88023952,219.5476,220.547,,,,,,,,,,,,,,,,,,,,,,,,,,220.5471,220.9637,z,0,0.4089,,220.9637,220.9638,,0,83,83,28,1,29,melek,878,39.8928,773,0.0845,5,harmonic,1.1,4.60089452,m,w,,,,,,,
,,,,,,,,,,,878415,,001,2024-02-17_22h37.14.107,VH_new_version2,2023.2.3,Win32,59.88023952,220.9641,221.9636,,,,,,,,,,,,,,,,,,,,,,,,,,221.9636,222.4967,z,1,0.5223,,222.4968,222.497,,0,84,84,186,1,187,erbik,,,,,5,harmonic,1.75,,z,nw,,,,,,,
,,,,,,,,,,,878415,,001,2024-02-17_22h37.14.107,VH_new_version2,2023.2.3,Win32,59.88023952,222.4974,223.4968,,,,,,,,,,,,,,,,,,,,,,,,,,223.4969,224.0472,z,1,0.5403,,224.0472,224.0473,,0,85,85,179,1,180,şünle,,,,,5,harmonic,1.75,,z,nw,,,,,,,
,,,,,,,,,,,878415,,001,2024-02-17_22h37.14.107,VH_new_version2,2023.2.3,Win32,59.88023952,224.0477,225.0474,,,,,,,,,,,,,,,,,,,,,,,,,,225.0475,225.7968,m,1,0.7336,,225.7969,225.7969,,0,86,86,128,1,129,merkez,1445,65.6551,1255,0.1372,6,harmonic,1.8,4.817268467,m,w,,,,,,,
,,,,,,,,,,,878415,,001,2024-02-17_22h37.14.107,VH_new_version2,2023.2.3,Win32,59.88023952,225.7972,226.7973,,,,,,,,,,,,,,,,,,,,,,,,,,226.7974,227.8636,m,1,1.0519,,227.8636,227.8638,,0,87,87,79,1,80,erik,376,17.0839,335,0.0366,4,harmonic,1,4.232587021,m,w,,,,,,,
,,,,,,,,,,,878415,,001,2024-02-17_22h37.14.107,VH_new_version2,2023.2.3,Win32,59.88023952,227.8643,228.8637,,,,,,,,,,,,,,,,,,,,,,,,,,228.8638,229.4637,z,1,0.582,,229.4637,229.4638,,0,88,88,262,1,263,barali,,,,,6,notharmonic,1.95,,z,nw,,,,,,,
,,,,,,,,,,,878415,,001,2024-02-17_22h37.14.107,VH_new_version2,2023.2.3,Win32,59.88023952,229.4642,230.4637,,,,,,,,,,,,,,,,,,,,,,,,,,230.4637,231.047,z,1,0.5655,,231.0471,231.0472,,0,89,89,167,1,168,ontan,,,,,5,harmonic,1.6,,z,nw,,,,,,,
,,,,,,,,,,,878415,,001,2024-02-17_22h37.14.107,VH_new_version2,2023.2.3,Win32,59.88023952,231.0476,232.047,,,,,,,,,,,,,,,,,,,,,,,,,,232.047,232.7302,z,1,0.6747,,232.7303,232.7304,,0,90,90,210,1,211,bellet,,,,,6,harmonic,1.65,,z,nw,,,,,,,
,,,,,,,,,,,878415,,001,2024-02-17_22h37.14.107,VH_new_version2,2023.2.3,Win32,59.88023952,232.7309,233.7301,,,,,,,,,,,,,,,,,,,,,,,,,,233.7301,234.4471,z,1,0.6974,,234.4472,234.4474,,0,91,91,240,1,241,makek,,,,,5,notharmonic,1.9,,z,nw,,,,,,,
,,,,,,,,,,,878415,,001,2024-02-17_22h37.14.107,VH_new_version2,2023.2.3,Win32,59.88023952,234.4479,235.447,,,,,,,,,,,,,,,,,,,,,,,,,,235.4471,236.3637,z,1,0.8977,,236.3638,236.3639,,0,92,92,263,1,264,magina,,,,,6,notharmonic,1.9,,z,nw,,,,,,,
,,,,,,,,,,,878415,,001,2024-02-17_22h37.14.107,VH_new_version2,2023.2.3,Win32,59.88023952,236.3643,237.3635,,,,,,,,,,,,,,,,,,,,,,,,,,237.3635,238.1635,z,1,0.7881,,238.1635,238.1636,,0,93,93,178,1,179,güzül,,,,,5,harmonic,1.65,,z,nw,,,,,,,
,,,,,,,,,,,878415,,001,2024-02-17_22h37.14.107,VH_new_version2,2023.2.3,Win32,59.88023952,238.1639,239.1637,,,,,,,,,,,,,,,,,,,,,,,,,,239.1639,239.7801,z,1,0.5988,,239.7801,239.7803,,0,94,94,181,1,182,masus,,,,,5,harmonic,1.7,,z,nw,,,,,,,
,,,,,,,,,,,878415,,001,2024-02-17_22h37.14.107,VH_new_version2,2023.2.3,Win32,59.88023952,239.7806,240.7802,,,,,,,,,,,,,,,,,,,,,,,,,,240.7802,241.2969,m,1,0.5024,,241.2969,241.297,,0,95,95,47,1,48,yemek,9626,437.3673,8311,0.9086,5,harmonic,1.35,5.64084631,m,w,,,,,,,
,,,,,,,,,,,878415,,001,2024-02-17_22h37.14.107,VH_new_version2,2023.2.3,Win32,59.88023952,241.2976,242.2971,,,,,,,,,,,,,,,,,,,,,,,,,,242.2972,243.0468,z,1,0.7368,,243.0469,243.047,,0,96,96,158,1,159,uzot,,,,,4,harmonic,1.9,,z,nw,,,,,,,
,,,,,,,,,,,878415,,001,2024-02-17_22h37.14.107,VH_new_version2,2023.2.3,Win32,59.88023952,243.0472,244.0469,,,,,,,,,,,,,,,,,,,,,,,,,,244.0469,244.6971,m,1,0.6342,,244.6971,244.6972,,0,97,97,80,1,81,ahlak,641,29.1245,543,0.0594,5,harmonic,1.35,4.464258478,m,w,,,,,,,
,,,,,,,,,,,878415,,001,2024-02-17_22h37.14.107,VH_new_version2,2023.2.3,Win32,59.88023952,244.6977,245.6969,,,,,,,,,,,,,,,,,,,,,,,,,,245.697,246.6968,z,1,0.9886,,246.6968,246.6968,,0,98,98,280,1,281,icarar,,,,,6,notharmonic,2,,z,nw,,,,,,,
,,,,,,,,,,,878415,,001,2024-02-17_22h37.14.107,VH_new_version2,2023.2.3,Win32,59.88023952,246.6972,247.6968,,,,,,,,,,,,,,,,,,,,,,,,,,247.6968,248.3635,m,1,0.6565,,248.3635,248.3636,,0,99,99,56,1,57,meslek,1082,49.1618,976,0.1067,6,harmonic,1.9,4.691627776,m,w,,,,,,,
,,,,,,,,,,,878415,,001,2024-02-17_22h37.14.107,VH_new_version2,2023.2.3,Win32,59.88023952,248.3639,249.3636,,,,,,,,,,,,,,,,,,,,,,,,,,249.3636,249.7471,m,0,0.3709,,249.7471,249.7472,,0,100,100,275,1,276,teşbuz,,,,,6,notharmonic,2.75,,z,nw,,,,,,,
,,,,,,,,,,,878415,,001,2024-02-17_22h37.14.107,VH_new_version2,2023.2.3,Win32,59.88023952,249.7476,250.7468,,,,,,,,,,,,,,,,,,,,,,,,,,250.7468,251.314,m,1,0.5498,,251.314,251.3142,,0,101,101,82,1,83,oyun,4926,223.8179,3995,0.4367,4,harmonic,1,5.349894817,m,w,,,,,,,
,,,,,,,,,,,878415,,001,2024-02-17_22h37.14.107,VH_new_version2,2023.2.3,Win32,59.88023952,251.3146,252.3136,,,,,,,,,,,,,,,,,,,,,,,,,,252.3137,252.6304,m,1,0.31,,252.6305,252.6306,,0,102,102,135,1,136,gündüz,1167,53.0239,1088,0.1189,6,harmonic,1.6,4.724471668,m,w,,,,,,,
,,,,,,,,,,,878415,,001,2024-02-17_22h37.14.107,VH_new_version2,2023.2.3,Win32,59.88023952,252.631,253.6302,,,,,,,,,,,,,,,,,,,,,,,,,,253.6302,254.0969,m,1,0.4479,,254.0969,254.097,,0,103,103,9,1,10,uçak,894,40.6198,752,0.0822,4,harmonic,1.4,4.608737781,m,w,,,,,,,
,,,,,,,,,,,878415,,001,2024-02-17_22h37.14.107,VH_new_version2,2023.2.3,Win32,59.88023952,254.0974,255.097,,,,,,,,,,,,,,,,,,,,,,,,,,255.097,255.4637,m,0,0.3591,,255.4638,255.4639,,0,104,104,266,1,267,ebvace,,,,,6,notharmonic,2.95,,z,nw,,,,,,,
,,,,,,,,,,,878415,,001,2024-02-17_22h37.14.107,VH_new_version2,2023.2.3,Win32,59.88023952,255.4643,256.4637,,,,,,,,,,,,,,,,,,,,,,,,,,256.4638,257.0805,m,1,0.5997,,257.0805,257.0807,,0,105,105,13,1,14,kedi,1646,74.7877,1394,0.1524,4,harmonic,1.1,4.873830177,m,w,,,,,,,
,,,,,,,,,,,878415,,001,2024-02-17_22h37.14.107,VH_new_version2,2023.2.3,Win32,59.88023952,257.0811,258.0807,,,,,,,,,,,,,,,,,,,,,,,,,,258.0808,258.7137,z,1,0.6131,,258.7138,258.7139,,0,106,106,157,1,158,öşek,,,,,4,harmonic,1.7,,z,nw,,,,,,,
,,,,,,,,,,,878415,,001,2024-02-17_22h37.14.107,VH_new_version2,2023.2.3,Win32,59.88023952,258.7143,259.7137,,,,,,,,,,,,,,,,,,,,,,,,,,259.7138,260.7471,z,1,1.0168,,260.7472,260.7473,,0,107,107,197,1,198,zemkin,,,,,6,harmonic,1.85,,z,nw,,,,,,,
,,,,,,,,,,,878415,,001,2024-02-17_22h37.14.107,VH_new_version2,2023.2.3,Win32,59.88023952,260.7477,261.7473,,,,,,,,,,,,,,,,,,,,,,,,,,261.7473,262.4468,z,1,0.6814,,262.4469,262.4471,,0,108,108,175,1,176,sakça,,,,,5,harmonic,1.55,,z,nw,,,,,,,
,,,,,,,,,,,878415,,001,2024-02-17_22h37.14.107,VH_new_version2,2023.2.3,Win32,59.88023952,262.4474,263.4469,,,,,,,,,,,,,,,,,,,,,,,,,,263.447,263.981,z,1,0.5271,,263.981,263.9811,,0,109,109,231,1,232,babi,,,,,4,notharmonic,1.4,,z,nw,,,,,,,
,,,,,,,,,,,878415,,001,2024-02-17_22h37.14.107,VH_new_version2,2023.2.3,Win32,59.88023952,263.9815,264.9802,,,,,,,,,,,,,,,,,,,,,,,,,,264.9802,265.6305,z,0,0.631,,265.6307,265.6308,,0,110,110,109,1,110,ürün,2268,103.0489,1954,0.2136,4,harmonic,1.1,5.01304336,m,w,,,,,,,
,,,,,,,,,,,878415,,001,2024-02-17_22h37.14.107,VH_new_version2,2023.2.3,Win32,59.88023952,265.6311,266.6305,,,,,,,,,,,,,,,,,,,,,,,,,,266.6306,267.397,z,1,0.7481,,267.397,267.3972,,0,111,111,241,1,242,akter,,,,,5,notharmonic,1.8,,z,nw,,,,,,,
,,,,,,,,,,,878415,,001,2024-02-17_22h37.14.107,VH_new_version2,2023.2.3,Win32,59.88023952,267.3976,268.3972,,,,,,,,,,,,,,,,,,,,,,,,,,268.3972,268.9469,m,1,0.539,,268.947,268.947,,0,112,112,38,1,39,fikir,2552,115.9528,2413,0.2638,5,harmonic,1.9,5.06428124,m,w,,,,,,,
,,,,,,,,,,,878415,,001,2024-02-17_22h37.14.107,VH_new_version2,2023.2.3,Win32,59.88023952,268.9473,269.9469,,,,,,,,,,,,,,,,,,,,,,,,,,269.947,270.5471,z,1,0.5927,,270.5472,270.5473,,0,113,113,206,1,207,teşcik,,,,,6,harmonic,1.9,,z,nw,,,,,,,
,,,,,,,,,,,878415,,001,2024-02-17_22h37.14.107,VH_new_version2,2023.2.3,Win32,59.88023952,270.5478,271.5472,,,,,,,,,,,,,,,,,,,,,,,,,,271.5472,272.1305,m,1,0.5702,,272.1305,272.1307,,0,114,114,22,1,23,özel,9726,441.9109,8559,0.9357,4,harmonic,1.35,5.645334714,m,w,,,,,,,
,,,,,,,,,,,878415,,001,2024-02-17_22h37.14.107,VH_new_version2,2023.2.3,Win32,59.88023952,272.131,273.1305,,,,,,,,,,,,,,,,,,,,,,,,,,273.1307,274.0806,m,1,0.9347,,274.0806,274.0808,,0,115,115,8,1,9,ağız,824,37.4393,758,0.0829,4,harmonic,1.2,4.57332772,m,w,,,,,,,
,,,,,,,,,,,878415,,001,2024-02-17_22h37.14.107,VH_new_version2,2023.2.3,Win32,59.88023952,274.0812,275.0806,,,,,,,,,,,,,,,,,,,,,,,,,,275.0807,275.5471,m,1,0.4566,,275.5471,275.5473,,0,116,116,4,1,5,öfke,606,27.5342,542,0.0593,4,harmonic,1.85,4.439872463,m,w,,,,,,,
,,,,,,,,,,,878415,,001,2024-02-17_22h37.14.107,VH_new_version2,2023.2.3,Win32,59.88023952,275.5478,276.5471,,,,,,,,,,,,,,,,,,,,,,,,,,276.5471,277.0971,m,1,0.5318,,277.0972,277.0972,,0,117,117,27,1,28,sekiz,872,39.6202,803,0.0878,5,harmonic,1.45,4.597916663,m,w,,,,,,,
,,,,,,,,,,,878415,,001,2024-02-17_22h37.14.107,VH_new_version2,2023.2.3,Win32,59.88023952,277.098,278.0971,,,,,,,,,,,,,,,,,,,,,,,,,,278.0971,278.5805,m,1,0.4731,,278.5805,278.5809,,0,118,118,58,1,59,toprak,1989,90.3723,1762,0.1926,6,harmonic,1.9,4.956035335,m,w,,,,,,,
,,,,,,,,,,,878415,,001,2024-02-17_22h37.14.107,VH_new_version2,2023.2.3,Win32,59.88023952,278.5813,279.5803,,,,,,,,,,,,,,,,,,,,,,,,,,279.5803,280.1973,z,1,0.5984,,280.1973,280.1976,,0,119,119,168,1,169,bovon,,,,,5,harmonic,2,,z,nw,,,,,,,
,,,,,,,,,,,878415,,001,2024-02-17_22h37.14.107,VH_new_version2,2023.2.3,Win32,59.88023952,280.1981,281.1971,,,,,,,,,,,,,,,,,,,,,,,,,,281.1971,281.797,z,1,0.5809,,281.797,281.7971,,0,120,120,279,1,280,tevaha,,,,,6,notharmonic,2,,z,nw,,,,,,,
,,,,,,,,,,,878415,,001,2024-02-17_22h37.14.107,VH_new_version2,2023.2.3,Win32,59.88023952,281.7974,282.7972,,,,,,,,,,,,,,,,,,,,,,,,,,282.7973,283.4303,m,1,0.6163,,283.4304,283.4304,,0,121,121,29,1,30,şarap,926,42.0738,787,0.086,5,harmonic,1.9,4.624011738,m,w,,,,,,,
,,,,,,,,,,,878415,,001,2024-02-17_22h37.14.107,VH_new_version2,2023.2.3,Win32,59.88023952,283.4308,284.4312,,,,,,,,,,,,,,,,,,,,,,,,,,284.4312,285.2641,m,1,0.8164,,285.2641,285.2642,,0,122,122,75,1,76,dergi,657,29.8515,592,0.0647,5,harmonic,1.3,4.474966159,m,w,,,,,,,
,,,,,,,,,,,878415,,001,2024-02-17_22h37.14.107,VH_new_version2,2023.2.3,Win32,59.88023952,285.2649,286.2638,,,,,,,,,,,,,,,,,,,,,,,,,,286.2638,286.8307,z,1,0.5469,,286.8308,286.8309,,0,123,123,245,1,246,gaset,,,,,5,notharmonic,1.85,,z,nw,,,,,,,
,,,,,,,,,,,878415,,001,2024-02-17_22h37.14.107,VH_new_version2,2023.2.3,Win32,59.88023952,286.8313,287.8307,,,,,,,,,,,,,,,,,,,,,,,,,,287.8308,288.9972,z,0,1.1524,,288.9973,288.9974,,0,124,124,101,1,102,okul,2685,121.9958,2381,0.2603,4,harmonic,1.35,5.086344879,m,w,,,,,,,
,,,,,,,,,,,878415,,001,2024-02-17_22h37.14.107,VH_new_version2,2023.2.3,Win32,59.88023952,288.9978,289.9973,,,,,,,,,,,,,,,,,,,,,,,,,,289.9973,290.6306,m,1,0.6177,,290.6307,290.6309,,0,125,125,52,1,53,buğday,746,33.8953,623,0.0681,6,harmonic,1.9,4.530139482,m,w,,,,,,,
,,,,,,,,,,,878415,,001,2024-02-17_22h37.14.107,VH_new_version2,2023.2.3,Win32,59.88023952,290.6312,291.6305,,,,,,,,,,,,,,,,,,,,,,,,,,291.6306,292.797,z,1,1.1594,,292.797,292.7971,,0,126,126,261,1,262,eksan,,,,,5,notharmonic,1.7,,z,nw,,,,,,,
,,,,,,,,,,,878415,,001,2024-02-17_22h37.14.107,VH_new_version2,2023.2.3,Win32,59.88023952,292.7973,293.7972,,,,,,,,,,,,,,,,,,,,,,,,,,293.7972,294.4803,z,1,0.6707,,294.4803,294.4805,,0,127,127,253,1,254,mafke,,,,,5,notharmonic,1.9,,z,nw,,,,,,,
,,,,,,,,,,,878415,,001,2024-02-17_22h37.14.107,VH_new_version2,2023.2.3,Win32,59.88023952,294.4809,295.4806,,,,,,,,,,,,,,,,,,,,,,,,,,295.4807,296.0805,z,0,0.5832,,296.0807,296.0807,,0,128,128,20,1,21,süre,8679,394.3393,8119,0.8876,4,harmonic,1,5.595870061,m,w,,,,,,,
,,,,,,,,,,,878415,,001,2024-02-17_22h37.14.107,VH_new_version2,2023.2.3,Win32,59.88023952,296.081,297.0806,,,,,,,,,,,,,,,,,,,,,,,,,,297.0806,297.664,z,1,0.5694,,297.6641,297.6643,,0,129,129,192,1,193,kumgun,,,,,6,harmonic,1.85,,z,nw,,,,,,,
,,,,,,,,,,,878415,,001,2024-02-17_22h37.14.107,VH_new_version2,2023.2.3,Win32,59.88023952,297.6647,298.6638,,,,,,,,,,,,,,,,,,,,,,,,,,298.6639,299.197,m,1,0.5165,,299.1971,299.1972,,0,130,130,81,1,82,hava,4975,226.0443,4398,0.4808,4,harmonic,1,5.35419356,m,w,,,,,,,
,,,,,,,,,,,878415,,001,2024-02-17_22h37.14.107,VH_new_version2,2023.2.3,Win32,59.88023952,299.1975,300.1971,,,,,,,,,,,,,,,,,,,,,,,,,,300.1971,300.8638,z,1,0.656,,300.8639,300.864,,0,131,131,173,1,174,pirbe,,,,,5,harmonic,1.9,,z,nw,,,,,,,
,,,,,,,,,,,878415,,001,2024-02-17_22h37.14.107,VH_new_version2,2023.2.3,Win32,59.88023952,300.8645,301.8639,,,,,,,,,,,,,,,,,,,,,,,,,,301.8639,302.6137,m,1,0.7356,,302.6138,302.6139,,0,132,132,73,1,74,gemi,629,28.5793,544,0.0595,4,harmonic,1.1,4.456051587,m,w,,,,,,,
,,,,,,,,,,,878415,,001,2024-02-17_22h37.14.107,VH_new_version2,2023.2.3,Win32,59.88023952,302.6143,303.614,,,,,,,,,,,,,,,,,,,,,,,,,,303.614,304.1805,m,1,0.5497,,304.1808,304.1811,,0,133,133,54,1,55,elbise,883,40.12,786,0.0859,6,harmonic,1.9,4.603360924,m,w,,,,,,,
,,,,,,,,,,,878415,,001,2024-02-17_22h37.14.107,VH_new_version2,2023.2.3,Win32,59.88023952,304.1814,305.181,,,,,,,,,,,,,,,,,,,,,,,,,,305.1811,305.5805,m,0,0.3881,,305.5806,305.5807,,0,134,134,217,1,218,heka,,,,,4,notharmonic,1.75,,z,nw,,,,,,,
,,,,,,,,,,,878415,,001,2024-02-17_22h37.14.107,VH_new_version2,2023.2.3,Win32,59.88023952,305.5811,306.5808,,,,,,,,,,,,,,,,,,,,,,,,,,306.5809,307.1651,z,0,0.5774,,307.1652,307.1653,,0,135,135,42,1,43,şeker,4708,213.9128,4170,0.4559,5,harmonic,1.6,5.330236772,m,w,,,,,,,
,,,,,,,,,,,878415,,001,2024-02-17_22h37.14.107,VH_new_version2,2023.2.3,Win32,59.88023952,307.1671,308.1645,,,,,,,,,,,,,,,,,,,,,,,,,,308.1646,308.7471,z,1,0.5665,,308.7472,308.7474,,0,136,136,145,1,146,oyoz,,,,,4,harmonic,1.9,,z,nw,,,,,,,
,,,,,,,,,,,878415,,001,2024-02-17_22h37.14.107,VH_new_version2,2023.2.3,Win32,59.88023952,308.7477,309.7472,,,,,,,,,,,,,,,,,,,,,,,,,,309.7473,310.5143,z,1,0.7504,,310.5143,310.5145,,0,137,137,224,1,225,faer,,,,,4,notharmonic,1.9,,z,nw,,,,,,,
,,,,,,,,,,,878415,,001,2024-02-17_22h37.14.107,VH_new_version2,2023.2.3,Win32,59.88023952,310.5149,311.514,,,,,,,,,,,,,,,,,,,,,,,,,,311.5141,312.0642,m,1,0.5419,,312.0643,312.0646,,0,138,138,130,1,131,başarı,1398,63.5196,1300,0.1421,6,harmonic,1.2,4.802907755,m,w,,,,,,,
,,,,,,,,,,,878415,,001,2024-02-17_22h37.14.107,VH_new_version2,2023.2.3,Win32,59.88023952,312.0648,313.0637,,,,,,,,,,,,,,,,,,,,,,,,,,313.0637,313.5809,m,1,0.5024,,313.581,313.5811,,0,139,139,96,1,97,şehir,2981,135.4448,2608,0.2851,5,harmonic,1.75,5.131762336,m,w,,,,,,,
,,,,,,,,,,,878415,,001,2024-02-17_22h37.14.107,VH_new_version2,2023.2.3,Win32,59.88023952,313.5814,314.5806,,,,,,,,,,,,,,,,,,,,,,,,,,314.5806,315.1642,z,1,0.5645,,315.1643,315.1645,,0,140,140,249,1,250,sisaj,,,,,5,notharmonic,2,,z,nw,,,,,,,
,,,,,,,,,,,878415,,001,2024-02-17_22h37.14.107,VH_new_version2,2023.2.3,Win32,59.88023952,315.1649,316.1641,,,,,,,,,,,,,,,,,,,,,,,,,,316.1641,317.4809,z,1,1.3018,,317.4809,318.2642,space,0,141,141,144,1,145,içke,,,,,4,harmonic,1.6,,z,nw,0.7676,,,,,,
,,,,,,,,,,,878415,,001,2024-02-17_22h37.14.107,VH_new_version2,2023.2.3,Win32,59.88023952,318.2748,319.264,,,,,,,,,,,,,,,,,,,,,,,,,,319.264,319.8973,z,1,0.6177,,319.8973,319.8976,,0,142,142,220,1,221,nica,,,,,4,notharmonic,1.75,,z,nw,,,,,,,
,,,,,,,,,,,878415,,001,2024-02-17_22h37.14.107,VH_new_version2,2023.2.3,Win32,59.88023952,319.8979,320.8971,,,,,,,,,,,,,,,,,,,,,,,,,,320.8972,321.4971,m,1,0.5915,,321.4972,321.4973,,0,143,143,36,1,37,gönül,1786,81.1488,1676,0.1832,5,harmonic,1.8,4.909282102,m,w,,,,,,,
,,,,,,,,,,,878415,,001,2024-02-17_22h37.14.107,VH_new_version2,2023.2.3,Win32,59.88023952,321.4977,322.4977,,,,,,,,,,,,,,,,,,,,,,,,,,322.4978,323.0473,m,1,0.5369,,323.0474,323.0475,,0,144,144,126,1,127,millet,1658,75.3329,1508,0.1649,6,harmonic,1.7,4.876984686,m,w,,,,,,,
,,,,,,,,,,,878415,,001,2024-02-17_22h37.14.107,VH_new_version2,2023.2.3,Win32,59.88023952,323.048,324.0476,,,,,,,,,,,,,,,,,,,,,,,,,,324.0477,324.7974,z,1,0.7326,,324.7974,324.7978,,0,145,145,273,1,274,kalkeş,,,,,6,notharmonic,1.85,,z,nw,,,,,,,
,,,,,,,,,,,878415,,001,2024-02-17_22h37.14.107,VH_new_version2,2023.2.3,Win32,59.88023952,324.7982,325.7974,,,,,,,,,,,,,,,,,,,,,,,,,,325.7978,326.2975,z,1,0.4927,,326.2976,326.2977,,0,146,146,155,1,156,megi,,,,,4,harmonic,1.8,,z,nw,,,,,,,
,,,,,,,,,,,878415,,001,2024-02-17_22h37.14.107,VH_new_version2,2023.2.3,Win32,59.88023952,326.2979,327.2973,,,,,,,,,,,,,,,,,,,,,,,,,,327.2973,327.7143,z,1,0.4039,,327.7143,327.7144,,0,147,147,212,1,213,yeryek,,,,,6,harmonic,1.9,,z,nw,,,,,,,
,,,,,,,,,,,878415,,001,2024-02-17_22h37.14.107,VH_new_version2,2023.2.3,Win32,59.88023952,327.7147,328.7143,,,,,,,,,,,,,,,,,,,,,,,,,,328.7144,329.364,z,1,0.6366,,329.3641,329.3642,,0,148,148,188,1,189,yahat,,,,,5,harmonic,1.8,,z,nw,,,,,,,
,,,,,,,,,,,878415,,001,2024-02-17_22h37.14.107,VH_new_version2,2023.2.3,Win32,59.88023952,329.3648,330.3639,,,,,,,,,,,,,,,,,,,,,,,,,,330.364,330.864,z,1,0.4817,,330.8641,330.8643,,0,149,149,259,1,260,kiyaf,,,,,5,notharmonic,1.95,,z,nw,,,,,,,
,,,,,,,,,,,878415,,001,2024-02-17_22h37.14.107,VH_new_version2,2023.2.3,Win32,59.88023952,330.8647,331.8639,,,,,,,,,,,,,,,,,,,,,,,,,,331.864,332.4482,z,1,0.5701,,332.4482,332.4483,,0,150,150,200,1,201,tuzrak,,,,,6,harmonic,1.95,,z,nw,,,,,,,
,,,,,,,,,,,878415,,001,2024-02-17_22h37.14.107,VH_new_version2,2023.2.3,Win32,59.88023952,332.4485,333.4475,,,,,,,,,,,,,,,,,,,,,,,,,,333.4475,334.1806,z,1,0.7132,,334.1807,334.1807,,0,151,151,160,1,161,ünte,,,,,4,harmonic,1.65,,z,nw,,,,,,,
,,,,,,,,,,,878415,,001,2024-02-17_22h37.14.107,VH_new_version2,2023.2.3,Win32,59.88023952,334.181,335.181,,,,,,,,,,,,,,,,,,,,,,,,,,335.181,335.7139,z,1,0.5218,,335.7139,335.714,,0,152,152,229,1,230,irar,,,,,4,notharmonic,1.65,,z,nw,,,,,,,
,,,,,,,,,,,878415,,001,2024-02-17_22h37.14.107,VH_new_version2,2023.2.3,Win32,59.88023952,335.7144,336.7141,,,,,,,,,,,,,,,,,,,,,,,,,,336.7142,337.4807,m,1,0.7505,,337.4808,337.4809,,0,153,153,1,1,2,ufuk,437,19.8555,403,0.0441,4,harmonic,1.85,4.297880828,m,w,,,,,,,
,,,,,,,,,,,878415,,001,2024-02-17_22h37.14.107,VH_new_version2,2023.2.3,Win32,59.88023952,337.4813,338.4808,,,,,,,,,,,,,,,,,,,,,,,,,,338.4809,339.0311,z,1,0.5304,,339.0311,339.0312,,0,154,154,147,1,148,üyöm,,,,,4,harmonic,1.95,,z,nw,,,,,,,
,,,,,,,,,,,878415,,001,2024-02-17_22h37.14.107,VH_new_version2,2023.2.3,Win32,59.88023952,339.0317,340.031,,,,,,,,,,,,,,,,,,,,,,,,,,340.031,340.6644,z,1,0.6143,,340.6645,340.6647,,0,155,155,187,1,188,ahfam,,,,,5,harmonic,1.85,,z,nw,,,,,,,
,,,,,,,,,,,878415,,001,2024-02-17_22h37.14.107,VH_new_version2,2023.2.3,Win32,59.88023952,340.6651,341.6639,,,,,,,,,,,,,,,,,,,,,,,,,,341.6639,342.2475,m,1,0.5723,,342.2476,342.2478,,0,156,156,114,1,115,ayak,2143,97.3694,1931,0.2111,4,harmonic,1,4.988422494,m,w,,,,,,,
,,,,,,,,,,,878415,,001,2024-02-17_22h37.14.107,VH_new_version2,2023.2.3,Win32,59.88023952,342.2482,343.2474,,,,,,,,,,,,,,,,,,,,,,,,,,343.2475,343.9975,m,1,0.7303,,343.9975,343.9977,,0,157,157,76,1,77,koltuk,559,25.3987,476,0.052,6,harmonic,1.75,4.404811488,m,w,,,,,,,
,,,,,,,,,,,878415,,001,2024-02-17_22h37.14.107,VH_new_version2,2023.2.3,Win32,59.88023952,343.9981,344.9977,,,,,,,,,,,,,,,,,,,,,,,,,,344.9977,345.5471,m,0,0.5422,,345.5471,345.5473,,0,158,158,195,1,196,çoflak,,,,,6,harmonic,2,,z,nw,,,,,,,
,,,,,,,,,,,878415,,001,2024-02-17_22h37.14.107,VH_new_version2,2023.2.3,Win32,59.88023952,345.5475,346.5478,,,,,,,,,,,,,,,,,,,,,,,,,,346.5479,347.1474,z,1,0.5849,,347.1475,347.1476,,0,159,159,269,1,270,sakate,,,,,6,notharmonic,1.8,,z,nw,,,,,,,
,,,,,,,,,,,878415,,001,2024-02-17_22h37.14.107,VH_new_version2,2023.2.3,Win32,59.88023952,347.148,348.1475,,,,,,,,,,,,,,,,,,,,,,,,,,348.1477,348.7474,z,1,0.5843,,348.7474,348.7476,,0,160,160,270,1,271,meşkup,,,,,6,notharmonic,1.95,,z,nw,,,,,,,
,,,,,,,,,,,878415,,001,2024-02-17_22h37.14.107,VH_new_version2,2023.2.3,Win32,59.88023952,348.7481,349.7475,,,,,,,,,,,,,,,,,,,,,,,,,,349.7476,350.2974,m,1,0.5422,,350.2974,350.2976,,0,161,161,34,1,35,çorba,1674,76.0599,1513,0.1654,5,harmonic,1.75,4.88115575,m,w,,,,,,,
,,,,,,,,,,,878415,,001,2024-02-17_22h37.14.107,VH_new_version2,2023.2.3,Win32,59.88023952,350.2978,351.2973,,,,,,,,,,,,,,,,,,,,,,,,,,351.2973,351.8478,m,1,0.5432,,351.8478,351.8478,,0,162,162,105,1,106,hasta,2431,110.455,2140,0.2339,5,harmonic,1,5.04318538,m,w,,,,,,,
,,,,,,,,,,,878415,,001,2024-02-17_22h37.14.107,VH_new_version2,2023.2.3,Win32,59.88023952,351.8482,352.8473,,,,,,,,,,,,,,,,,,,,,,,,,,352.8473,353.4143,m,1,0.5481,,353.4144,353.4149,,0,163,163,94,1,95,bebek,3301,149.9843,2794,0.3054,5,harmonic,1.6,5.176045801,m,w,,,,,,,
,,,,,,,,,,,878415,,001,2024-02-17_22h37.14.107,VH_new_version2,2023.2.3,Win32,59.88023952,353.4152,354.4142,,,,,,,,,,,,,,,,,,,,,,,,,,354.4143,354.831,m,1,0.3986,,354.8311,354.8311,,0,164,164,15,1,16,ışık,1814,82.421,1635,0.1787,4,harmonic,1.6,4.916037879,m,w,,,,,,,
,,,,,,,,,,,878415,,001,2024-02-17_22h37.14.107,VH_new_version2,2023.2.3,Win32,59.88023952,354.8314,355.8306,,,,,,,,,,,,,,,,,,,,,,,,,,355.8306,356.4474,m,1,0.6059,,356.4474,356.4475,,0,165,165,89,1,90,sonuç,3768,171.203,3626,0.3964,5,harmonic,1.8,5.233511371,m,w,,,,,,,
,,,,,,,,,,,878415,,001,2024-02-17_22h37.14.107,VH_new_version2,2023.2.3,Win32,59.88023952,356.4479,357.4475,,,,,,,,,,,,,,,,,,,,,,,,,,357.4475,357.8974,m,1,0.4414,,357.8974,357.8975,,0,166,166,59,1,60,zengin,2193,99.6412,2015,0.2203,6,harmonic,1.65,4.998438949,m,w,,,,,,,
,,,,,,,,,,,878415,,001,2024-02-17_22h37.14.107,VH_new_version2,2023.2.3,Win32,59.88023952,357.8977,358.8976,,,,,,,,,,,,,,,,,,,,,,,,,,358.8976,359.3975,m,1,0.4826,,359.3976,359.3978,,0,167,167,88,1,89,yorum,3801,172.7024,3473,0.3797,5,harmonic,1.1,5.237298373,m,w,,,,,,,
,,,,,,,,,,,878415,,001,2024-02-17_22h37.14.107,VH_new_version2,2023.2.3,Win32,59.88023952,359.3983,360.3976,,,,,,,,,,,,,,,,,,,,,,,,,,360.3979,360.7979,m,1,0.3818,,360.7979,360.798,,0,168,168,86,1,87,takım,4370,198.5555,3726,0.4073,5,harmonic,1,5.297881922,m,w,,,,,,,
,,,,,,,,,,,878415,,001,2024-02-17_22h37.14.107,VH_new_version2,2023.2.3,Win32,59.88023952,360.7985,361.7977,,,,,,,,,,,,,,,,,,,,,,,,,,361.7977,362.1641,m,0,0.3561,,362.1641,362.1643,,0,169,169,165,1,166,eyel,,,,,4,harmonic,1.65,,z,nw,,,,,,,
,,,,,,,,,,,878415,,001,2024-02-17_22h37.14.107,VH_new_version2,2023.2.3,Win32,59.88023952,362.1648,363.1643,,,,,,,,,,,,,,,,,,,,,,,,,,363.1643,363.7143,z,1,0.536,,363.7144,363.7144,,0,170,170,164,1,165,üdel,,,,,4,harmonic,1.95,,z,nw,,,,,,,
,,,,,,,,,,,878415,,001,2024-02-17_22h37.14.107,VH_new_version2,2023.2.3,Win32,59.88023952,363.7148,364.7142,,,,,,,,,,,,,,,,,,,,,,,,,,364.7143,365.3308,m,1,0.6015,,365.3308,365.331,,0,171,171,11,1,12,öykü,958,43.5277,849,0.0928,4,harmonic,1.9,4.63876572,m,w,,,,,,,
,,,,,,,,,,,878415,,001,2024-02-17_22h37.14.107,VH_new_version2,2023.2.3,Win32,59.88023952,365.3315,366.3308,,,,,,,,,,,,,,,,,,,,,,,,,,366.3309,366.881,m,1,0.5319,,366.881,366.8812,,0,172,172,125,1,126,bardak,1728,78.5135,1569,0.1715,6,harmonic,1.6,4.894944338,m,w,,,,,,,
,,,,,,,,,,,878415,,001,2024-02-17_22h37.14.107,VH_new_version2,2023.2.3,Win32,59.88023952,366.8818,367.8809,,,,,,,,,,,,,,,,,,,,,,,,,,367.8811,368.4976,z,1,0.6014,,368.4976,368.4978,,0,173,173,166,1,167,dokoş,,,,,5,harmonic,2,,z,nw,,,,,,,
,,,,,,,,,,,878415,,001,2024-02-17_22h37.14.107,VH_new_version2,2023.2.3,Win32,59.88023952,368.4981,369.4975,,,,,,,,,,,,,,,,,,,,,,,,,,369.4975,369.9976,z,1,0.4912,,369.9976,369.9978,,0,174,174,163,1,164,küvü,,,,,4,harmonic,1.7,,z,nw,,,,,,,
,,,,,,,,,,,878415,,001,2024-02-17_22h37.14.107,VH_new_version2,2023.2.3,Win32,59.88023952,369.9982,370.9975,,,,,,,,,,,,,,,,,,,,,,,,,,370.9976,371.9142,m,1,0.8996,,371.9143,371.9144,,0,175,175,64,1,65,teknik,3297,149.8026,2798,0.3059,6,harmonic,1.9,5.175519351,m,w,,,,,,,
,,,,,,,,,,,878415,,001,2024-02-17_22h37.14.107,VH_new_version2,2023.2.3,Win32,59.88023952,371.9148,372.9142,,,,,,,,,,,,,,,,,,,,,,,,,,372.9143,373.5311,m,1,0.5972,,373.5312,373.5314,,0,176,176,55,1,56,zeytin,904,41.0742,758,0.0829,6,harmonic,1.85,4.613569113,m,w,,,,,,,
,,,,,,,,,,,878415,,001,2024-02-17_22h37.14.107,VH_new_version2,2023.2.3,Win32,59.88023952,373.5318,374.5312,,,,,,,,,,,,,,,,,,,,,,,,,,374.5312,375.2474,z,0,0.7052,,375.2476,375.2479,,0,177,177,115,1,116,doğu,2105,95.6429,1823,0.1993,4,harmonic,1.05,4.980652736,m,w,,,,,,,
,,,,,,,,,,,878415,,001,2024-02-17_22h37.14.107,VH_new_version2,2023.2.3,Win32,59.88023952,375.2482,376.2479,,,,,,,,,,,,,,,,,,,,,,,,,,376.2479,377.0974,z,1,0.838,,377.0975,377.0977,,0,178,178,256,1,257,betaş,,,,,5,notharmonic,1.85,,z,nw,,,,,,,
,,,,,,,,,,,878415,,001,2024-02-17_22h37.14.107,VH_new_version2,2023.2.3,Win32,59.88023952,377.0981,378.0974,,,,,,,,,,,,,,,,,,,,,,,,,,378.0974,378.9144,z,1,0.7997,,378.9145,378.9147,,0,179,179,236,1,237,alte,,,,,4,notharmonic,1.7,,z,nw,,,,,,,
,,,,,,,,,,,878415,,001,2024-02-17_22h37.14.107,VH_new_version2,2023.2.3,Win32,59.88023952,378.915,379.9143,,,,,,,,,,,,,,,,,,,,,,,,,,379.9143,380.5642,m,1,0.6318,,380.5642,380.5644,,0,180,180,123,1,124,yıldız,1775,80.649,1532,0.1675,6,harmonic,1.6,4.906598987,m,w,,,,,,,
,,,,,,,,,,,878415,,001,2024-02-17_22h37.14.107,VH_new_version2,2023.2.3,Win32,59.88023952,380.5651,381.5643,,,,,,,,,,,,,,,,,,,,,,,,,,381.5644,382.1308,m,1,0.5587,,382.1309,382.131,,0,181,181,124,1,125,sultan,1756,79.7857,1368,0.1496,6,harmonic,1.55,4.90192506,m,w,,,,,,,
,,,,,,,,,,,878415,,001,2024-02-17_22h37.14.107,VH_new_version2,2023.2.3,Win32,59.88023952,382.1314,383.1308,,,,,,,,,,,,,,,,,,,,,,,,,,383.1308,383.6812,m,1,0.5403,,383.6813,383.6814,,0,182,182,5,1,6,üzüm,716,32.5322,588,0.0643,4,harmonic,1.45,4.512313434,m,w,,,,,,,
,,,,,,,,,,,878415,,001,2024-02-17_22h37.14.107,VH_new_version2,2023.2.3,Win32,59.88023952,383.6817,384.6811,,,,,,,,,,,,,,,,,,,,,,,,,,384.6812,385.1642,m,1,0.4653,,385.1643,385.1644,,0,183,183,139,1,140,teklif,913,41.4831,848,0.0927,6,harmonic,1.7,4.617871203,m,w,,,,,,,
,,,,,,,,,,,878415,,001,2024-02-17_22h37.14.107,VH_new_version2,2023.2.3,Win32,59.88023952,385.1649,386.1641,,,,,,,,,,,,,,,,,,,,,,,,,,386.1641,386.8142,z,1,0.6346,,386.8143,386.8144,,0,184,184,258,1,259,ihati,,,,,5,notharmonic,1.95,,z,nw,,,,,,,
,,,,,,,,,,,878415,,001,2024-02-17_22h37.14.107,VH_new_version2,2023.2.3,Win32,59.88023952,386.8148,387.814,,,,,,,,,,,,,,,,,,,,,,,,,,387.814,388.4477,m,1,0.6139,,388.4478,388.448,,0,185,185,14,1,15,ocak,1685,76.5597,1548,0.1692,4,harmonic,1.9,4.884000223,m,w,,,,,,,
,,,,,,,,,,,878415,,001,2024-02-17_22h37.14.107,VH_new_version2,2023.2.3,Win32,59.88023952,388.4484,389.4476,,,,,,,,,,,,,,,,,,,,,,,,,,389.4477,390.0975,z,1,0.6317,,390.0977,390.0979,,0,186,186,221,1,222,mane,,,,,4,notharmonic,1.4,,z,nw,,,,,,,
,,,,,,,,,,,878415,,001,2024-02-17_22h37.14.107,VH_new_version2,2023.2.3,Win32,59.88023952,390.0981,391.0976,,,,,,,,,,,,,,,,,,,,,,,,,,391.0979,391.7311,z,1,0.6147,,391.7312,391.7314,,0,187,187,267,1,268,tapare,,,,,6,notharmonic,1.95,,z,nw,,,,,,,
,,,,,,,,,,,878415,,001,2024-02-17_22h37.14.107,VH_new_version2,2023.2.3,Win32,59.88023952,391.7317,392.7309,,,,,,,,,,,,,,,,,,,,,,,,,,392.7309,393.3479,m,1,0.5993,,393.3479,393.3481,,0,188,188,118,1,119,fırsat,1952,88.6911,1863,0.2037,6,harmonic,1.85,4.947880041,m,w,,,,,,,
,,,,,,,,,,,878415,,001,2024-02-17_22h37.14.107,VH_new_version2,2023.2.3,Win32,59.88023952,393.3485,394.3477,,,,,,,,,,,,,,,,,,,,,,,,,,394.3478,394.8644,m,1,0.5026,,394.8646,394.8647,,0,189,189,45,1,46,akşam,7480,339.8615,6833,0.747,5,harmonic,1.6,5.53130197,m,w,,,,,,,
,,,,,,,,,,,878415,,001,2024-02-17_22h37.14.107,VH_new_version2,2023.2.3,Win32,59.88023952,394.8658,395.8645,,,,,,,,,,,,,,,,,,,,,,,,,,395.8645,396.5809,z,1,0.7039,,396.5809,396.5811,,0,190,190,226,1,227,şüda,,,,,4,notharmonic,1.9,,z,nw,,,,,,,
,,,,,,,,,,,878415,,001,2024-02-17_22h37.14.107,VH_new_version2,2023.2.3,Win32,59.88023952,396.5816,397.5811,,,,,,,,,,,,,,,,,,,,,,,,,,397.5812,398.0309,m,1,0.4414,,398.0311,398.0312,,0,191,191,119,1,120,cuma,1941,88.1913,1774,0.1939,4,harmonic,1.3,4.945425744,m,w,,,,,,,
,,,,,,,,,,,878415,,001,2024-02-17_22h37.14.107,VH_new_version2,2023.2.3,Win32,59.88023952,398.0316,399.0311,,,,,,,,,,,,,,,,,,,,,,,,,,399.0311,399.5476,z,1,0.4983,,399.5476,399.548,,0,192,192,142,1,143,öbeh,,,,,4,harmonic,1.95,,z,nw,,,,,,,
,,,,,,,,,,,878415,,001,2024-02-17_22h37.14.107,VH_new_version2,2023.2.3,Win32,59.88023952,399.5484,400.5481,,,,,,,,,,,,,,,,,,,,,,,,,,400.5482,401.2644,m,1,0.6983,,401.2644,401.2646,,0,193,193,57,1,58,bayram,1948,88.5094,1648,0.1802,6,harmonic,1.85,4.946989397,m,w,,,,,,,
,,,,,,,,,,,878415,,001,2024-02-17_22h37.14.107,VH_new_version2,2023.2.3,Win32,59.88023952,401.265,402.2643,,,,,,,,,,,,,,,,,,,,,,,,,,402.2645,402.9311,m,1,0.6537,,402.9311,402.9312,,0,194,194,69,1,70,yüksek,7909,359.3536,7119,0.7783,6,harmonic,1.7,5.555522,m,w,,,,,,,
,,,,,,,,,,,878415,,001,2024-02-17_22h37.14.107,VH_new_version2,2023.2.3,Win32,59.88023952,402.9317,403.9309,,,,,,,,,,,,,,,,,,,,,,,,,,403.9309,404.3145,m,1,0.3679,,404.3146,404.3149,,0,195,195,61,1,62,yağmur,2491,113.1812,2156,0.2357,6,harmonic,1.9,5.053774294,m,w,,,,,,,
,,,,,,,,,,,878415,,001,2024-02-17_22h37.14.107,VH_new_version2,2023.2.3,Win32,59.88023952,404.3152,405.3145,,,,,,,,,,,,,,,,,,,,,,,,,,405.3145,405.8474,m,1,0.521,,405.8475,405.8476,,0,196,196,107,1,108,isim,2366,107.5017,2163,0.2365,4,harmonic,1,5.031415332,m,w,,,,,,,
,,,,,,,,,,,878415,,001,2024-02-17_22h37.14.107,VH_new_version2,2023.2.3,Win32,59.88023952,405.8479,406.8478,,,,,,,,,,,,,,,,,,,,,,,,,,406.8479,407.2143,m,1,0.3546,,407.2143,407.2144,,0,197,197,35,1,36,araba,1704,77.423,1485,0.1623,5,harmonic,1,4.888869995,m,w,,,,,,,
,,,,,,,,,,,878415,,001,2024-02-17_22h37.14.107,VH_new_version2,2023.2.3,Win32,59.88023952,407.2149,408.2142,,,,,,,,,,,,,,,,,,,,,,,,,,408.2143,408.5647,m,0,0.3307,,408.5647,408.5649,,0,198,198,248,1,249,talif,,,,,5,notharmonic,1.5,,z,nw,,,,,,,
,,,,,,,,,,,878415,,001,2024-02-17_22h37.14.107,VH_new_version2,2023.2.3,Win32,59.88023952,408.5653,409.5645,,,,,,,,,,,,,,,,,,,,,,,,,,409.5645,409.9809,m,1,0.4064,,409.9809,409.9812,,0,199,199,60,1,61,nefret,2429,110.3641,2115,0.2312,6,harmonic,1.8,5.042827826,m,w,,,,,,,
,,,,,,,,,,,878415,,001,2024-02-17_22h37.14.107,VH_new_version2,2023.2.3,Win32,59.88023952,409.9814,410.9811,,,,,,,,,,,,,,,,,,,,,,,,,,410.9811,411.3476,m,0,0.3497,,411.3476,411.3477,,0,200,200,169,1,170,senez,,,,,5,harmonic,1.65,,z,nw,,,,,,,
,,,,,,,,,,,878415,,001,2024-02-17_22h37.14.107,VH_new_version2,2023.2.3,Win32,59.88023952,411.3481,412.3477,,,,,,,,,,,,,,,,,,,,,,,,,,412.3477,412.8309,m,1,0.476,,412.8309,412.831,,0,201,201,92,1,93,yarın,3440,156.3,3222,0.3522,5,harmonic,1,5.193958978,m,w,,,,,,,
,,,,,,,,,,,878415,,001,2024-02-17_22h37.14.107,VH_new_version2,2023.2.3,Win32,59.88023952,412.8313,413.8312,,,,,,,,,,,,,,,,,,,,,,,,,,413.8312,414.1976,m,1,0.3471,,414.1977,414.1979,,0,202,202,120,1,121,yedi,1880,85.4197,1729,0.189,4,harmonic,1,4.931558042,m,w,,,,,,,
,,,,,,,,,,,878415,,001,2024-02-17_22h37.14.107,VH_new_version2,2023.2.3,Win32,59.88023952,414.1983,415.1975,,,,,,,,,,,,,,,,,,,,,,,,,,415.1975,415.5811,m,0,0.3654,,415.5812,415.5814,,0,203,203,215,1,216,zali,,,,,4,notharmonic,1.25,,z,nw,,,,,,,
,,,,,,,,,,,878415,,001,2024-02-17_22h37.14.107,VH_new_version2,2023.2.3,Win32,59.88023952,415.5821,416.5811,,,,,,,,,,,,,,,,,,,,,,,,,,416.5811,417.181,z,1,0.5836,,417.181,417.1812,,0,204,204,177,1,178,akapı,,,,,5,harmonic,1.8,,z,nw,,,,,,,
,,,,,,,,,,,878415,,001,2024-02-17_22h37.14.107,VH_new_version2,2023.2.3,Win32,59.88023952,417.1816,418.1809,,,,,,,,,,,,,,,,,,,,,,,,,,418.181,418.7144,m,1,0.5152,,418.7146,418.7148,,0,205,205,77,1,78,çanta,639,29.0336,551,0.0602,5,harmonic,1.6,4.462900889,m,w,,,,,,,
,,,,,,,,,,,878415,,001,2024-02-17_22h37.14.107,VH_new_version2,2023.2.3,Win32,59.88023952,418.7152,419.7148,,,,,,,,,,,,,,,,,,,,,,,,,,419.7149,420.181,m,1,0.4494,,420.1811,420.1812,,0,206,206,19,1,20,baba,3645,165.6143,3131,0.3423,4,harmonic,1,5.219097833,m,w,,,,,,,
,,,,,,,,,,,878415,,001,2024-02-17_22h37.14.107,VH_new_version2,2023.2.3,Win32,59.88023952,420.1816,421.181,,,,,,,,,,,,,,,,,,,,,,,,,,421.1811,421.7146,z,1,0.5233,,421.7146,421.7148,,0,207,207,161,1,162,mağa,,,,,4,harmonic,1.15,,z,nw,,,,,,,
,,,,,,,,,,,878415,,001,2024-02-17_22h37.14.107,VH_new_version2,2023.2.3,Win32,59.88023952,421.7152,422.7145,,,,,,,,,,,,,,,,,,,,,,,,,,422.7146,423.2476,z,1,0.5216,,423.2476,423.2478,,0,208,208,260,1,261,dülda,,,,,5,notharmonic,1.95,,z,nw,,,,,,,
,,,,,,,,,,,878415,,001,2024-02-17_22h37.14.107,VH_new_version2,2023.2.3,Win32,59.88023952,423.2483,424.2478,,,,,,,,,,,,,,,,,,,,,,,,,,424.2478,424.7811,m,1,0.5213,,424.7811,424.7813,,0,209,209,12,1,13,ağaç,1245,56.5679,1082,0.1183,4,harmonic,1.6,4.752570056,m,w,,,,,,,
,,,,,,,,,,,878415,,001,2024-02-17_22h37.14.107,VH_new_version2,2023.2.3,Win32,59.88023952,424.7816,425.7816,,,,,,,,,,,,,,,,,,,,,,,,,,425.7816,426.4479,m,1,0.6468,,426.448,426.4481,,0,210,210,140,1,141,kimlik,867,39.393,726,0.0794,6,harmonic,1.7,4.595419056,m,w,,,,,,,
,,,,,,,,,,,878415,,001,2024-02-17_22h37.14.107,VH_new_version2,2023.2.3,Win32,59.88023952,426.4485,427.4477,,,,,,,,,,,,,,,,,,,,,,,,,,427.4477,427.9145,m,1,0.4486,,427.9145,427.9146,,0,211,211,46,1,47,hayat,7922,359.9443,7314,0.7996,5,harmonic,1.35,5.556235301,m,w,,,,,,,
,,,,,,,,,,,878415,,001,2024-02-17_22h37.14.107,VH_new_version2,2023.2.3,Win32,59.88023952,427.915,428.9146,,,,,,,,,,,,,,,,,,,,,,,,,,428.9146,429.4476,m,1,0.5212,,429.4477,1769.6334,space,0,212,212,17,1,18,sarı,2072,94.1435,1838,0.2009,4,harmonic,1,4.97379034,m,w,1340.1723,,,,,,
,,,,,,,,,,,878415,,001,2024-02-17_22h37.14.107,VH_new_version2,2023.2.3,Win32,59.88023952,1769.6349,1770.6373,,,,,,,,,,,,,,,,,,,,,,,,,,1770.6373,1772.2376,z,1,1.584,,1772.2377,1772.2377,,0,213,213,264,1,265,şingan,,,,,6,notharmonic,2.15,,z,nw,,,,,,,
,,,,,,,,,,,878415,,001,2024-02-17_22h37.14.107,VH_new_version2,2023.2.3,Win32,59.88023952,1772.2381,1773.2336,,,,,,,,,,,,,,,,,,,,,,,,,,1773.2338,1773.92,z,0,0.6673,,1773.92,1773.9201,,0,214,214,110,1,111,akıl,2208,100.3228,2004,0.2191,4,harmonic,1,5.001399645,m,w,,,,,,,
,,,,,,,,,,,878415,,001,2024-02-17_22h37.14.107,VH_new_version2,2023.2.3,Win32,59.88023952,1773.9204,1774.9172,,,,,,,,,,,,,,,,,,,,,,,,,,1774.9174,1775.4012,m,1,0.4534,,1775.4013,1775.4015,,0,215,215,66,1,67,tercih,4577,207.9607,4282,0.4681,6,harmonic,1.7,5.317981271,m,w,,,,,,,
,,,,,,,,,,,878415,,001,2024-02-17_22h37.14.107,VH_new_version2,2023.2.3,Win32,59.88023952,1775.4018,1776.4032,,,,,,,,,,,,,,,,,,,,,,,,,,1776.4032,1776.8553,m,1,0.4345,,1776.8554,1776.8555,,0,216,216,49,1,50,çeyrek,540,24.5355,477,0.0521,6,harmonic,1.9,4.389794913,m,w,,,,,,,
,,,,,,,,,,,878415,,001,2024-02-17_22h37.14.107,VH_new_version2,2023.2.3,Win32,59.88023952,1776.8558,1777.8532,,,,,,,,,,,,,,,,,,,,,,,,,,1777.8532,1778.3204,m,1,0.45,,1778.3204,1778.3205,,0,217,217,44,1,45,erkek,6188,281.1582,5195,0.5679,5,harmonic,1.55,5.448950754,m,w,,,,,,,
,,,,,,,,,,,878415,,001,2024-02-17_22h37.14.107,VH_new_version2,2023.2.3,Win32,59.88023952,1778.3208,1779.3188,,,,,,,,,,,,,,,,,,,,,,,,,,1779.3188,1779.9331,z,1,0.5888,,1779.9332,1779.9333,,0,218,218,159,1,160,daro,,,,,4,harmonic,1.7,,z,nw,,,,,,,
,,,,,,,,,,,878415,,001,2024-02-17_22h37.14.107,VH_new_version2,2023.2.3,Win32,59.88023952,1779.9347,1780.9361,,,,,,,,,,,,,,,,,,,,,,,,,,1780.9361,1781.4999,z,1,0.5424,,1781.5,1781.5006,,0,219,219,246,1,247,masil,,,,,5,notharmonic,1.7,,z,nw,,,,,,,
,,,,,,,,,,,878415,,001,2024-02-17_22h37.14.107,VH_new_version2,2023.2.3,Win32,59.88023952,1781.5015,1782.502,,,,,,,,,,,,,,,,,,,,,,,,,,1782.502,1783.2369,z,1,0.716,,1783.2369,1783.2369,,0,220,220,176,1,177,çırna,,,,,5,harmonic,1.85,,z,nw,,,,,,,
,,,,,,,,,,,878415,,001,2024-02-17_22h37.14.107,VH_new_version2,2023.2.3,Win32,59.88023952,1783.2373,1784.2331,,,,,,,,,,,,,,,,,,,,,,,,,,1784.2332,1784.754,m,1,0.4998,,1784.754,1784.7541,,0,221,221,78,1,79,şişe,478,21.7184,440,0.0481,4,harmonic,1.05,4.336827828,m,w,,,,,,,
,,,,,,,,,,,878415,,001,2024-02-17_22h37.14.107,VH_new_version2,2023.2.3,Win32,59.88023952,1784.7544,1785.7509,,,,,,,,,,,,,,,,,,,,,,,,,,1785.7514,1786.3209,z,1,0.5498,,1786.3209,1786.321,,0,222,222,184,1,185,nekir,,,,,5,harmonic,1.6,,z,nw,,,,,,,
,,,,,,,,,,,878415,,001,2024-02-17_22h37.14.107,VH_new_version2,2023.2.3,Win32,59.88023952,1786.3215,1787.317,,,,,,,,,,,,,,,,,,,,,,,,,,1787.3172,1787.9832,m,1,0.6346,,1787.9835,1787.9841,,0,223,223,18,1,19,ülke,3121,141.8059,2801,0.3062,4,harmonic,1.65,5.151694301,m,w,,,,,,,
,,,,,,,,,,,878415,,001,2024-02-17_22h37.14.107,VH_new_version2,2023.2.3,Win32,59.88023952,1787.9857,1788.9875,,,,,,,,,,,,,,,,,,,,,,,,,,1788.9875,1789.47,m,1,0.4665,,1789.4701,1789.4701,,0,224,224,21,1,22,kötü,9344,424.5543,8257,0.9027,4,harmonic,1.65,5.627933244,m,w,,,,,,,
,,,,,,,,,,,878415,,001,2024-02-17_22h37.14.107,VH_new_version2,2023.2.3,Win32,59.88023952,1789.4704,1790.4668,,,,,,,,,,,,,,,,,,,,,,,,,,1790.4669,1791.1526,z,1,0.6657,,1791.1526,1791.1527,,0,225,225,255,1,256,resap,,,,,5,notharmonic,1.9,,z,nw,,,,,,,
,,,,,,,,,,,878415,,001,2024-02-17_22h37.14.107,VH_new_version2,2023.2.3,Win32,59.88023952,1791.1529,1792.1537,,,,,,,,,,,,,,,,,,,,,,,,,,1792.1537,1793.4048,m,1,1.2346,,1793.4048,1793.4049,,0,226,226,106,1,107,altın,2385,108.3649,2017,0.2205,5,harmonic,1,5.034888635,m,w,,,,,,,
,,,,,,,,,,,878415,,001,2024-02-17_22h37.14.107,VH_new_version2,2023.2.3,Win32,59.88023952,1793.4053,1794.4003,,,,,,,,,,,,,,,,,,,,,,,,,,1794.4005,1795.0542,m,1,0.6338,,1795.0542,1795.0543,,0,227,227,104,1,105,hediye,2501,113.6355,2224,0.2431,6,harmonic,1.7,5.055514027,m,w,,,,,,,
,,,,,,,,,,,878415,,001,2024-02-17_22h37.14.107,VH_new_version2,2023.2.3,Win32,59.88023952,1795.0546,1796.0503,,,,,,,,,,,,,,,,,,,,,,,,,,1796.0505,1796.7171,z,1,0.635,,1796.7174,1796.7178,,0,228,228,146,1,147,öğne,,,,,4,harmonic,1.7,,z,nw,,,,,,,
,,,,,,,,,,,878415,,001,2024-02-17_22h37.14.107,VH_new_version2,2023.2.3,Win32,59.88023952,1796.7181,1797.7202,,,,,,,,,,,,,,,,,,,,,,,,,,1797.7202,1798.2212,z,0,0.4837,,1798.2213,1798.2213,,0,229,229,72,1,73,uğur,787,35.7582,666,0.0728,4,harmonic,1.6,4.553375649,m,w,,,,,,,
,,,,,,,,,,,878415,,001,2024-02-17_22h37.14.107,VH_new_version2,2023.2.3,Win32,59.88023952,1798.2217,1799.2173,,,,,,,,,,,,,,,,,,,,,,,,,,1799.2175,1799.8335,z,1,0.5861,,1799.8337,1799.8344,,0,230,230,271,1,272,yakele,,,,,6,notharmonic,2,,z,nw,,,,,,,
,,,,,,,,,,,878415,,001,2024-02-17_22h37.14.107,VH_new_version2,2023.2.3,Win32,59.88023952,1799.835,1800.8369,,,,,,,,,,,,,,,,,,,,,,,,,,1800.8369,1801.42,z,1,0.5674,,1801.4201,1801.4201,,0,231,231,227,1,228,esta,,,,,4,notharmonic,1.7,,z,nw,,,,,,,
,,,,,,,,,,,878415,,001,2024-02-17_22h37.14.107,VH_new_version2,2023.2.3,Win32,59.88023952,1801.4204,1802.4175,,,,,,,,,,,,,,,,,,,,,,,,,,1802.4176,1802.9203,z,1,0.4836,,1802.9203,1802.9204,,0,232,232,278,1,279,avalün,,,,,6,notharmonic,2.2,,z,nw,,,,,,,
,,,,,,,,,,,878415,,001,2024-02-17_22h37.14.107,VH_new_version2,2023.2.3,Win32,59.88023952,1802.9209,1803.9179,,,,,,,,,,,,,,,,,,,,,,,,,,1803.9179,1804.4702,m,1,0.5339,,1804.4703,1804.4703,,0,233,233,53,1,54,çıplak,819,37.2121,766,0.0837,6,harmonic,2,4.570684179,m,w,,,,,,,
,,,,,,,,,,,878415,,001,2024-02-17_22h37.14.107,VH_new_version2,2023.2.3,Win32,59.88023952,1804.4706,1805.47,,,,,,,,,,,,,,,,,,,,,,,,,,1805.47,1805.8333,m,0,0.3463,,1805.8334,1805.834,,0,234,234,148,1,149,aşıç,,,,,4,harmonic,1.65,,z,nw,,,,,,,
,,,,,,,,,,,878415,,001,2024-02-17_22h37.14.107,VH_new_version2,2023.2.3,Win32,59.88023952,1805.8349,1806.8369,,,,,,,,,,,,,,,,,,,,,,,,,,1806.8369,1807.6203,m,0,0.7674,,1807.6203,1807.6204,,0,235,235,223,1,224,mame,,,,,4,notharmonic,1.65,,z,nw,,,,,,,
,,,,,,,,,,,878415,,001,2024-02-17_22h37.14.107,VH_new_version2,2023.2.3,Win32,59.88023952,1807.6207,1808.6202,,,,,,,,,,,,,,,,,,,,,,,,,,1808.6202,1809.0538,z,0,0.4173,,1809.0538,1809.0538,,0,236,236,136,1,137,tebrik,1117,50.7521,1102,0.1205,6,harmonic,1.85,4.705454017,m,w,,,,,,,
,,,,,,,,,,,878415,,001,2024-02-17_22h37.14.107,VH_new_version2,2023.2.3,Win32,59.88023952,1809.0541,1810.0502,,,,,,,,,,,,,,,,,,,,,,,,,,1810.0503,1810.5712,z,1,0.5009,,1810.5713,1810.5714,,0,237,237,251,1,252,madit,,,,,5,notharmonic,1.9,,z,nw,,,,,,,
,,,,,,,,,,,878415,,001,2024-02-17_22h37.14.107,VH_new_version2,2023.2.3,Win32,59.88023952,1810.5716,1811.5693,,,,,,,,,,,,,,,,,,,,,,,,,,1811.5693,1812.1333,z,1,0.5409,,1812.1339,1812.1348,,0,238,238,154,1,155,afap,,,,,4,harmonic,1.7,,z,nw,,,,,,,
,,,,,,,,,,,878415,,001,2024-02-17_22h37.14.107,VH_new_version2,2023.2.3,Win32,59.88023952,1812.1351,1813.1371,,,,,,,,,,,,,,,,,,,,,,,,,,1813.1372,1813.6381,m,1,0.4843,,1813.6381,1813.6381,,0,239,239,83,1,84,şafak,616,27.9886,521,0.057,5,harmonic,1.8,4.446981175,m,w,,,,,,,
,,,,,,,,,,,878415,,001,2024-02-17_22h37.14.107,VH_new_version2,2023.2.3,Win32,59.88023952,1813.6385,1814.6372,,,,,,,,,,,,,,,,,,,,,,,,,,1814.6372,1815.1709,z,1,0.5172,,1815.1709,1815.171,,0,240,240,243,1,244,kuyef,,,,,5,notharmonic,2.3,,z,nw,,,,,,,
,,,,,,,,,,,878415,,001,2024-02-17_22h37.14.107,VH_new_version2,2023.2.3,Win32,59.88023952,1815.1713,1816.1671,,,,,,,,,,,,,,,,,,,,,,,,,,1816.1673,1816.6707,m,1,0.4831,,1816.6707,1816.6709,,0,241,241,65,1,66,destek,3328,151.2111,3065,0.3351,6,harmonic,1.85,5.179583673,m,w,,,,,,,
,,,,,,,,,,,878415,,001,2024-02-17_22h37.14.107,VH_new_version2,2023.2.3,Win32,59.88023952,1816.6711,1817.6711,,,,,,,,,,,,,,,,,,,,,,,,,,1817.6711,1818.2509,z,1,0.5547,,1818.251,1818.2514,,0,242,242,232,1,233,leda,,,,,4,notharmonic,1.6,,z,nw,,,,,,,
,,,,,,,,,,,878415,,001,2024-02-17_22h37.14.107,VH_new_version2,2023.2.3,Win32,59.88023952,1818.2518,1819.2539,,,,,,,,,,,,,,,,,,,,,,,,,,1819.254,1819.8547,m,1,0.5842,,1819.8548,1819.8548,,0,243,243,137,1,138,mutfak,1110,50.434,1032,0.1128,6,harmonic,1.95,4.702723414,m,w,,,,,,,
,,,,,,,,,,,878415,,001,2024-02-17_22h37.14.107,VH_new_version2,2023.2.3,Win32,59.88023952,1819.8551,1820.854,,,,,,,,,,,,,,,,,,,,,,,,,,1820.854,1821.5167,m,1,0.6355,,1821.5168,1821.5175,,0,244,244,39,1,40,mayıs,2630,119.4968,2294,0.2508,5,harmonic,1.75,5.077356275,m,w,,,,,,,
,,,,,,,,,,,878415,,001,2024-02-17_22h37.14.107,VH_new_version2,2023.2.3,Win32,59.88023952,1821.5184,1822.5167,,,,,,,,,,,,,,,,,,,,,,,,,,1822.5168,1823.1693,m,1,0.6316,,1823.1693,1823.1694,,0,245,245,33,1,34,sayfa,1655,75.1966,1502,0.1642,5,harmonic,1.45,4.876198204,m,w,,,,,,,
,,,,,,,,,,,878415,,001,2024-02-17_22h37.14.107,VH_new_version2,2023.2.3,Win32,59.88023952,1823.1697,1824.1713,,,,,,,,,,,,,,,,,,,,,,,,,,1824.1713,1824.7709,m,1,0.5839,,1824.771,1824.7711,,0,246,246,32,1,33,güney,1639,74.4697,1439,0.1573,5,harmonic,1.65,4.871979604,m,w,,,,,,,
,,,,,,,,,,,878415,,001,2024-02-17_22h37.14.107,VH_new_version2,2023.2.3,Win32,59.88023952,1824.7714,1825.7705,,,,,,,,,,,,,,,,,,,,,,,,,,1825.7705,1826.3504,z,1,0.5633,,1826.3506,1826.3513,,0,247,247,272,1,273,takime,,,,,6,notharmonic,1.5,,z,nw,,,,,,,
,,,,,,,,,,,878415,,001,2024-02-17_22h37.14.107,VH_new_version2,2023.2.3,Win32,59.88023952,1826.3516,1827.3529,,,,,,,,,,,,,,,,,,,,,,,,,,1827.353,1828.0543,m,1,0.6847,,1828.0544,1828.0544,,0,248,248,40,1,41,temel,4231,192.2399,3851,0.421,5,harmonic,1.55,5.283843532,m,w,,,,,,,
,,,,,,,,,,,878415,,001,2024-02-17_22h37.14.107,VH_new_version2,2023.2.3,Win32,59.88023952,1828.0549,1829.0534,,,,,,,,,,,,,,,,,,,,,,,,,,1829.0534,1829.6037,z,1,0.5339,,1829.6039,1829.604,,0,249,249,209,1,210,soğkal,,,,,6,harmonic,2.1,,z,nw,,,,,,,
,,,,,,,,,,,878415,,001,2024-02-17_22h37.14.107,VH_new_version2,2023.2.3,Win32,59.88023952,1829.6043,1830.6004,,,,,,,,,,,,,,,,,,,,,,,,,,1830.6006,1831.2668,z,1,0.6424,,1831.2669,1831.2674,,0,250,250,268,1,269,mucepi,,,,,6,notharmonic,2.85,,z,nw,,,,,,,
,,,,,,,,,,,878415,,001,2024-02-17_22h37.14.107,VH_new_version2,2023.2.3,Win32,59.88023952,1831.2684,1832.2697,,,,,,,,,,,,,,,,,,,,,,,,,,1832.2697,1832.837,z,1,0.5506,,1832.837,1832.837,,0,251,251,185,1,186,birpi,,,,,5,harmonic,1.75,,z,nw,,,,,,,
,,,,,,,,,,,878415,,001,2024-02-17_22h37.14.107,VH_new_version2,2023.2.3,Win32,59.88023952,1832.8374,1833.8372,,,,,,,,,,,,,,,,,,,,,,,,,,1833.8372,1834.3704,z,1,0.5172,,1834.3704,1834.3705,,0,252,252,198,1,199,tenlek,,,,,6,harmonic,1.85,,z,nw,,,,,,,
,,,,,,,,,,,878415,,001,2024-02-17_22h37.14.107,VH_new_version2,2023.2.3,Win32,59.88023952,1834.3708,1835.37,,,,,,,,,,,,,,,,,,,,,,,,,,1835.3701,1835.9854,z,1,0.5857,,1835.9854,1835.9857,,0,253,253,230,1,231,asez,,,,,4,notharmonic,1.9,,z,nw,,,,,,,
,,,,,,,,,,,878415,,001,2024-02-17_22h37.14.107,VH_new_version2,2023.2.3,Win32,59.88023952,1835.9861,1836.9867,,,,,,,,,,,,,,,,,,,,,,,,,,1836.9867,1837.4007,z,0,0.3888,,1837.4008,1837.4014,,0,254,254,31,1,32,pembe,1549,70.3804,1327,0.1451,5,harmonic,2,4.847451731,m,w,,,,,,,
,,,,,,,,,,,878415,,001,2024-02-17_22h37.14.107,VH_new_version2,2023.2.3,Win32,59.88023952,1837.4018,1838.4012,,,,,,,,,,,,,,,,,,,,,,,,,,1838.4015,1839.0036,m,1,0.5832,,1839.0036,1839.0037,,0,255,255,100,1,101,ekmek,2734,124.2221,2318,0.2534,5,harmonic,1.3,5.094198867,m,w,,,,,,,
,,,,,,,,,,,878415,,001,2024-02-17_22h37.14.107,VH_new_version2,2023.2.3,Win32,59.88023952,1839.0039,1840.0023,,,,,,,,,,,,,,,,,,,,,,,,,,1840.0023,1840.6843,m,1,0.6545,,1840.6845,1840.6848,,0,256,256,43,1,44,bilgi,5981,271.7529,5353,0.5852,5,harmonic,1.5,5.434174187,m,w,,,,,,,
,,,,,,,,,,,878415,,001,2024-02-17_22h37.14.107,VH_new_version2,2023.2.3,Win32,59.88023952,1840.6852,1841.6852,,,,,,,,,,,,,,,,,,,,,,,,,,1841.6852,1842.2214,m,1,0.5173,,1842.2215,1842.2216,,0,257,257,134,1,135,araç,1182,53.7054,1050,0.1148,4,harmonic,1.25,4.730017956,m,w,,,,,,,
,,,,,,,,,,,878415,,001,2024-02-17_22h37.14.107,VH_new_version2,2023.2.3,Win32,59.88023952,1842.222,1843.2205,,,,,,,,,,,,,,,,,,,,,,,,,,1843.2205,1843.6359,m,1,0.3989,,1843.636,1843.636,,0,258,258,85,1,86,güneş,4371,198.6009,3610,0.3946,5,harmonic,1.7,5.297981212,m,w,,,,,,,
,,,,,,,,,,,878415,,001,2024-02-17_22h37.14.107,VH_new_version2,2023.2.3,Win32,59.88023952,1843.6363,1844.6379,,,,,,,,,,,,,,,,,,,,,,,,,,1844.6379,1845.2543,z,1,0.6004,,1845.2543,1845.2544,,0,259,259,281,1,282,tashin,,,,,6,notharmonic,1.85,,z,nw,,,,,,,
,,,,,,,,,,,878415,,001,2024-02-17_22h37.14.107,VH_new_version2,2023.2.3,Win32,59.88023952,1845.2547,1846.2546,,,,,,,,,,,,,,,,,,,,,,,,,,1846.2546,1846.8876,m,1,0.6173,,1846.8877,1846.8878,,0,260,260,23,1,24,evet,12599,572.4486,11447,1.2514,4,harmonic,1.65,5.757736498,m,w,,,,,,,
,,,,,,,,,,,878415,,001,2024-02-17_22h37.14.107,VH_new_version2,2023.2.3,Win32,59.88023952,1846.888,1847.8849,,,,,,,,,,,,,,,,,,,,,,,,,,1847.885,1848.6035,z,1,0.6999,,1848.6035,1848.6036,,0,261,261,182,1,183,tesil,,,,,5,harmonic,1.45,,z,nw,,,,,,,
,,,,,,,,,,,878415,,001,2024-02-17_22h37.14.107,VH_new_version2,2023.2.3,Win32,59.88023952,1848.604,1849.602,,,,,,,,,,,,,,,,,,,,,,,,,,1849.6022,1850.2339,m,1,0.6031,,1850.234,1850.2345,,0,262,262,113,1,114,görev,2159,98.0964,1998,0.2184,5,harmonic,1.75,4.99165307,m,w,,,,,,,
,,,,,,,,,,,878415,,001,2024-02-17_22h37.14.107,VH_new_version2,2023.2.3,Win32,59.88023952,1850.2351,1851.2338,,,,,,,,,,,,,,,,,,,,,,,,,,1851.2341,1851.817,z,1,0.5537,,1851.8172,1851.8177,,0,263,263,277,1,278,şeylam,,,,,6,notharmonic,2,,z,nw,,,,,,,
,,,,,,,,,,,878415,,001,2024-02-17_22h37.14.107,VH_new_version2,2023.2.3,Win32,59.88023952,1851.8184,1852.8196,,,,,,,,,,,,,,,,,,,,,,,,,,1852.8197,1853.4704,m,1,0.6331,,1853.4704,1853.4705,,0,264,264,93,1,94,olay,3415,155.1641,3179,0.3475,4,harmonic,1.5,5.190791247,m,w,,,,,,,
,,,,,,,,,,,878415,,001,2024-02-17_22h37.14.107,VH_new_version2,2023.2.3,Win32,59.88023952,1853.4708,1854.4671,,,,,,,,,,,,,,,,,,,,,,,,,,1854.4673,1854.9872,z,1,0.5002,,1854.9873,1854.9874,,0,265,265,238,1,239,labin,,,,,5,notharmonic,1.65,,z,nw,,,,,,,
,,,,,,,,,,,878415,,001,2024-02-17_22h37.14.107,VH_new_version2,2023.2.3,Win32,59.88023952,1854.9876,1855.9841,,,,,,,,,,,,,,,,,,,,,,,,,,1855.9846,1856.4174,m,1,0.4056,,1856.4176,1856.4182,,0,266,266,30,1,31,pamuk,937,42.5736,826,0.0903,5,harmonic,1.9,4.629140375,m,w,,,,,,,
,,,,,,,,,,,878415,,001,2024-02-17_22h37.14.107,VH_new_version2,2023.2.3,Win32,59.88023952,1856.4186,1857.4174,,,,,,,,,,,,,,,,,,,,,,,,,,1857.4175,1858.1545,m,1,0.7171,,1858.1546,1858.1547,,0,267,267,122,1,123,kapı,1792,81.4214,1566,0.1712,4,harmonic,1,4.910738566,m,w,,,,,,,
,,,,,,,,,,,878415,,001,2024-02-17_22h37.14.107,VH_new_version2,2023.2.3,Win32,59.88023952,1858.1549,1859.1534,,,,,,,,,,,,,,,,,,,,,,,,,,1859.1534,1859.8537,z,1,0.6837,,1859.8538,1859.8538,,0,268,268,233,1,234,eali,,,,,4,notharmonic,1,,z,nw,,,,,,,
,,,,,,,,,,,878415,,001,2024-02-17_22h37.14.107,VH_new_version2,2023.2.3,Win32,59.88023952,1859.854,1860.8539,,,,,,,,,,,,,,,,,,,,,,,,,,1860.8539,1861.538,z,1,0.668,,1861.538,1861.5381,,0,269,269,196,1,197,etçime,,,,,6,harmonic,1.9,,z,nw,,,,,,,
,,,,,,,,,,,878415,,001,2024-02-17_22h37.14.107,VH_new_version2,2023.2.3,Win32,59.88023952,1861.5384,1862.5365,,,,,,,,,,,,,,,,,,,,,,,,,,1862.5365,1863.2037,m,1,0.6498,,1863.2037,1863.2038,,0,270,270,111,1,112,balık,2189,99.4595,1817,0.1986,5,harmonic,1,4.997646272,m,w,,,,,,,
,,,,,,,,,,,878415,,001,2024-02-17_22h37.14.107,VH_new_version2,2023.2.3,Win32,59.88023952,1863.2042,1864.2031,,,,,,,,,,,,,,,,,,,,,,,,,,1864.2031,1864.7537,z,1,0.5331,,1864.7537,1864.7538,,0,271,271,151,1,152,uban,,,,,4,harmonic,1.35,,z,nw,,,,,,,
,,,,,,,,,,,878415,,001,2024-02-17_22h37.14.107,VH_new_version2,2023.2.3,Win32,59.88023952,1864.7539,1865.7536,,,,,,,,,,,,,,,,,,,,,,,,,,1865.7537,1866.3878,m,1,0.6181,,1866.3878,1866.388,,0,272,272,3,1,4,otuz,583,26.4892,556,0.0608,4,harmonic,1.45,4.423068842,m,w,,,,,,,
,,,,,,,,,,,878415,,001,2024-02-17_22h37.14.107,VH_new_version2,2023.2.3,Win32,59.88023952,1866.3885,1867.3839,,,,,,,,,,,,,,,,,,,,,,,,,,1867.3841,1868.4876,z,1,1.0842,,1868.4877,1868.4878,,0,273,273,247,1,248,fiyan,,,,,5,notharmonic,1.6,,z,nw,,,,,,,
,,,,,,,,,,,878415,,001,2024-02-17_22h37.14.107,VH_new_version2,2023.2.3,Win32,59.88023952,1868.4881,1869.4873,,,,,,,,,,,,,,,,,,,,,,,,,,1869.4873,1869.9705,z,1,0.4674,,1869.9705,1869.9706,,0,274,274,213,1,214,zale,,,,,4,notharmonic,1.55,,z,nw,,,,,,,
,,,,,,,,,,,878415,,001,2024-02-17_22h37.14.107,VH_new_version2,2023.2.3,Win32,59.88023952,1869.9709,1870.9675,,,,,,,,,,,,,,,,,,,,,,,,,,1870.9678,1871.6039,z,1,0.6164,,1871.604,1871.604,,0,275,275,208,1,209,terbiy,,,,,6,harmonic,1.9,,z,nw,,,,,,,
,,,,,,,,,,,878415,,001,2024-02-17_22h37.14.107,VH_new_version2,2023.2.3,Win32,59.88023952,1871.6043,1872.6042,,,,,,,,,,,,,,,,,,,,,,,,,,1872.6042,1873.1204,z,0,0.5005,,1873.1204,1873.1204,,0,276,276,2,1,3,iğne,515,23.3996,455,0.0497,4,harmonic,1.65,4.369208434,m,w,,,,,,,
,,,,,,,,,,,878415,,001,2024-02-17_22h37.14.107,VH_new_version2,2023.2.3,Win32,59.88023952,1873.1207,1874.1205,,,,,,,,,,,,,,,,,,,,,,,,,,1874.1205,1874.8536,z,1,0.7172,,1874.8536,1874.8537,,0,277,277,250,1,251,hapef,,,,,5,notharmonic,1.95,,z,nw,,,,,,,
,,,,,,,,,,,878415,,001,2024-02-17_22h37.14.107,VH_new_version2,2023.2.3,Win32,59.88023952,1874.8541,1875.8508,,,,,,,,,,,,,,,,,,,,,,,,,,1875.8512,1876.4209,m,1,0.5501,,1876.4209,1876.4211,,0,278,278,0,1,1,ödev,191,8.6783,175,0.0191,4,harmonic,1.6,3.938434659,m,w,,,,,,,
,,,,,,,,,,,878415,,001,2024-02-17_22h37.14.107,VH_new_version2,2023.2.3,Win32,59.88023952,1876.4214,1877.417,,,,,,,,,,,,,,,,,,,,,,,,,,1877.4172,1877.9861,z,1,0.5489,,1877.9861,1877.9862,,0,279,279,239,1,240,kanel,,,,,5,notharmonic,1.9,,z,nw,,,,,,,
,,,,,,,,,,,878415,,001,2024-02-17_22h37.14.107,VH_new_version2,2023.2.3,Win32,59.88023952,1877.9864,1878.9873,,,,,,,,,,,,,,,,,,,,,,,,,,1878.9874,1879.6385,m,1,0.6346,,1879.6386,1879.6386,,0,280,280,63,1,64,hizmet,3023,137.3531,2689,0.294,6,harmonic,1.75,5.137838466,m,w,,,,,,,
,,,,,,,,,,,878415,,001,2024-02-17_22h37.14.107,VH_new_version2,2023.2.3,Win32,59.88023952,1879.6389,1880.6379,,,,,,,,,,,,,,,,,,,,,,,,,,1880.6379,1881.1675,m,1,0.5114,,1881.1676,1881.1682,,0,281,281,95,1,96,sanat,3121,141.8059,2485,0.2717,5,harmonic,1.4,5.151694301,m,w,,,,,,,
,,,,,,,,,,,878415,,001,2024-02-17_22h37.14.107,VH_new_version2,2023.2.3,Win32,59.88023952,1881.1687,1882.1685,,,,,,,,,,,,,,,,,,,,,,,,,,1882.1688,1882.6507,m,1,0.4596,,1882.6509,1882.6514,,0,282,282,68,1,69,devlet,5766,261.9842,4854,0.5306,6,harmonic,1.65,5.4182751,m,w,,,,,,,
,,,,,,,,,,,878415,,001,2024-02-17_22h37.14.107,VH_new_version2,2023.2.3,Win32,59.88023952,1882.6519,1883.6533,,,,,,,,,,,,,,,,,,,,,,,,,,1883.6533,1884.334,m,1,0.6622,,1884.3343,1885.151,space,0,283,283,71,1,72,boya,918,41.7103,799,0.0873,4,harmonic,1,4.620243314,m,w,0.7881,,,,,,
,,,,,,,,,,,878415,,001,2024-02-17_22h37.14.107,VH_new_version2,2023.2.3,Win32,59.88023952,,,,,,,,,,,,,,,,,,,,,,,,,,,,,,,,,,,,,,,,,,,,,,,,,,,,,,,,1885.1518,1885.6874,space,0.5162,