anket.started,anket.stopped,participant,session,date,expName,psychopyVersion,OS,frameRate,Welcome_screen.started,Welcome_screen.stopped,key_respwelcome.keys,key_respwelcome.rt,key_respwelcome.duration,intro_x.thisRepN,intro_x.thisTrialN,intro_x.thisN,intro_x.thisIndex,intro_x.ran,Introduction,Fixation.started,Fixation.stopped,Studypractice.started,Studypractice.stopped,key_respstudy.keys,key_respstudy.corr,key_respstudy.rt,key_respstudy.duration,rt,corr,Feedback.started,Feedback.stopped,practice_loop.thisRepN,practice_loop.thisTrialN,practice_loop.thisN,practice_loop.thisIndex,practice_loop.ran,item_nr_p,target_p,isHarmonic_p,target_cond_p,CorrAns_p,Instraction.started,Instraction.stopped,key_respınstraction.keys,key_respınstraction.rt,key_respınstraction.duration,TestTrial.started,TestTrial.stopped,key_respTest.keys,key_respTest.corr,key_respTest.rt,key_respTest.duration,Pause.started,Pause.stopped,key_resp_xx.keys,test_loop.thisRepN,test_loop.thisTrialN,test_loop.thisN,test_loop.thisIndex,test_loop.ran,item_nr,target,BlogFreq_A1,BlogFreqpm_A1,BlogCD_A1,BlogCDPc_A1,WordLength_A1,isHarmonic_A1,old20,target_cond,CorrAns,key_resp_xx.rt,key_resp_xx.duration,Goodbye_screen.started,Goodbye_screen.stopped,key_respgoodbye.keys,key_respgoodbye.rt,key_respgoodbye.duration
0,0.001,m,z,2023-11-28_15h17.32.634,VH_v3,2023.2.3,MacIntel,58.82352941,,,,,,,,,,,,,,,,,,,,,,,,,,,,,,,,,,,,,,,,,,,,,,,,,,,,,,,,,,,,,,,,,,,,,,
,,m,z,2023-11-28_15h17.32.634,VH_v3,2023.2.3,MacIntel,58.82352941,0.011,2.166,space,2.132,,0,0,0,0,1,"Deneye hoş geldiniz,

Devam etmek için BOŞLUK tuşuna basınız.",,,,,,,,,,,,,,,,,,,,,,,,,,,,,,,,,,,,,,,,,,,,,,,,,,,,,,,,,,,
,,m,z,2023-11-28_15h17.32.634,VH_v3,2023.2.3,MacIntel,58.82352941,2.167,13.199,space,10.999,,0,1,1,1,1,"Bu çalışma Valencia Üniversitesi kapsamında yürütülmektedir. Deneydeki göreviniz, ekrana çıkacak Türkçe sözcüklerin kelime olup olmadığını belirlemenizdir. Eğer sözcük gerçek bir kelime ise ""m"" tuşuna, değil ise ""z"" tuşuna basınız.   

Devam etmek için BOŞLUK tuşuna basınız.",,,,,,,,,,,,,,,,,,,,,,,,,,,,,,,,,,,,,,,,,,,,,,,,,,,,,,,,,,,
,,m,z,2023-11-28_15h17.32.634,VH_v3,2023.2.3,MacIntel,58.82352941,13.2,22.499,space,9.266,,0,2,2,2,1,"Her sözcük için en fazla iki saniyede cevap vermeniz beklenmektedir. Aksi takdirde deney bir sonraki sözcük ile devam eder. 
Bu çalışmada oldukça hızlı ve doğru cevaplama yapmanız beklenmektedir.

Devam etmek için BOŞLUK tuşuna basınız.",,,,,,,,,,,,,,,,,,,,,,,,,,,,,,,,,,,,,,,,,,,,,,,,,,,,,,,,,,,
,,m,z,2023-11-28_15h17.32.634,VH_v3,2023.2.3,MacIntel,58.82352941,22.499,28.649,space,6.116,,0,3,3,3,1,"Çalışmaya başlamadan önce ufak bir pratik yer almaktadır.
Kelimedir: ""m""
Kelime değildir: ""z""

Pratik teste başlamak için BOŞLUK tuşuna basınız. ",,,,,,,,,,,,,,,,,,,,,,,,,,,,,,,,,,,,,,,,,,,,,,,,,,,,,,,,,,,
,,m,z,2023-11-28_15h17.32.634,VH_v3,2023.2.3,MacIntel,58.82352941,,,,,,,,,,,,28.662,29.666,29.667,30.833,z,1,1.142,,1.142,1,30.834,32.333,0,0,0,16,1,17,ihlot,notharmonic,nw,z,,,,,,,,,,,,,,,,,,,,,,,,,,,,,,,,,,,,,
,,m,z,2023-11-28_15h17.32.634,VH_v3,2023.2.3,MacIntel,58.82352941,,,,,,,,,,,,32.334,33.332,33.332,33.599,z,1,0.244,,0.244,1,33.599,35.1,0,1,1,14,1,15,mahne,notharmonic,nw,z,,,,,,,,,,,,,,,,,,,,,,,,,,,,,,,,,,,,,
,,m,z,2023-11-28_15h17.32.634,VH_v3,2023.2.3,MacIntel,58.82352941,,,,,,,,,,,,35.1,36.099,36.099,36.899,z,1,0.778,,0.778,1,36.899,38.399,0,2,2,13,1,14,orat,harmonic,nw,z,,,,,,,,,,,,,,,,,,,,,,,,,,,,,,,,,,,,,
,,m,z,2023-11-28_15h17.32.634,VH_v3,2023.2.3,MacIntel,58.82352941,,,,,,,,,,,,38.4,39.399,39.4,39.998,m,1,0.582,,0.582,1,39.999,41.499,0,3,3,6,1,7,sebep,harmonic,word,m,,,,,,,,,,,,,,,,,,,,,,,,,,,,,,,,,,,,,
,,m,z,2023-11-28_15h17.32.634,VH_v3,2023.2.3,MacIntel,58.82352941,,,,,,,,,,,,41.5,42.499,42.499,43.399,m,0,0.876,,0.876,0,43.399,44.899,0,4,4,12,1,13,tahip,notharmonic,nw,z,,,,,,,,,,,,,,,,,,,,,,,,,,,,,,,,,,,,,
,,m,z,2023-11-28_15h17.32.634,VH_v3,2023.2.3,MacIntel,58.82352941,,,,,,,,,,,,44.9,45.898,45.898,46.532,m,1,0.615,,0.615,1,46.532,48.032,0,5,5,10,1,11,nefret,harmonic,word,m,,,,,,,,,,,,,,,,,,,,,,,,,,,,,,,,,,,,,
,,m,z,2023-11-28_15h17.32.634,VH_v3,2023.2.3,MacIntel,58.82352941,,,,,,,,,,,,48.034,49.033,49.033,49.516,z,0,0.468,,0.468,0,49.516,51.016,0,6,6,5,1,6,gizli,harmonic,word,m,,,,,,,,,,,,,,,,,,,,,,,,,,,,,,,,,,,,,
,,m,z,2023-11-28_15h17.32.634,VH_v3,2023.2.3,MacIntel,58.82352941,,,,,,,,,,,,51.016,52.016,52.016,52.716,z,1,0.679,,0.679,1,52.716,54.216,0,7,7,18,1,19,pimer,harmonic,nw,z,,,,,,,,,,,,,,,,,,,,,,,,,,,,,,,,,,,,,
,,m,z,2023-11-28_15h17.32.634,VH_v3,2023.2.3,MacIntel,58.82352941,,,,,,,,,,,,54.217,55.216,55.216,56.183,z,1,0.945,,0.945,1,56.183,57.683,0,8,8,20,1,21,yoğuk,harmonic,nw,z,,,,,,,,,,,,,,,,,,,,,,,,,,,,,,,,,,,,,
,,m,z,2023-11-28_15h17.32.634,VH_v3,2023.2.3,MacIntel,58.82352941,,,,,,,,,,,,57.684,58.683,58.683,59.366,z,1,0.659,,0.659,1,59.366,60.866,0,9,9,17,1,18,pilar,notharmonic,nw,z,,,,,,,,,,,,,,,,,,,,,,,,,,,,,,,,,,,,,
,,m,z,2023-11-28_15h17.32.634,VH_v3,2023.2.3,MacIntel,58.82352941,,,,,,,,,,,,60.867,61.866,61.866,62.75,z,1,0.866,,0.866,1,62.75,64.25,0,10,10,19,1,20,mımal,harmonic,nw,z,,,,,,,,,,,,,,,,,,,,,,,,,,,,,,,,,,,,,
,,m,z,2023-11-28_15h17.32.634,VH_v3,2023.2.3,MacIntel,58.82352941,,,,,,,,,,,,64.252,65.25,65.251,65.933,m,1,0.662,,0.662,1,65.933,67.433,0,11,11,8,1,9,bilim,harmonic,word,m,,,,,,,,,,,,,,,,,,,,,,,,,,,,,,,,,,,,,
,,m,z,2023-11-28_15h17.32.634,VH_v3,2023.2.3,MacIntel,58.82352941,,,,,,,,,,,,67.434,68.433,68.433,69.15,m,1,0.696,,0.696,1,69.15,70.649,0,12,12,0,1,1,hazır,harmonic,word,m,,,,,,,,,,,,,,,,,,,,,,,,,,,,,,,,,,,,,
,,m,z,2023-11-28_15h17.32.634,VH_v3,2023.2.3,MacIntel,58.82352941,,,,,,,,,,,,70.65,71.65,71.65,72.133,m,1,0.46,,0.46,1,72.133,73.633,0,13,13,2,1,3,yardım,harmonic,word,m,,,,,,,,,,,,,,,,,,,,,,,,,,,,,,,,,,,,,
,,m,z,2023-11-28_15h17.32.634,VH_v3,2023.2.3,MacIntel,58.82352941,,,,,,,,,,,,73.634,74.633,74.633,75.183,m,1,0.532,,0.532,1,75.183,76.683,0,14,14,7,1,8,oran,harmonic,word,m,,,,,,,,,,,,,,,,,,,,,,,,,,,,,,,,,,,,,
,,m,z,2023-11-28_15h17.32.634,VH_v3,2023.2.3,MacIntel,58.82352941,,,,,,,,,,,,76.684,77.683,77.683,78.182,m,1,0.478,,0.478,1,78.182,79.683,0,15,15,1,1,2,veri,harmonic,word,m,,,,,,,,,,,,,,,,,,,,,,,,,,,,,,,,,,,,,
,,m,z,2023-11-28_15h17.32.634,VH_v3,2023.2.3,MacIntel,58.82352941,,,,,,,,,,,,79.684,80.683,80.683,81.15,m,1,0.444,,0.444,1,81.15,82.65,0,16,16,3,1,4,sevgi,harmonic,word,m,,,,,,,,,,,,,,,,,,,,,,,,,,,,,,,,,,,,,
,,m,z,2023-11-28_15h17.32.634,VH_v3,2023.2.3,MacIntel,58.82352941,,,,,,,,,,,,82.651,83.65,83.65,84.15,m,0,0.479,,0.479,0,84.15,85.65,0,17,17,15,1,16,geki,harmonic,nw,z,,,,,,,,,,,,,,,,,,,,,,,,,,,,,,,,,,,,,
,,m,z,2023-11-28_15h17.32.634,VH_v3,2023.2.3,MacIntel,58.82352941,,,,,,,,,,,,85.651,86.65,86.65,87.617,z,1,0.946,,0.946,1,87.617,89.117,0,18,18,21,1,22,güçli,harmonic,nw,z,,,,,,,,,,,,,,,,,,,,,,,,,,,,,,,,,,,,,
,,m,z,2023-11-28_15h17.32.634,VH_v3,2023.2.3,MacIntel,58.82352941,,,,,,,,,,,,89.117,90.117,90.117,90.967,z,1,0.828,,0.828,1,90.967,92.466,0,19,19,23,1,24,zarim,notharmonic,nw,z,,,,,,,,,,,,,,,,,,,,,,,,,,,,,,,,,,,,,
,,m,z,2023-11-28_15h17.32.634,VH_v3,2023.2.3,MacIntel,58.82352941,,,,,,,,,,,,92.467,93.467,93.467,94.083,m,1,0.599,,0.599,1,94.083,95.583,0,20,20,4,1,5,soğuk,harmonic,word,m,,,,,,,,,,,,,,,,,,,,,,,,,,,,,,,,,,,,,
,,m,z,2023-11-28_15h17.32.634,VH_v3,2023.2.3,MacIntel,58.82352941,,,,,,,,,,,,95.583,96.584,96.584,97.167,m,1,0.563,,0.563,1,97.167,98.667,0,21,21,9,1,10,zarar,harmonic,word,m,,,,,,,,,,,,,,,,,,,,,,,,,,,,,,,,,,,,,
,,m,z,2023-11-28_15h17.32.634,VH_v3,2023.2.3,MacIntel,58.82352941,,,,,,,,,,,,98.668,99.667,99.667,100.367,m,1,0.685,,0.685,1,100.367,101.867,0,22,22,11,1,12,teslim,harmonic,word,m,,,,,,,,,,,,,,,,,,,,,,,,,,,,,,,,,,,,,
,,m,z,2023-11-28_15h17.32.634,VH_v3,2023.2.3,MacIntel,58.82352941,,,,,,,,,,,,101.868,102.867,102.867,103.467,z,1,0.582,,0.582,1,103.467,104.967,0,23,23,22,1,23,gizım,notharmonic,nw,z,,,,,,,,,,,,,,,,,,,,,,,,,,,,,,,,,,,,,
,,m,z,2023-11-28_15h17.32.634,VH_v3,2023.2.3,MacIntel,58.82352941,,,,,,,,,,,,,,,,,,,,,,,,,,,,,,,,,,104.969,113.085,space,8.084,,,,,,,,,,,,,,,,,,,,,,,,,,,,,,,,,
,,m,z,2023-11-28_15h17.32.634,VH_v3,2023.2.3,MacIntel,58.82352941,,,,,,,,,,,,113.112,114.101,,,,,,,,,,,,,,,,,,,,,,,,,,114.102,114.785,m,1,0.656,,114.786,114.789,,0,0,0,68,1,69,ücret,734,33.35,634,0.0693,5,harmonic,1.85,word,m,,,,,,,
,,m,z,2023-11-28_15h17.32.634,VH_v3,2023.2.3,MacIntel,58.82352941,,,,,,,,,,,,114.79,115.784,,,,,,,,,,,,,,,,,,,,,,,,,,115.784,116.367,m,1,0.566,,116.368,116.368,,0,1,1,108,1,109,sabah,8179,371.6213,7277,0.7955,5,harmonic,,word,m,,,,,,,
,,m,z,2023-11-28_15h17.32.634,VH_v3,2023.2.3,MacIntel,58.82352941,,,,,,,,,,,,116.369,117.368,,,,,,,,,,,,,,,,,,,,,,,,,,117.368,118.051,z,1,0.661,,118.051,118.051,,0,2,2,276,1,277,dapel,,,,,5,notharmonic,1.9,nw,z,,,,,,,
,,m,z,2023-11-28_15h17.32.634,VH_v3,2023.2.3,MacIntel,58.82352941,,,,,,,,,,,,118.052,119.051,,,,,,,,,,,,,,,,,,,,,,,,,,119.051,119.601,m,1,0.528,,119.601,119.601,,0,3,3,170,1,171,parmak,1268,57.6129,1165,0.1274,6,harmonic,,word,m,,,,,,,
,,m,z,2023-11-28_15h17.32.634,VH_v3,2023.2.3,MacIntel,58.82352941,,,,,,,,,,,,119.602,120.601,,,,,,,,,,,,,,,,,,,,,,,,,,120.601,121.134,m,1,0.512,,121.134,121.134,,0,4,4,31,1,32,fazla,18293,831.1614,16694,1.825,5,harmonic,1,word,m,,,,,,,
,,m,z,2023-11-28_15h17.32.634,VH_v3,2023.2.3,MacIntel,58.82352941,,,,,,,,,,,,121.135,122.134,,,,,,,,,,,,,,,,,,,,,,,,,,122.134,122.684,m,1,0.533,,122.684,122.684,,0,5,5,14,1,15,yaşam,4348,197.5559,3918,0.4283,5,harmonic,1.4,word,m,,,,,,,
,,m,z,2023-11-28_15h17.32.634,VH_v3,2023.2.3,MacIntel,58.82352941,,,,,,,,,,,,122.685,123.684,,,,,,,,,,,,,,,,,,,,,,,,,,123.684,124.301,m,1,0.595,,124.301,124.301,,0,6,6,26,1,27,sebze,1094,49.707,961,0.1051,5,harmonic,1.9,word,m,,,,,,,
,,m,z,2023-11-28_15h17.32.634,VH_v3,2023.2.3,MacIntel,58.82352941,,,,,,,,,,,,124.302,125.3,,,,,,,,,,,,,,,,,,,,,,,,,,125.301,125.785,m,1,0.459,,125.785,125.785,,0,7,7,38,1,39,dönem,2820,128.1296,2437,0.2664,5,harmonic,1.4,word,m,,,,,,,
,,m,z,2023-11-28_15h17.32.634,VH_v3,2023.2.3,MacIntel,58.82352941,,,,,,,,,,,,125.785,126.783,,,,,,,,,,,,,,,,,,,,,,,,,,126.784,127.401,z,1,0.601,,127.401,127.401,,0,8,8,293,1,294,mosil,,,,,5,notharmonic,1.85,nw,z,,,,,,,
,,m,z,2023-11-28_15h17.32.634,VH_v3,2023.2.3,MacIntel,58.82352941,,,,,,,,,,,,127.402,128.401,,,,,,,,,,,,,,,,,,,,,,,,,,128.401,129.002,m,1,0.577,,129.002,129.003,,0,9,9,96,1,97,mutlu,11447,520.1063,10279,1.1237,5,harmonic,,word,m,,,,,,,
,,m,z,2023-11-28_15h17.32.634,VH_v3,2023.2.3,MacIntel,58.82352941,,,,,,,,,,,,129.004,130.002,,,,,,,,,,,,,,,,,,,,,,,,,,130.002,130.601,z,1,0.577,,130.601,130.601,,0,10,10,265,1,266,münrün,,,,,6,harmonic,2.75,nw,z,,,,,,,
,,m,z,2023-11-28_15h17.32.634,VH_v3,2023.2.3,MacIntel,58.82352941,,,,,,,,,,,,130.602,131.601,,,,,,,,,,,,,,,,,,,,,,,,,,131.601,132.051,m,1,0.428,,132.052,132.052,,0,11,11,169,1,170,düzgün,1384,62.8835,1310,0.1432,6,harmonic,,word,m,,,,,,,
,,m,z,2023-11-28_15h17.32.634,VH_v3,2023.2.3,MacIntel,58.82352941,,,,,,,,,,,,132.053,133.051,,,,,,,,,,,,,,,,,,,,,,,,,,133.051,133.551,m,1,0.478,,133.551,133.552,,0,12,12,157,1,158,eğitim,4784,217.366,3846,0.4204,6,harmonic,,word,m,,,,,,,
,,m,z,2023-11-28_15h17.32.634,VH_v3,2023.2.3,MacIntel,58.82352941,,,,,,,,,,,,133.552,134.551,,,,,,,,,,,,,,,,,,,,,,,,,,134.551,135.035,m,1,0.463,,135.035,135.035,,0,13,13,174,1,175,hayran,1171,53.2056,1073,0.1173,6,harmonic,,word,m,,,,,,,
,,m,z,2023-11-28_15h17.32.634,VH_v3,2023.2.3,MacIntel,58.82352941,,,,,,,,,,,,135.036,136.035,,,,,,,,,,,,,,,,,,,,,,,,,,136.035,136.601,z,1,0.548,,136.601,136.602,,0,14,14,261,1,262,kübün,,,,,5,harmonic,2,nw,z,,,,,,,
,,m,z,2023-11-28_15h17.32.634,VH_v3,2023.2.3,MacIntel,58.82352941,,,,,,,,,,,,136.603,137.601,,,,,,,,,,,,,,,,,,,,,,,,,,137.601,138.401,z,1,0.78,,138.401,138.401,,0,15,15,331,1,332,ilcaet,,,,,6,notharmonic,2.7,nw,z,,,,,,,
,,m,z,2023-11-28_15h17.32.634,VH_v3,2023.2.3,MacIntel,58.82352941,,,,,,,,,,,,138.402,139.401,,,,,,,,,,,,,,,,,,,,,,,,,,139.401,140.068,z,1,0.645,,140.068,140.068,,0,16,16,356,1,357,ated,,,,,4,notharmonic,,nw,z,,,,,,,
,,m,z,2023-11-28_15h17.32.634,VH_v3,2023.2.3,MacIntel,58.82352941,,,,,,,,,,,,140.069,141.068,,,,,,,,,,,,,,,,,,,,,,,,,,141.068,141.634,z,1,0.541,,141.634,141.634,,0,17,17,194,1,195,yabum,,,,,5,harmonic,2,nw,z,,,,,,,
,,m,z,2023-11-28_15h17.32.634,VH_v3,2023.2.3,MacIntel,58.82352941,,,,,,,,,,,,141.634,142.635,,,,,,,,,,,,,,,,,,,,,,,,,,142.635,143.118,z,0,0.463,,143.118,143.119,,0,18,18,123,1,124,güneş,4371,198.6009,3610,0.3946,5,harmonic,,word,m,,,,,,,
,,m,z,2023-11-28_15h17.32.634,VH_v3,2023.2.3,MacIntel,58.82352941,,,,,,,,,,,,143.119,144.118,,,,,,,,,,,,,,,,,,,,,,,,,,144.118,144.735,m,1,0.597,,144.735,144.735,,0,19,19,65,1,66,fikir,2552,115.9528,2413,0.2638,5,harmonic,1.9,word,m,,,,,,,
,,m,z,2023-11-28_15h17.32.634,VH_v3,2023.2.3,MacIntel,58.82352941,,,,,,,,,,,,144.735,145.735,,,,,,,,,,,,,,,,,,,,,,,,,,145.735,146.384,z,1,0.628,,146.384,146.384,,0,20,20,266,1,267,yannoz,,,,,6,harmonic,2.85,nw,z,,,,,,,
,,m,z,2023-11-28_15h17.32.634,VH_v3,2023.2.3,MacIntel,58.82352941,,,,,,,,,,,,146.385,147.385,,,,,,,,,,,,,,,,,,,,,,,,,,147.385,147.985,m,1,0.579,,147.985,147.985,,0,21,21,105,1,106,hafta,9257,420.6014,8254,0.9023,5,harmonic,,word,m,,,,,,,
,,m,z,2023-11-28_15h17.32.634,VH_v3,2023.2.3,MacIntel,58.82352941,,,,,,,,,,,,147.985,148.985,,,,,,,,,,,,,,,,,,,,,,,,,,148.985,149.585,z,1,0.579,,149.585,149.585,,0,22,22,303,1,304,hahir,,,,,5,notharmonic,1.55,nw,z,,,,,,,
,,m,z,2023-11-28_15h17.32.634,VH_v3,2023.2.3,MacIntel,58.82352941,,,,,,,,,,,,149.586,150.585,,,,,,,,,,,,,,,,,,,,,,,,,,150.585,151.185,m,1,0.577,,151.185,151.185,,0,23,23,52,1,53,resim,2506,113.8627,2188,0.2392,5,harmonic,1.4,word,m,,,,,,,
,,m,z,2023-11-28_15h17.32.634,VH_v3,2023.2.3,MacIntel,58.82352941,,,,,,,,,,,,151.186,152.185,,,,,,,,,,,,,,,,,,,,,,,,,,152.185,153.051,m,1,0.846,,153.051,153.051,,0,24,24,98,1,99,yerel,1399,63.565,1187,0.1298,5,harmonic,,word,m,,,,,,,
,,m,z,2023-11-28_15h17.32.634,VH_v3,2023.2.3,MacIntel,58.82352941,,,,,,,,,,,,153.052,154.052,,,,,,,,,,,,,,,,,,,,,,,,,,154.052,154.568,m,1,0.494,,154.569,154.569,,0,25,25,1,1,2,erkek,6188,281.1582,5195,0.5679,5,harmonic,1.65,word,m,,,,,,,
,,m,z,2023-11-28_15h17.32.634,VH_v3,2023.2.3,MacIntel,58.82352941,,,,,,,,,,,,154.569,155.568,,,,,,,,,,,,,,,,,,,,,,,,,,155.568,156.068,m,1,0.482,,156.069,156.069,,0,26,26,138,1,139,yazar,3175,144.2594,2877,0.3145,5,harmonic,,word,m,,,,,,,
,,m,z,2023-11-28_15h17.32.634,VH_v3,2023.2.3,MacIntel,58.82352941,,,,,,,,,,,,156.069,157.069,,,,,,,,,,,,,,,,,,,,,,,,,,157.069,157.568,m,1,0.48,,157.568,157.569,,0,27,27,163,1,164,teknik,3297,149.8026,2798,0.3059,6,harmonic,,word,m,,,,,,,
,,m,z,2023-11-28_15h17.32.634,VH_v3,2023.2.3,MacIntel,58.82352941,,,,,,,,,,,,157.569,158.568,,,,,,,,,,,,,,,,,,,,,,,,,,158.568,159.084,m,1,0.493,,159.084,159.085,,0,28,28,176,1,177,tebrik,1117,50.7521,1102,0.1205,6,harmonic,,word,m,,,,,,,
,,m,z,2023-11-28_15h17.32.634,VH_v3,2023.2.3,MacIntel,58.82352941,,,,,,,,,,,,159.085,160.085,,,,,,,,,,,,,,,,,,,,,,,,,,160.085,160.618,m,1,0.513,,160.618,160.619,,0,29,29,148,1,149,ışık,1814,82.421,1635,0.1787,4,harmonic,,word,m,,,,,,,
,,m,z,2023-11-28_15h17.32.634,VH_v3,2023.2.3,MacIntel,58.82352941,,,,,,,,,,,,160.62,161.619,,,,,,,,,,,,,,,,,,,,,,,,,,161.619,162.218,z,1,0.583,,162.219,162.219,,0,30,30,355,1,356,daneta,,,,,6,notharmonic,2.4,nw,z,,,,,,,
,,m,z,2023-11-28_15h17.32.634,VH_v3,2023.2.3,MacIntel,58.82352941,,,,,,,,,,,,162.219,163.218,,,,,,,,,,,,,,,,,,,,,,,,,,163.219,163.735,m,1,0.502,,163.735,163.736,,0,31,31,162,1,163,destek,3328,151.2111,3065,0.3351,6,harmonic,,word,m,,,,,,,
,,m,z,2023-11-28_15h17.32.634,VH_v3,2023.2.3,MacIntel,58.82352941,,,,,,,,,,,,163.736,164.735,,,,,,,,,,,,,,,,,,,,,,,,,,164.736,165.268,m,1,0.516,,165.268,165.269,,0,32,32,56,1,57,sağlam,1818,82.6027,1720,0.188,6,harmonic,1.6,word,m,,,,,,,
,,m,z,2023-11-28_15h17.32.634,VH_v3,2023.2.3,MacIntel,58.82352941,,,,,,,,,,,,165.269,166.269,,,,,,,,,,,,,,,,,,,,,,,,,,166.269,166.885,z,1,0.598,,166.885,166.886,,0,33,33,275,1,276,makis,,,,,5,notharmonic,1.8,nw,z,,,,,,,
,,m,z,2023-11-28_15h17.32.634,VH_v3,2023.2.3,MacIntel,58.82352941,,,,,,,,,,,,166.886,167.885,,,,,,,,,,,,,,,,,,,,,,,,,,167.885,168.402,m,1,0.496,,168.402,168.403,,0,34,34,15,1,16,hayat,7922,359.9443,7314,0.7996,5,harmonic,1.9,word,m,,,,,,,
,,m,z,2023-11-28_15h17.32.634,VH_v3,2023.2.3,MacIntel,58.82352941,,,,,,,,,,,,168.403,169.402,,,,,,,,,,,,,,,,,,,,,,,,,,169.402,169.969,m,1,0.549,,169.969,169.969,,0,35,35,165,1,166,fırsat,1952,88.6911,1863,0.2037,6,harmonic,,word,m,,,,,,,
,,m,z,2023-11-28_15h17.32.634,VH_v3,2023.2.3,MacIntel,58.82352941,,,,,,,,,,,,169.97,170.968,,,,,,,,,,,,,,,,,,,,,,,,,,170.968,171.552,z,1,0.563,,171.552,171.552,,0,36,36,195,1,196,habaş,,,,,5,harmonic,1.95,nw,z,,,,,,,
,,m,z,2023-11-28_15h17.32.634,VH_v3,2023.2.3,MacIntel,58.82352941,,,,,,,,,,,,171.553,172.552,,,,,,,,,,,,,,,,,,,,,,,,,,172.552,173.169,z,1,0.594,,173.169,173.169,,0,37,37,333,1,334,uleç,,,,,4,notharmonic,1.95,nw,z,,,,,,,
,,m,z,2023-11-28_15h17.32.634,VH_v3,2023.2.3,MacIntel,58.82352941,,,,,,,,,,,,173.169,174.169,,,,,,,,,,,,,,,,,,,,,,,,,,174.169,174.635,m,1,0.444,,174.636,174.636,,0,38,38,35,1,36,hava,4975,226.0443,4398,0.4808,4,harmonic,1,word,m,,,,,,,
,,m,z,2023-11-28_15h17.32.634,VH_v3,2023.2.3,MacIntel,58.82352941,,,,,,,,,,,,174.636,175.635,,,,,,,,,,,,,,,,,,,,,,,,,,175.635,176.169,z,1,0.512,,176.169,176.169,,0,39,39,182,1,183,rafto,,,,,5,harmonic,2,nw,z,,,,,,,
,,m,z,2023-11-28_15h17.32.634,VH_v3,2023.2.3,MacIntel,58.82352941,,,,,,,,,,,,176.169,177.169,,,,,,,,,,,,,,,,,,,,,,,,,,177.169,177.785,z,1,0.598,,177.786,177.786,,0,40,40,188,1,189,hüyen,,,,,5,harmonic,2,nw,z,,,,,,,
,,m,z,2023-11-28_15h17.32.634,VH_v3,2023.2.3,MacIntel,58.82352941,,,,,,,,,,,,177.786,178.785,,,,,,,,,,,,,,,,,,,,,,,,,,178.785,179.419,z,1,0.613,,179.419,179.42,,0,41,41,214,1,215,yapa,,,,,4,harmonic,1,nw,z,,,,,,,
,,m,z,2023-11-28_15h17.32.634,VH_v3,2023.2.3,MacIntel,58.82352941,,,,,,,,,,,,179.421,180.419,,,,,,,,,,,,,,,,,,,,,,,,,,180.419,180.902,m,1,0.463,,180.902,180.902,,0,42,42,43,1,44,geniş,3380,153.5738,3185,0.3482,5,harmonic,1.35,word,m,,,,,,,
,,m,z,2023-11-28_15h17.32.634,VH_v3,2023.2.3,MacIntel,58.82352941,,,,,,,,,,,,180.903,181.902,,,,,,,,,,,,,,,,,,,,,,,,,,181.902,182.569,z,1,0.645,,182.569,182.569,,0,43,43,294,1,295,fiyan,,,,,5,notharmonic,1.65,nw,z,,,,,,,
,,m,z,2023-11-28_15h17.32.634,VH_v3,2023.2.3,MacIntel,58.82352941,,,,,,,,,,,,182.57,183.569,,,,,,,,,,,,,,,,,,,,,,,,,,183.569,184.252,m,1,0.661,,184.252,184.252,,0,44,44,113,1,114,akşam,7480,339.8615,6833,0.747,5,harmonic,,word,m,,,,,,,
,,m,z,2023-11-28_15h17.32.634,VH_v3,2023.2.3,MacIntel,58.82352941,,,,,,,,,,,,184.253,185.252,,,,,,,,,,,,,,,,,,,,,,,,,,185.252,185.869,z,1,0.596,,185.869,185.869,,0,45,45,209,1,210,çirre,,,,,5,harmonic,2,nw,z,,,,,,,
,,m,z,2023-11-28_15h17.32.634,VH_v3,2023.2.3,MacIntel,58.82352941,,,,,,,,,,,,185.87,186.868,,,,,,,,,,,,,,,,,,,,,,,,,,186.869,187.485,m,1,0.596,,187.486,187.486,,0,46,46,10,1,11,bardak,1728,78.5135,1569,0.1715,6,harmonic,1.6,word,m,,,,,,,
,,m,z,2023-11-28_15h17.32.634,VH_v3,2023.2.3,MacIntel,58.82352941,,,,,,,,,,,,187.486,188.486,,,,,,,,,,,,,,,,,,,,,,,,,,188.486,189.002,m,1,0.501,,189.002,189.002,,0,47,47,144,1,145,şiir,2213,100.5499,1690,0.1848,4,harmonic,,word,m,,,,,,,
,,m,z,2023-11-28_15h17.32.634,VH_v3,2023.2.3,MacIntel,58.82352941,,,,,,,,,,,,189.002,190.002,,,,,,,,,,,,,,,,,,,,,,,,,,190.002,190.636,z,1,0.616,,190.636,190.636,,0,48,48,281,1,282,ikva,,,,,4,notharmonic,1.85,nw,z,,,,,,,
,,m,z,2023-11-28_15h17.32.634,VH_v3,2023.2.3,MacIntel,58.82352941,,,,,,,,,,,,190.636,191.636,,,,,,,,,,,,,,,,,,,,,,,,,,191.636,192.236,m,1,0.58,,192.236,192.236,,0,49,49,16,1,17,yavaş,5087,231.1331,2886,0.3155,5,harmonic,1.6,word,m,,,,,,,
,,m,z,2023-11-28_15h17.32.634,VH_v3,2023.2.3,MacIntel,58.82352941,,,,,,,,,,,,192.236,193.236,,,,,,,,,,,,,,,,,,,,,,,,,,193.236,194.353,m,1,1.097,,194.353,194.353,,0,50,50,124,1,125,yarım,4177,189.7863,3852,0.4211,5,harmonic,,word,m,,,,,,,
,,m,z,2023-11-28_15h17.32.634,VH_v3,2023.2.3,MacIntel,58.82352941,,,,,,,,,,,,194.354,195.352,,,,,,,,,,,,,,,,,,,,,,,,,,195.353,196.252,z,1,0.883,,196.253,196.253,,0,51,51,248,1,249,harık,,,,,5,harmonic,1.55,nw,z,,,,,,,
,,m,z,2023-11-28_15h17.32.634,VH_v3,2023.2.3,MacIntel,58.82352941,,,,,,,,,,,,196.253,197.253,,,,,,,,,,,,,,,,,,,,,,,,,,197.253,197.752,m,1,0.478,,197.753,197.753,,0,52,52,88,1,89,yalnız,5891,267.6637,5440,0.5947,6,harmonic,1.6,word,m,,,,,,,
,,m,z,2023-11-28_15h17.32.634,VH_v3,2023.2.3,MacIntel,58.82352941,,,,,,,,,,,,197.753,198.753,,,,,,,,,,,,,,,,,,,,,,,,,,198.753,199.353,m,1,0.583,,199.353,199.353,,0,53,53,34,1,35,hoca,1893,86.0104,1526,0.1668,4,harmonic,1.45,word,m,,,,,,,
,,m,z,2023-11-28_15h17.32.634,VH_v3,2023.2.3,MacIntel,58.82352941,,,,,,,,,,,,199.353,200.352,,,,,,,,,,,,,,,,,,,,,,,,,,200.352,200.886,m,1,0.513,,200.886,200.886,,0,54,54,28,1,29,parlak,1142,51.888,1088,0.1189,6,harmonic,1.7,word,m,,,,,,,
,,m,z,2023-11-28_15h17.32.634,VH_v3,2023.2.3,MacIntel,58.82352941,,,,,,,,,,,,200.887,201.886,,,,,,,,,,,,,,,,,,,,,,,,,,201.886,202.386,m,1,0.476,,202.386,202.386,,0,55,55,143,1,144,isim,2366,107.5017,2163,0.2365,4,harmonic,,word,m,,,,,,,
,,m,z,2023-11-28_15h17.32.634,VH_v3,2023.2.3,MacIntel,58.82352941,,,,,,,,,,,,202.386,203.386,,,,,,,,,,,,,,,,,,,,,,,,,,203.386,203.935,z,1,0.53,,203.935,203.936,,0,56,56,348,1,349,minsar,,,,,6,notharmonic,2,nw,z,,,,,,,
,,m,z,2023-11-28_15h17.32.634,VH_v3,2023.2.3,MacIntel,58.82352941,,,,,,,,,,,,203.936,204.936,,,,,,,,,,,,,,,,,,,,,,,,,,204.936,205.586,z,1,0.629,,205.586,205.586,,0,57,57,340,1,341,zizon,,,,,5,notharmonic,1.85,nw,z,,,,,,,
,,m,z,2023-11-28_15h17.32.634,VH_v3,2023.2.3,MacIntel,58.82352941,,,,,,,,,,,,205.587,206.586,,,,,,,,,,,,,,,,,,,,,,,,,,206.586,207.119,z,1,0.517,,207.119,207.12,,0,58,58,358,1,359,ksalik,,,,,6,notharmonic,,nw,z,,,,,,,
,,m,z,2023-11-28_15h17.32.634,VH_v3,2023.2.3,MacIntel,58.82352941,,,,,,,,,,,,207.12,208.119,,,,,,,,,,,,,,,,,,,,,,,,,,208.12,208.77,z,1,0.63,,208.77,208.77,,0,59,59,230,1,231,redem,,,,,5,harmonic,2,nw,z,,,,,,,
,,m,z,2023-11-28_15h17.32.634,VH_v3,2023.2.3,MacIntel,58.82352941,,,,,,,,,,,,208.771,209.77,,,,,,,,,,,,,,,,,,,,,,,,,,209.77,210.42,z,1,0.629,,210.42,210.42,,0,60,60,221,1,222,ülük,,,,,4,harmonic,1.55,nw,z,,,,,,,
,,m,z,2023-11-28_15h17.32.634,VH_v3,2023.2.3,MacIntel,58.82352941,,,,,,,,,,,,210.42,211.419,,,,,,,,,,,,,,,,,,,,,,,,,,211.42,211.936,m,1,0.499,,211.936,211.937,,0,61,61,145,1,146,ilgi,2144,97.4149,2041,0.2231,4,harmonic,,word,m,,,,,,,
,,m,z,2023-11-28_15h17.32.634,VH_v3,2023.2.3,MacIntel,58.82352941,,,,,,,,,,,,211.937,212.936,,,,,,,,,,,,,,,,,,,,,,,,,,212.936,213.402,m,1,0.447,,213.402,213.402,,0,62,62,2,1,3,radyo,763,34.6677,636,0.0695,5,harmonic,1.85,word,m,,,,,,,
,,m,z,2023-11-28_15h17.32.634,VH_v3,2023.2.3,MacIntel,58.82352941,,,,,,,,,,,,213.403,214.403,,,,,,,,,,,,,,,,,,,,,,,,,,214.403,214.836,m,1,0.415,,214.837,214.837,,0,63,63,154,1,155,oyun,4926,223.8179,3995,0.4367,4,harmonic,,word,m,,,,,,,
,,m,z,2023-11-28_15h17.32.634,VH_v3,2023.2.3,MacIntel,58.82352941,,,,,,,,,,,,214.838,215.836,,,,,,,,,,,,,,,,,,,,,,,,,,215.836,216.603,z,1,0.745,,216.603,216.603,,0,64,64,335,1,336,askif,,,,,5,notharmonic,2,nw,z,,,,,,,
,,m,z,2023-11-28_15h17.32.634,VH_v3,2023.2.3,MacIntel,58.82352941,,,,,,,,,,,,216.604,217.603,,,,,,,,,,,,,,,,,,,,,,,,,,217.603,218.403,z,1,0.78,,218.403,218.403,,0,65,65,185,1,186,bebin,,,,,5,harmonic,1.7,nw,z,,,,,,,
,,m,z,2023-11-28_15h17.32.634,VH_v3,2023.2.3,MacIntel,58.82352941,,,,,,,,,,,,218.404,219.403,,,,,,,,,,,,,,,,,,,,,,,,,,219.403,219.886,m,1,0.462,,219.886,219.887,,0,66,66,63,1,64,sultan,1756,79.7857,1368,0.1496,6,harmonic,1.55,word,m,,,,,,,
,,m,z,2023-11-28_15h17.32.634,VH_v3,2023.2.3,MacIntel,58.82352941,,,,,,,,,,,,219.887,220.886,,,,,,,,,,,,,,,,,,,,,,,,,,220.886,221.287,m,1,0.378,,221.287,221.287,,0,67,67,83,1,84,küçük,14048,638.2854,12467,1.3629,5,harmonic,1.75,word,m,,,,,,,
,,m,z,2023-11-28_15h17.32.634,VH_v3,2023.2.3,MacIntel,58.82352941,,,,,,,,,,,,221.288,222.286,,,,,,,,,,,,,,,,,,,,,,,,,,222.287,222.653,m,0,0.352,,222.653,222.653,,0,68,68,249,1,250,öldek,,,,,5,harmonic,1.85,nw,z,,,,,,,
,,m,z,2023-11-28_15h17.32.634,VH_v3,2023.2.3,MacIntel,58.82352941,,,,,,,,,,,,222.654,223.653,,,,,,,,,,,,,,,,,,,,,,,,,,223.653,224.37,z,1,0.698,,224.37,224.37,,0,69,69,225,1,226,sakam,,,,,5,harmonic,1.45,nw,z,,,,,,,
,,m,z,2023-11-28_15h17.32.634,VH_v3,2023.2.3,MacIntel,58.82352941,,,,,,,,,,,,224.371,225.37,,,,,,,,,,,,,,,,,,,,,,,,,,225.37,226.07,m,1,0.686,,226.07,226.07,,0,70,70,161,1,162,servis,3344,151.9381,2968,0.3245,6,harmonic,,word,m,,,,,,,
,,m,z,2023-11-28_15h17.32.634,VH_v3,2023.2.3,MacIntel,58.82352941,,,,,,,,,,,,226.071,227.07,,,,,,,,,,,,,,,,,,,,,,,,,,227.07,228.137,z,1,1.047,,228.137,228.137,,0,71,71,244,1,245,tazık,,,,,5,harmonic,1.7,nw,z,,,,,,,
,,m,z,2023-11-28_15h17.32.634,VH_v3,2023.2.3,MacIntel,58.82352941,,,,,,,,,,,,228.137,229.137,,,,,,,,,,,,,,,,,,,,,,,,,,229.137,229.787,m,1,0.631,,229.787,229.787,,0,72,72,107,1,108,sivil,1334,60.6117,1151,0.1258,5,harmonic,,word,m,,,,,,,
,,m,z,2023-11-28_15h17.32.634,VH_v3,2023.2.3,MacIntel,58.82352941,,,,,,,,,,,,229.787,230.787,,,,,,,,,,,,,,,,,,,,,,,,,,230.787,231.303,m,1,0.498,,231.303,231.304,,0,73,73,153,1,154,para,7124,323.6863,5953,0.6508,4,harmonic,,word,m,,,,,,,
,,m,z,2023-11-28_15h17.32.634,VH_v3,2023.2.3,MacIntel,58.82352941,,,,,,,,,,,,231.304,232.303,,,,,,,,,,,,,,,,,,,,,,,,,,232.303,233.02,m,1,0.694,,233.02,233.02,,0,74,74,55,1,56,akıl,2208,100.3228,2004,0.2191,4,harmonic,1,word,m,,,,,,,
,,m,z,2023-11-28_15h17.32.634,VH_v3,2023.2.3,MacIntel,58.82352941,,,,,,,,,,,,233.021,234.02,,,,,,,,,,,,,,,,,,,,,,,,,,234.02,234.587,z,1,0.545,,234.587,234.587,,0,75,75,199,1,200,repes,,,,,5,harmonic,2,nw,z,,,,,,,
,,m,z,2023-11-28_15h17.32.634,VH_v3,2023.2.3,MacIntel,58.82352941,,,,,,,,,,,,234.588,235.587,,,,,,,,,,,,,,,,,,,,,,,,,,235.587,236.103,m,1,0.502,,236.104,236.104,,0,76,76,122,1,123,sorun,4653,211.4139,4296,0.4696,5,harmonic,,word,m,,,,,,,
,,m,z,2023-11-28_15h17.32.634,VH_v3,2023.2.3,MacIntel,58.82352941,,,,,,,,,,,,236.104,237.104,,,,,,,,,,,,,,,,,,,,,,,,,,237.104,237.721,z,1,0.6,,237.721,237.721,,0,77,77,311,1,312,mase,,,,,4,notharmonic,1.75,nw,z,,,,,,,
,,m,z,2023-11-28_15h17.32.634,VH_v3,2023.2.3,MacIntel,58.82352941,,,,,,,,,,,,237.722,238.72,,,,,,,,,,,,,,,,,,,,,,,,,,238.72,239.237,m,1,0.494,,239.237,239.237,,0,78,78,75,1,76,roman,1499,68.1086,1281,0.14,5,harmonic,1.6,word,m,,,,,,,
,,m,z,2023-11-28_15h17.32.634,VH_v3,2023.2.3,MacIntel,58.82352941,,,,,,,,,,,,239.238,240.237,,,,,,,,,,,,,,,,,,,,,,,,,,240.237,240.804,z,1,0.545,,240.804,240.804,,0,79,79,239,1,240,yulçız,,,,,6,harmonic,2.75,nw,z,,,,,,,
,,m,z,2023-11-28_15h17.32.634,VH_v3,2023.2.3,MacIntel,58.82352941,,,,,,,,,,,,240.805,241.804,,,,,,,,,,,,,,,,,,,,,,,,,,241.804,242.42,m,1,0.597,,242.42,242.421,,0,80,80,54,1,55,yedek,825,37.4847,732,0.08,5,harmonic,1.65,word,m,,,,,,,
,,m,z,2023-11-28_15h17.32.634,VH_v3,2023.2.3,MacIntel,58.82352941,,,,,,,,,,,,242.421,243.42,,,,,,,,,,,,,,,,,,,,,,,,,,243.42,243.987,m,1,0.545,,243.987,243.987,,0,81,81,71,1,72,örnek,3463,157.345,3266,0.357,5,harmonic,1.85,word,m,,,,,,,
,,m,z,2023-11-28_15h17.32.634,VH_v3,2023.2.3,MacIntel,58.82352941,,,,,,,,,,,,243.988,244.987,,,,,,,,,,,,,,,,,,,,,,,,,,244.987,245.42,m,1,0.413,,245.421,245.421,,0,82,82,127,1,128,müzik,3999,181.6987,3340,0.3651,5,harmonic,,word,m,,,,,,,
,,m,z,2023-11-28_15h17.32.634,VH_v3,2023.2.3,MacIntel,58.82352941,,,,,,,,,,,,245.421,246.42,,,,,,,,,,,,,,,,,,,,,,,,,,246.42,246.987,z,1,0.548,,246.987,246.987,,0,83,83,279,1,280,ikaza,,,,,5,notharmonic,1.9,nw,z,,,,,,,
,,m,z,2023-11-28_15h17.32.634,VH_v3,2023.2.3,MacIntel,58.82352941,,,,,,,,,,,,246.988,247.987,,,,,,,,,,,,,,,,,,,,,,,,,,247.987,248.486,m,1,0.483,,248.487,248.487,,0,84,84,76,1,77,ilişki,1675,76.1054,1524,0.1666,6,harmonic,1.8,word,m,,,,,,,
,,m,z,2023-11-28_15h17.32.634,VH_v3,2023.2.3,MacIntel,58.82352941,,,,,,,,,,,,248.488,249.487,,,,,,,,,,,,,,,,,,,,,,,,,,249.487,250.171,z,1,0.667,,250.171,250.171,,0,85,85,260,1,261,abaf,,,,,4,harmonic,1.85,nw,z,,,,,,,
,,m,z,2023-11-28_15h17.32.634,VH_v3,2023.2.3,MacIntel,58.82352941,,,,,,,,,,,,250.171,251.17,,,,,,,,,,,,,,,,,,,,,,,,,,251.17,251.737,m,1,0.547,,251.737,251.738,,0,86,86,150,1,151,ağır,4441,201.7814,3961,0.433,4,harmonic,,word,m,,,,,,,
,,m,z,2023-11-28_15h17.32.634,VH_v3,2023.2.3,MacIntel,58.82352941,,,,,,,,,,,,251.738,252.737,,,,,,,,,,,,,,,,,,,,,,,,,,252.737,253.271,z,1,0.513,,253.271,253.271,,0,87,87,186,1,187,yadal,,,,,5,harmonic,1.85,nw,z,,,,,,,
,,m,z,2023-11-28_15h17.32.634,VH_v3,2023.2.3,MacIntel,58.82352941,,,,,,,,,,,,253.271,254.271,,,,,,,,,,,,,,,,,,,,,,,,,,254.271,254.82,m,0,0.529,,254.821,254.821,,0,88,88,306,1,307,napare,,,,,6,notharmonic,2.15,nw,z,,,,,,,
,,m,z,2023-11-28_15h17.32.634,VH_v3,2023.2.3,MacIntel,58.82352941,,,,,,,,,,,,254.821,255.821,,,,,,,,,,,,,,,,,,,,,,,,,,255.821,256.388,m,1,0.55,,256.388,256.388,,0,89,89,59,1,60,köpek,1044,47.4352,901,0.0985,5,harmonic,1.75,word,m,,,,,,,
,,m,z,2023-11-28_15h17.32.634,VH_v3,2023.2.3,MacIntel,58.82352941,,,,,,,,,,,,256.389,257.387,,,,,,,,,,,,,,,,,,,,,,,,,,257.387,257.921,z,1,0.513,,257.921,257.922,,0,90,90,313,1,314,hahih,,,,,5,notharmonic,1.95,nw,z,,,,,,,
,,m,z,2023-11-28_15h17.32.634,VH_v3,2023.2.3,MacIntel,58.82352941,,,,,,,,,,,,257.922,258.921,,,,,,,,,,,,,,,,,,,,,,,,,,258.921,259.971,z,1,1.033,,259.971,259.971,,0,91,91,334,1,335,mecda,,,,,5,notharmonic,1.95,nw,z,,,,,,,
,,m,z,2023-11-28_15h17.32.634,VH_v3,2023.2.3,MacIntel,58.82352941,,,,,,,,,,,,259.971,260.971,,,,,,,,,,,,,,,,,,,,,,,,,,260.971,261.554,z,1,0.563,,261.554,261.554,,0,92,92,321,1,322,kibas,,,,,5,notharmonic,1.9,nw,z,,,,,,,
,,m,z,2023-11-28_15h17.32.634,VH_v3,2023.2.3,MacIntel,58.82352941,,,,,,,,,,,,261.555,262.554,,,,,,,,,,,,,,,,,,,,,,,,,,262.554,263.454,z,1,0.878,,263.454,263.454,,0,93,93,234,1,235,taslam,,,,,6,harmonic,1.9,nw,z,,,,,,,
,,m,z,2023-11-28_15h17.32.634,VH_v3,2023.2.3,MacIntel,58.82352941,,,,,,,,,,,,263.455,264.454,,,,,,,,,,,,,,,,,,,,,,,,,,264.454,265.054,z,1,0.579,,265.054,265.054,,0,94,94,309,1,310,yanele,,,,,6,notharmonic,1.85,nw,z,,,,,,,
,,m,z,2023-11-28_15h17.32.634,VH_v3,2023.2.3,MacIntel,58.82352941,,,,,,,,,,,,265.055,266.054,,,,,,,,,,,,,,,,,,,,,,,,,,266.054,266.604,z,1,0.528,,266.604,266.605,,0,95,95,297,1,298,şasep,,,,,5,notharmonic,1.9,nw,z,,,,,,,
,,m,z,2023-11-28_15h17.32.634,VH_v3,2023.2.3,MacIntel,58.82352941,,,,,,,,,,,,266.605,267.604,,,,,,,,,,,,,,,,,,,,,,,,,,267.604,268.187,m,1,0.561,,268.188,268.188,,0,96,96,53,1,54,gelir,7578,344.3143,7014,0.7668,5,harmonic,1.4,word,m,,,,,,,
,,m,z,2023-11-28_15h17.32.634,VH_v3,2023.2.3,MacIntel,58.82352941,,,,,,,,,,,,268.188,269.188,,,,,,,,,,,,,,,,,,,,,,,,,,269.188,270.254,z,1,1.05,,270.254,270.254,,0,97,97,273,1,274,sisaf,,,,,5,notharmonic,2,nw,z,,,,,,,
,,m,z,2023-11-28_15h17.32.634,VH_v3,2023.2.3,MacIntel,58.82352941,,,,,,,,,,,,270.254,271.254,,,,,,,,,,,,,,,,,,,,,,,,,,271.254,271.771,m,1,0.496,,271.771,271.771,,0,98,98,132,1,133,soğuk,3676,167.0229,3359,0.3672,5,harmonic,,word,m,,,,,,,
,,m,z,2023-11-28_15h17.32.634,VH_v3,2023.2.3,MacIntel,58.82352941,,,,,,,,,,,,271.771,272.771,,,,,,,,,,,,,,,,,,,,,,,,,,272.771,273.338,z,1,0.555,,273.338,273.338,,0,99,99,357,1,358,harim,,,,,5,notharmonic,,nw,z,,,,,,,
,,m,z,2023-11-28_15h17.32.634,VH_v3,2023.2.3,MacIntel,58.82352941,,,,,,,,,,,,273.339,274.337,,,,,,,,,,,,,,,,,,,,,,,,,,274.337,274.971,m,1,0.615,,274.971,274.971,,0,100,100,101,1,102,kabul,10003,454.4967,9014,0.9854,5,harmonic,,word,m,,,,,,,
,,m,z,2023-11-28_15h17.32.634,VH_v3,2023.2.3,MacIntel,58.82352941,,,,,,,,,,,,274.972,275.971,,,,,,,,,,,,,,,,,,,,,,,,,,275.971,276.671,z,1,0.678,,276.671,276.671,,0,101,101,252,1,253,savanı,,,,,6,harmonic,1.85,nw,z,,,,,,,
,,m,z,2023-11-28_15h17.32.634,VH_v3,2023.2.3,MacIntel,58.82352941,,,,,,,,,,,,276.672,277.671,,,,,,,,,,,,,,,,,,,,,,,,,,277.671,278.221,z,1,0.529,,278.221,278.222,,0,102,102,292,1,293,semun,,,,,5,notharmonic,1.85,nw,z,,,,,,,
,,m,z,2023-11-28_15h17.32.634,VH_v3,2023.2.3,MacIntel,58.82352941,,,,,,,,,,,,278.222,279.221,,,,,,,,,,,,,,,,,,,,,,,,,,279.221,279.838,m,1,0.596,,279.838,279.838,,0,103,103,136,1,137,süper,3256,147.9397,2989,0.3268,5,harmonic,,word,m,,,,,,,
,,m,z,2023-11-28_15h17.32.634,VH_v3,2023.2.3,MacIntel,58.82352941,,,,,,,,,,,,279.839,280.838,,,,,,,,,,,,,,,,,,,,,,,,,,280.838,281.371,m,1,0.513,,281.371,281.371,,0,104,104,79,1,80,durum,6783,308.1926,6431,0.703,5,harmonic,1.7,word,m,,,,,,,
,,m,z,2023-11-28_15h17.32.634,VH_v3,2023.2.3,MacIntel,58.82352941,,,,,,,,,,,,281.372,282.371,,,,,,,,,,,,,,,,,,,,,,,,,,282.372,283.072,m,1,0.683,,283.072,283.072,,0,105,105,146,1,147,sarı,2072,94.1435,1838,0.2009,4,harmonic,,word,m,,,,,,,
,,m,z,2023-11-28_15h17.32.634,VH_v3,2023.2.3,MacIntel,58.82352941,,,,,,,,,,,,283.072,284.071,,,,,,,,,,,,,,,,,,,,,,,,,,284.071,284.638,z,1,0.544,,284.638,284.638,,0,106,106,282,1,283,edap,,,,,4,notharmonic,1.7,nw,z,,,,,,,
,,m,z,2023-11-28_15h17.32.634,VH_v3,2023.2.3,MacIntel,58.82352941,,,,,,,,,,,,284.639,285.638,,,,,,,,,,,,,,,,,,,,,,,,,,285.638,286.172,m,1,0.511,,286.172,286.172,,0,107,107,91,1,92,zaman,40307,1831.3902,33589,3.672,5,harmonic,,word,m,,,,,,,
,,m,z,2023-11-28_15h17.32.634,VH_v3,2023.2.3,MacIntel,58.82352941,,,,,,,,,,,,286.173,287.171,,,,,,,,,,,,,,,,,,,,,,,,,,287.171,287.721,z,1,0.53,,287.721,287.722,,0,108,108,233,1,234,alıt,,,,,4,harmonic,1.15,nw,z,,,,,,,
,,m,z,2023-11-28_15h17.32.634,VH_v3,2023.2.3,MacIntel,58.82352941,,,,,,,,,,,,287.722,288.721,,,,,,,,,,,,,,,,,,,,,,,,,,288.721,289.188,m,1,0.445,,289.188,289.188,,0,109,109,80,1,81,merkez,1445,65.6551,1255,0.1372,6,harmonic,1.8,word,m,,,,,,,
,,m,z,2023-11-28_15h17.32.634,VH_v3,2023.2.3,MacIntel,58.82352941,,,,,,,,,,,,289.189,290.188,,,,,,,,,,,,,,,,,,,,,,,,,,290.188,290.771,m,1,0.563,,290.772,290.772,,0,110,110,85,1,86,geçmiş,4195,190.6042,4039,0.4415,6,harmonic,1.55,word,m,,,,,,,
,,m,z,2023-11-28_15h17.32.634,VH_v3,2023.2.3,MacIntel,58.82352941,,,,,,,,,,,,290.772,291.771,,,,,,,,,,,,,,,,,,,,,,,,,,291.771,292.371,m,1,0.584,,292.371,292.372,,0,111,111,90,1,91,güzel,42841,1946.5251,37209,4.0677,5,harmonic,,word,m,,,,,,,
,,m,z,2023-11-28_15h17.32.634,VH_v3,2023.2.3,MacIntel,58.82352941,,,,,,,,,,,,292.372,293.372,,,,,,,,,,,,,,,,,,,,,,,,,,293.372,293.905,m,1,0.516,,293.905,293.905,,0,112,112,134,1,135,hanım,3564,161.934,3151,0.3445,5,harmonic,,word,m,,,,,,,
,,m,z,2023-11-28_15h17.32.634,VH_v3,2023.2.3,MacIntel,58.82352941,,,,,,,,,,,,293.906,294.905,,,,,,,,,,,,,,,,,,,,,,,,,,294.905,295.421,m,1,0.495,,295.422,295.422,,0,113,113,109,1,110,dalga,1307,59.3849,1117,0.1221,5,harmonic,,word,m,,,,,,,
,,m,z,2023-11-28_15h17.32.634,VH_v3,2023.2.3,MacIntel,58.82352941,,,,,,,,,,,,295.422,296.422,,,,,,,,,,,,,,,,,,,,,,,,,,296.422,297.088,z,1,0.643,,297.088,297.088,,0,114,114,310,1,311,moderp,,,,,6,notharmonic,,nw,z,,,,,,,
,,m,z,2023-11-28_15h17.32.634,VH_v3,2023.2.3,MacIntel,58.82352941,,,,,,,,,,,,297.089,298.088,,,,,,,,,,,,,,,,,,,,,,,,,,298.089,298.772,z,1,0.67,,298.772,298.772,,0,115,115,278,1,279,camet,,,,,5,notharmonic,1.8,nw,z,,,,,,,
,,m,z,2023-11-28_15h17.32.634,VH_v3,2023.2.3,MacIntel,58.82352941,,,,,,,,,,,,298.772,299.772,,,,,,,,,,,,,,,,,,,,,,,,,,299.772,300.322,m,1,0.531,,300.322,300.322,,0,116,116,166,1,167,tespit,1929,87.6461,1745,0.1908,6,harmonic,,word,m,,,,,,,
,,m,z,2023-11-28_15h17.32.634,VH_v3,2023.2.3,MacIntel,58.82352941,,,,,,,,,,,,300.322,301.322,,,,,,,,,,,,,,,,,,,,,,,,,,301.322,301.872,m,1,0.536,,301.872,301.872,,0,117,117,9,1,10,karar,8108,368.3954,7436,0.8129,5,harmonic,1.6,word,m,,,,,,,
,,m,z,2023-11-28_15h17.32.634,VH_v3,2023.2.3,MacIntel,58.82352941,,,,,,,,,,,,301.872,302.872,,,,,,,,,,,,,,,,,,,,,,,,,,302.872,303.372,m,1,0.482,,303.372,303.372,,0,118,118,32,1,33,temel,4231,192.2399,3851,0.421,5,harmonic,1.55,word,m,,,,,,,
,,m,z,2023-11-28_15h17.32.634,VH_v3,2023.2.3,MacIntel,58.82352941,,,,,,,,,,,,303.373,304.372,,,,,,,,,,,,,,,,,,,,,,,,,,304.372,304.871,m,1,0.479,,304.871,304.871,,0,119,119,69,1,70,forma,719,32.6685,597,0.0653,5,harmonic,1.8,word,m,,,,,,,
,,m,z,2023-11-28_15h17.32.634,VH_v3,2023.2.3,MacIntel,58.82352941,,,,,,,,,,,,304.872,305.872,,,,,,,,,,,,,,,,,,,,,,,,,,305.872,306.455,z,1,0.564,,306.455,315.556,space,0,120,120,229,1,230,ilgent,,,,,6,harmonic,2.7,nw,z,9.079,,,,,,
,,m,z,2023-11-28_15h17.32.634,VH_v3,2023.2.3,MacIntel,58.82352941,,,,,,,,,,,,315.557,316.556,,,,,,,,,,,,,,,,,,,,,,,,,,316.556,317.655,z,1,1.079,,317.655,317.655,,0,121,121,271,1,272,icazi,,,,,5,notharmonic,1.95,nw,z,,,,,,,
,,m,z,2023-11-28_15h17.32.634,VH_v3,2023.2.3,MacIntel,58.82352941,,,,,,,,,,,,317.656,318.655,,,,,,,,,,,,,,,,,,,,,,,,,,318.655,319.155,m,1,0.48,,319.155,319.156,,0,122,122,46,1,47,takım,4370,198.5555,3726,0.4073,5,harmonic,1.7,word,m,,,,,,,
,,m,z,2023-11-28_15h17.32.634,VH_v3,2023.2.3,MacIntel,58.82352941,,,,,,,,,,,,319.156,320.156,,,,,,,,,,,,,,,,,,,,,,,,,,320.156,320.789,z,1,0.62,,320.789,320.789,,0,123,123,217,1,218,dötim,,,,,5,harmonic,2,nw,z,,,,,,,
,,m,z,2023-11-28_15h17.32.634,VH_v3,2023.2.3,MacIntel,58.82352941,,,,,,,,,,,,320.789,321.789,,,,,,,,,,,,,,,,,,,,,,,,,,321.789,322.389,m,0,0.58,,322.389,322.389,,0,124,124,183,1,184,titik,,,,,5,harmonic,1.7,nw,z,,,,,,,
,,m,z,2023-11-28_15h17.32.634,VH_v3,2023.2.3,MacIntel,58.82352941,,,,,,,,,,,,322.39,323.389,,,,,,,,,,,,,,,,,,,,,,,,,,323.389,323.872,m,1,0.465,,323.872,323.873,,0,125,125,155,1,156,devlet,5766,261.9842,4854,0.5306,6,harmonic,,word,m,,,,,,,
,,m,z,2023-11-28_15h17.32.634,VH_v3,2023.2.3,MacIntel,58.82352941,,,,,,,,,,,,323.873,324.872,,,,,,,,,,,,,,,,,,,,,,,,,,324.872,325.422,m,1,0.529,,325.422,325.422,,0,126,126,36,1,37,meslek,1082,49.1618,976,0.1067,6,harmonic,1.9,word,m,,,,,,,
,,m,z,2023-11-28_15h17.32.634,VH_v3,2023.2.3,MacIntel,58.82352941,,,,,,,,,,,,325.423,326.422,,,,,,,,,,,,,,,,,,,,,,,,,,326.423,326.872,m,1,0.435,,326.872,326.872,,0,127,127,160,1,161,günlük,3421,155.4367,3201,0.3499,6,harmonic,,word,m,,,,,,,
,,m,z,2023-11-28_15h17.32.634,VH_v3,2023.2.3,MacIntel,58.82352941,,,,,,,,,,,,326.873,327.872,,,,,,,,,,,,,,,,,,,,,,,,,,327.872,328.489,z,1,0.597,,328.489,328.49,,0,128,128,342,1,343,çaneke,,,,,6,notharmonic,2.6,nw,z,,,,,,,
,,m,z,2023-11-28_15h17.32.634,VH_v3,2023.2.3,MacIntel,58.82352941,,,,,,,,,,,,328.49,329.489,,,,,,,,,,,,,,,,,,,,,,,,,,329.489,330.056,z,1,0.546,,330.056,330.056,,0,129,129,326,1,327,melaş,,,,,5,notharmonic,1.8,nw,z,,,,,,,
,,m,z,2023-11-28_15h17.32.634,VH_v3,2023.2.3,MacIntel,58.82352941,,,,,,,,,,,,330.057,331.056,,,,,,,,,,,,,,,,,,,,,,,,,,331.056,331.922,m,0,0.846,,331.922,331.923,,0,130,130,198,1,199,ıdol,,,,,4,harmonic,1.9,nw,z,,,,,,,
,,m,z,2023-11-28_15h17.32.634,VH_v3,2023.2.3,MacIntel,58.82352941,,,,,,,,,,,,331.923,332.923,,,,,,,,,,,,,,,,,,,,,,,,,,332.923,333.539,z,1,0.601,,333.539,333.539,,0,131,131,285,1,286,safiç,,,,,5,notharmonic,1.9,nw,z,,,,,,,
,,m,z,2023-11-28_15h17.32.634,VH_v3,2023.2.3,MacIntel,58.82352941,,,,,,,,,,,,333.54,334.539,,,,,,,,,,,,,,,,,,,,,,,,,,334.539,335.039,m,1,0.481,,335.039,335.04,,0,132,132,133,1,134,ortak,3666,166.5685,3331,0.3641,5,harmonic,,word,m,,,,,,,
,,m,z,2023-11-28_15h17.32.634,VH_v3,2023.2.3,MacIntel,58.82352941,,,,,,,,,,,,335.04,336.039,,,,,,,,,,,,,,,,,,,,,,,,,,336.039,336.639,z,1,0.577,,336.639,336.639,,0,133,133,207,1,208,çallak,,,,,6,harmonic,1.75,nw,z,,,,,,,
,,m,z,2023-11-28_15h17.32.634,VH_v3,2023.2.3,MacIntel,58.82352941,,,,,,,,,,,,336.64,337.639,,,,,,,,,,,,,,,,,,,,,,,,,,337.639,338.089,m,1,0.433,,338.089,338.089,,0,134,134,114,1,115,türlü,7010,318.5066,6559,0.717,5,harmonic,,word,m,,,,,,,
,,m,z,2023-11-28_15h17.32.634,VH_v3,2023.2.3,MacIntel,58.82352941,,,,,,,,,,,,338.09,339.089,,,,,,,,,,,,,,,,,,,,,,,,,,339.089,339.506,m,1,0.395,,339.506,339.506,,0,135,135,175,1,176,gündüz,1167,53.0239,1088,0.1189,6,harmonic,,word,m,,,,,,,
,,m,z,2023-11-28_15h17.32.634,VH_v3,2023.2.3,MacIntel,58.82352941,,,,,,,,,,,,339.507,340.506,,,,,,,,,,,,,,,,,,,,,,,,,,340.506,340.939,m,1,0.413,,340.939,340.94,,0,136,136,49,1,50,şeker,4708,213.9128,4170,0.4559,5,harmonic,1.6,word,m,,,,,,,
,,m,z,2023-11-28_15h17.32.634,VH_v3,2023.2.3,MacIntel,58.82352941,,,,,,,,,,,,340.94,341.94,,,,,,,,,,,,,,,,,,,,,,,,,,341.94,342.507,m,1,0.543,,342.507,342.508,,0,137,137,82,1,83,aday,1028,46.7082,873,0.0954,4,harmonic,1.45,word,m,,,,,,,
,,m,z,2023-11-28_15h17.32.634,VH_v3,2023.2.3,MacIntel,58.82352941,,,,,,,,,,,,342.509,343.506,,,,,,,,,,,,,,,,,,,,,,,,,,343.506,343.889,m,1,0.362,,343.889,343.89,,0,138,138,100,1,101,zayıf,1359,61.7476,1285,0.1405,5,harmonic,,word,m,,,,,,,
,,m,z,2023-11-28_15h17.32.634,VH_v3,2023.2.3,MacIntel,58.82352941,,,,,,,,,,,,343.891,344.889,,,,,,,,,,,,,,,,,,,,,,,,,,344.889,345.323,m,1,0.413,,345.323,345.323,,0,139,139,106,1,107,sağlık,8866,402.8359,8289,0.9062,5,harmonic,,word,m,,,,,,,
,,m,z,2023-11-28_15h17.32.634,VH_v3,2023.2.3,MacIntel,58.82352941,,,,,,,,,,,,345.324,346.323,,,,,,,,,,,,,,,,,,,,,,,,,,346.323,346.89,z,1,0.546,,346.89,346.89,,0,140,140,274,1,275,rikal,,,,,5,notharmonic,1.85,nw,z,,,,,,,
,,m,z,2023-11-28_15h17.32.634,VH_v3,2023.2.3,MacIntel,58.82352941,,,,,,,,,,,,346.891,347.889,,,,,,,,,,,,,,,,,,,,,,,,,,347.89,348.456,z,1,0.544,,348.456,348.456,,0,141,141,246,1,247,ülmet,,,,,5,harmonic,1.9,nw,z,,,,,,,
,,m,z,2023-11-28_15h17.32.634,VH_v3,2023.2.3,MacIntel,58.82352941,,,,,,,,,,,,348.457,349.456,,,,,,,,,,,,,,,,,,,,,,,,,,349.457,350.073,z,1,0.601,,350.073,350.073,,0,142,142,243,1,244,şiker,,,,,5,harmonic,1.85,nw,z,,,,,,,
,,m,z,2023-11-28_15h17.32.634,VH_v3,2023.2.3,MacIntel,58.82352941,,,,,,,,,,,,350.074,351.073,,,,,,,,,,,,,,,,,,,,,,,,,,351.073,351.523,m,1,0.428,,351.523,351.523,,0,143,143,73,1,74,millet,1658,75.3329,1508,0.1649,6,harmonic,1.7,word,m,,,,,,,
,,m,z,2023-11-28_15h17.32.634,VH_v3,2023.2.3,MacIntel,58.82352941,,,,,,,,,,,,351.524,352.523,,,,,,,,,,,,,,,,,,,,,,,,,,352.523,352.923,m,1,0.386,,352.923,352.924,,0,144,144,93,1,94,başka,23223,1055.161,20976,2.2931,5,harmonic,,word,m,,,,,,,
,,m,z,2023-11-28_15h17.32.634,VH_v3,2023.2.3,MacIntel,58.82352941,,,,,,,,,,,,352.924,353.923,,,,,,,,,,,,,,,,,,,,,,,,,,353.923,354.54,z,1,0.595,,354.54,354.54,,0,145,145,211,1,212,metel,,,,,5,harmonic,1.75,nw,z,,,,,,,
,,m,z,2023-11-28_15h17.32.634,VH_v3,2023.2.3,MacIntel,58.82352941,,,,,,,,,,,,354.54,355.539,,,,,,,,,,,,,,,,,,,,,,,,,,355.539,355.956,m,1,0.401,,355.956,355.956,,0,146,146,62,1,63,cümle,1911,86.8283,1765,0.193,5,harmonic,1.85,word,m,,,,,,,
,,m,z,2023-11-28_15h17.32.634,VH_v3,2023.2.3,MacIntel,58.82352941,,,,,,,,,,,,355.957,356.956,,,,,,,,,,,,,,,,,,,,,,,,,,356.956,357.556,z,1,0.579,,357.557,357.557,,0,147,147,190,1,191,banyak,,,,,6,harmonic,1.85,nw,z,,,,,,,
,,m,z,2023-11-28_15h17.32.634,VH_v3,2023.2.3,MacIntel,58.82352941,,,,,,,,,,,,357.557,358.556,,,,,,,,,,,,,,,,,,,,,,,,,,358.556,359.19,z,1,0.613,,359.19,359.19,,0,148,148,240,1,241,şünle,,,,,5,harmonic,1.9,nw,z,,,,,,,
,,m,z,2023-11-28_15h17.32.634,VH_v3,2023.2.3,MacIntel,58.82352941,,,,,,,,,,,,359.19,360.19,,,,,,,,,,,,,,,,,,,,,,,,,,360.19,361.023,z,1,0.814,,361.023,361.023,,0,149,149,353,1,354,medrar,,,,,6,notharmonic,2.05,nw,z,,,,,,,
,,m,z,2023-11-28_15h17.32.634,VH_v3,2023.2.3,MacIntel,58.82352941,,,,,,,,,,,,361.024,362.023,,,,,,,,,,,,,,,,,,,,,,,,,,362.023,362.706,z,1,0.661,,362.706,362.706,,0,150,150,347,1,348,şeylam,,,,,6,notharmonic,2.4,nw,z,,,,,,,
,,m,z,2023-11-28_15h17.32.634,VH_v3,2023.2.3,MacIntel,58.82352941,,,,,,,,,,,,362.707,363.707,,,,,,,,,,,,,,,,,,,,,,,,,,363.707,364.223,z,1,0.501,,364.223,364.223,,0,151,151,228,1,229,nekir,,,,,5,harmonic,1.65,nw,z,,,,,,,
,,m,z,2023-11-28_15h17.32.634,VH_v3,2023.2.3,MacIntel,58.82352941,,,,,,,,,,,,364.223,365.223,,,,,,,,,,,,,,,,,,,,,,,,,,365.223,365.707,z,1,0.46,,365.707,365.707,,0,152,152,312,1,313,izmal,,,,,5,notharmonic,1.8,nw,z,,,,,,,
,,m,z,2023-11-28_15h17.32.634,VH_v3,2023.2.3,MacIntel,58.82352941,,,,,,,,,,,,365.707,366.707,,,,,,,,,,,,,,,,,,,,,,,,,,366.707,367.373,m,0,0.648,,367.373,367.373,,0,153,153,325,1,326,icanat,,,,,6,notharmonic,2.25,nw,z,,,,,,,
,,m,z,2023-11-28_15h17.32.634,VH_v3,2023.2.3,MacIntel,58.82352941,,,,,,,,,,,,367.374,368.373,,,,,,,,,,,,,,,,,,,,,,,,,,368.373,369.407,m,0,1.013,,369.407,369.407,,0,154,154,227,1,228,temzik,,,,,6,harmonic,1.9,nw,z,,,,,,,
,,m,z,2023-11-28_15h17.32.634,VH_v3,2023.2.3,MacIntel,58.82352941,,,,,,,,,,,,369.407,370.407,,,,,,,,,,,,,,,,,,,,,,,,,,370.407,371.09,m,1,0.665,,371.09,371.09,,0,155,155,164,1,165,toprak,1989,90.3723,1762,0.1926,6,harmonic,,word,m,,,,,,,
,,m,z,2023-11-28_15h17.32.634,VH_v3,2023.2.3,MacIntel,58.82352941,,,,,,,,,,,,371.091,372.09,,,,,,,,,,,,,,,,,,,,,,,,,,372.09,372.723,z,1,0.614,,372.723,372.723,,0,156,156,210,1,211,şatla,,,,,5,harmonic,1.5,nw,z,,,,,,,
,,m,z,2023-11-28_15h17.32.634,VH_v3,2023.2.3,MacIntel,58.82352941,,,,,,,,,,,,372.724,373.723,,,,,,,,,,,,,,,,,,,,,,,,,,373.723,374.24,z,1,0.504,,374.24,374.24,,0,157,157,202,1,203,kulom,,,,,5,harmonic,2,nw,z,,,,,,,
,,m,z,2023-11-28_15h17.32.634,VH_v3,2023.2.3,MacIntel,58.82352941,,,,,,,,,,,,374.241,375.24,,,,,,,,,,,,,,,,,,,,,,,,,,375.24,375.907,m,1,0.646,,375.907,375.907,,0,158,158,94,1,95,bütün,18630,846.4733,16711,1.8269,5,harmonic,,word,m,,,,,,,
,,m,z,2023-11-28_15h17.32.634,VH_v3,2023.2.3,MacIntel,58.82352941,,,,,,,,,,,,375.907,376.907,,,,,,,,,,,,,,,,,,,,,,,,,,376.907,377.474,m,1,0.546,,377.474,377.474,,0,159,159,173,1,174,koruma,1187,53.9326,1066,0.1165,6,harmonic,,word,m,,,,,,,
,,m,z,2023-11-28_15h17.32.634,VH_v3,2023.2.3,MacIntel,58.82352941,,,,,,,,,,,,377.475,378.474,,,,,,,,,,,,,,,,,,,,,,,,,,378.474,378.94,m,0,0.444,,378.94,378.941,,0,160,160,300,1,301,iştal,,,,,5,notharmonic,1.8,nw,z,,,,,,,
,,m,z,2023-11-28_15h17.32.634,VH_v3,2023.2.3,MacIntel,58.82352941,,,,,,,,,,,,378.941,379.94,,,,,,,,,,,,,,,,,,,,,,,,,,379.94,381.057,z,1,1.095,,381.057,381.057,,0,161,161,305,1,306,itba,,,,,4,notharmonic,1.85,nw,z,,,,,,,
,,m,z,2023-11-28_15h17.32.634,VH_v3,2023.2.3,MacIntel,58.82352941,,,,,,,,,,,,381.058,382.057,,,,,,,,,,,,,,,,,,,,,,,,,,382.057,382.657,z,1,0.578,,382.657,382.657,,0,162,162,204,1,205,cabor,,,,,5,harmonic,2.1,nw,z,,,,,,,
,,m,z,2023-11-28_15h17.32.634,VH_v3,2023.2.3,MacIntel,58.82352941,,,,,,,,,,,,382.657,383.657,,,,,,,,,,,,,,,,,,,,,,,,,,383.657,384.224,z,1,0.546,,384.224,384.224,,0,163,163,304,1,305,irak,,,,,4,notharmonic,1.55,nw,z,,,,,,,
,,m,z,2023-11-28_15h17.32.634,VH_v3,2023.2.3,MacIntel,58.82352941,,,,,,,,,,,,384.225,385.224,,,,,,,,,,,,,,,,,,,,,,,,,,385.224,386.024,z,1,0.779,,386.024,386.024,,0,164,164,180,1,181,manıt,,,,,5,harmonic,1.75,nw,z,,,,,,,
,,m,z,2023-11-28_15h17.32.634,VH_v3,2023.2.3,MacIntel,58.82352941,,,,,,,,,,,,386.024,387.023,,,,,,,,,,,,,,,,,,,,,,,,,,387.023,387.84,z,1,0.796,,387.841,387.841,,0,165,165,231,1,232,çekir,,,,,5,harmonic,1.45,nw,z,,,,,,,
,,m,z,2023-11-28_15h17.32.634,VH_v3,2023.2.3,MacIntel,58.82352941,,,,,,,,,,,,387.841,388.841,,,,,,,,,,,,,,,,,,,,,,,,,,388.841,389.391,z,1,0.529,,389.391,389.391,,0,166,166,351,1,352,eula,,,,,4,notharmonic,1.65,nw,z,,,,,,,
,,m,z,2023-11-28_15h17.32.634,VH_v3,2023.2.3,MacIntel,58.82352941,,,,,,,,,,,,389.391,390.39,,,,,,,,,,,,,,,,,,,,,,,,,,390.39,390.99,z,1,0.579,,390.991,390.991,,0,167,167,359,1,360,hisaye,,,,,6,notharmonic,,nw,z,,,,,,,
,,m,z,2023-11-28_15h17.32.634,VH_v3,2023.2.3,MacIntel,58.82352941,,,,,,,,,,,,390.991,391.991,,,,,,,,,,,,,,,,,,,,,,,,,,391.991,392.474,m,1,0.463,,392.474,392.474,,0,168,168,44,1,45,kayıt,1234,56.0681,1058,0.1157,5,harmonic,1.35,word,m,,,,,,,
,,m,z,2023-11-28_15h17.32.634,VH_v3,2023.2.3,MacIntel,58.82352941,,,,,,,,,,,,392.475,393.474,,,,,,,,,,,,,,,,,,,,,,,,,,393.474,394.09,z,1,0.597,,394.091,394.091,,0,169,169,259,1,260,üreyeş,,,,,6,harmonic,2.9,nw,z,,,,,,,
,,m,z,2023-11-28_15h17.32.634,VH_v3,2023.2.3,MacIntel,58.82352941,,,,,,,,,,,,394.091,395.091,,,,,,,,,,,,,,,,,,,,,,,,,,395.091,395.641,m,1,0.529,,395.641,395.641,,0,170,170,137,1,138,yoğun,3189,144.8955,3026,0.3308,5,harmonic,,word,m,,,,,,,
,,m,z,2023-11-28_15h17.32.634,VH_v3,2023.2.3,MacIntel,58.82352941,,,,,,,,,,,,395.641,396.641,,,,,,,,,,,,,,,,,,,,,,,,,,396.641,397.224,z,1,0.569,,397.224,397.224,,0,171,171,337,1,338,yakim,,,,,5,notharmonic,1.75,nw,z,,,,,,,
,,m,z,2023-11-28_15h17.32.634,VH_v3,2023.2.3,MacIntel,58.82352941,,,,,,,,,,,,397.225,398.224,,,,,,,,,,,,,,,,,,,,,,,,,,398.224,398.807,z,1,0.569,,398.807,398.807,,0,172,172,213,1,214,yofa,,,,,4,harmonic,1.75,nw,z,,,,,,,
,,m,z,2023-11-28_15h17.32.634,VH_v3,2023.2.3,MacIntel,58.82352941,,,,,,,,,,,,398.808,399.807,,,,,,,,,,,,,,,,,,,,,,,,,,399.807,400.407,m,1,0.584,,400.407,400.407,,0,173,173,25,1,26,rapor,703,31.9415,617,0.0675,5,harmonic,1.8,word,m,,,,,,,
,,m,z,2023-11-28_15h17.32.634,VH_v3,2023.2.3,MacIntel,58.82352941,,,,,,,,,,,,400.408,401.407,,,,,,,,,,,,,,,,,,,,,,,,,,401.408,402.241,z,1,0.815,,402.241,402.241,,0,174,174,288,1,289,talif,,,,,5,notharmonic,1.5,nw,z,,,,,,,
,,m,z,2023-11-28_15h17.32.634,VH_v3,2023.2.3,MacIntel,58.82352941,,,,,,,,,,,,402.242,403.241,,,,,,,,,,,,,,,,,,,,,,,,,,403.241,403.841,z,1,0.58,,403.841,403.841,,0,175,175,299,1,300,kurüs,,,,,5,notharmonic,1.95,nw,z,,,,,,,
,,m,z,2023-11-28_15h17.32.634,VH_v3,2023.2.3,MacIntel,58.82352941,,,,,,,,,,,,403.842,404.841,,,,,,,,,,,,,,,,,,,,,,,,,,404.841,405.441,m,1,0.579,,405.441,405.441,,0,176,176,64,1,65,lise,888,40.3472,816,0.0892,4,harmonic,1.5,word,m,,,,,,,
,,m,z,2023-11-28_15h17.32.634,VH_v3,2023.2.3,MacIntel,58.82352941,,,,,,,,,,,,405.442,406.441,,,,,,,,,,,,,,,,,,,,,,,,,,406.441,406.957,z,1,0.496,,406.958,406.958,,0,177,177,316,1,317,karkiş,,,,,6,notharmonic,2,nw,z,,,,,,,
,,m,z,2023-11-28_15h17.32.634,VH_v3,2023.2.3,MacIntel,58.82352941,,,,,,,,,,,,406.958,407.958,,,,,,,,,,,,,,,,,,,,,,,,,,407.958,408.474,z,1,0.504,,408.474,408.474,,0,178,178,352,1,353,yarema,,,,,6,notharmonic,1.95,nw,z,,,,,,,
,,m,z,2023-11-28_15h17.32.634,VH_v3,2023.2.3,MacIntel,58.82352941,,,,,,,,,,,,408.474,409.474,,,,,,,,,,,,,,,,,,,,,,,,,,409.474,409.957,m,1,0.461,,409.958,409.958,,0,179,179,45,1,46,bilgi,5981,271.7529,5353,0.5852,5,harmonic,1.5,word,m,,,,,,,
,,m,z,2023-11-28_15h17.32.634,VH_v3,2023.2.3,MacIntel,58.82352941,,,,,,,,,,,,409.958,410.958,,,,,,,,,,,,,,,,,,,,,,,,,,410.958,411.507,z,1,0.536,,411.508,411.508,,0,180,180,344,1,345,adalüt,,,,,6,notharmonic,,nw,z,,,,,,,
,,m,z,2023-11-28_15h17.32.634,VH_v3,2023.2.3,MacIntel,58.82352941,,,,,,,,,,,,411.508,412.508,,,,,,,,,,,,,,,,,,,,,,,,,,412.508,413.024,m,1,0.496,,413.024,413.025,,0,181,181,125,1,126,hızlı,4167,189.332,3688,0.4032,5,harmonic,,word,m,,,,,,,
,,m,z,2023-11-28_15h17.32.634,VH_v3,2023.2.3,MacIntel,58.82352941,,,,,,,,,,,,413.025,414.024,,,,,,,,,,,,,,,,,,,,,,,,,,414.024,414.591,z,1,0.548,,414.591,414.591,,0,182,182,289,1,290,minkon,,,,,6,notharmonic,2.2,nw,z,,,,,,,
,,m,z,2023-11-28_15h17.32.634,VH_v3,2023.2.3,MacIntel,58.82352941,,,,,,,,,,,,414.592,415.591,,,,,,,,,,,,,,,,,,,,,,,,,,415.591,416.224,z,1,0.612,,416.225,416.225,,0,183,183,224,1,225,binci,,,,,5,harmonic,1.5,nw,z,,,,,,,
,,m,z,2023-11-28_15h17.32.634,VH_v3,2023.2.3,MacIntel,58.82352941,,,,,,,,,,,,416.225,417.225,,,,,,,,,,,,,,,,,,,,,,,,,,417.225,417.774,m,1,0.529,,417.774,417.775,,0,184,184,92,1,93,büyük,32406,1472.4001,28224,3.0855,5,harmonic,,word,m,,,,,,,
,,m,z,2023-11-28_15h17.32.634,VH_v3,2023.2.3,MacIntel,58.82352941,,,,,,,,,,,,417.775,418.774,,,,,,,,,,,,,,,,,,,,,,,,,,418.775,419.391,m,1,0.599,,419.391,419.391,,0,185,185,7,1,8,hizmet,3023,137.3531,2689,0.294,6,harmonic,1.75,word,m,,,,,,,
,,m,z,2023-11-28_15h17.32.634,VH_v3,2023.2.3,MacIntel,58.82352941,,,,,,,,,,,,419.392,420.391,,,,,,,,,,,,,,,,,,,,,,,,,,420.391,421.274,z,1,0.863,,421.275,421.275,,0,186,186,330,1,331,tevaze,,,,,6,notharmonic,2.05,nw,z,,,,,,,
,,m,z,2023-11-28_15h17.32.634,VH_v3,2023.2.3,MacIntel,58.82352941,,,,,,,,,,,,421.275,422.275,,,,,,,,,,,,,,,,,,,,,,,,,,422.275,422.925,z,1,0.633,,422.925,422.925,,0,187,187,222,1,223,çetiş,,,,,5,harmonic,1.7,nw,z,,,,,,,
,,m,z,2023-11-28_15h17.32.634,VH_v3,2023.2.3,MacIntel,58.82352941,,,,,,,,,,,,422.925,423.925,,,,,,,,,,,,,,,,,,,,,,,,,,423.925,424.408,m,1,0.462,,424.408,424.408,,0,188,188,156,1,157,sosyal,5290,240.3566,4372,0.4779,6,harmonic,,word,m,,,,,,,
,,m,z,2023-11-28_15h17.32.634,VH_v3,2023.2.3,MacIntel,58.82352941,,,,,,,,,,,,424.408,425.408,,,,,,,,,,,,,,,,,,,,,,,,,,425.408,425.941,z,1,0.516,,425.941,425.942,,0,189,189,270,1,271,sarip,,,,,5,notharmonic,1.65,nw,z,,,,,,,
,,m,z,2023-11-28_15h17.32.634,VH_v3,2023.2.3,MacIntel,58.82352941,,,,,,,,,,,,425.942,426.941,,,,,,,,,,,,,,,,,,,,,,,,,,426.942,427.479,z,1,0.52,,427.479,427.479,,0,190,190,241,1,242,sılman,,,,,6,harmonic,2,nw,z,,,,,,,
,,m,z,2023-11-28_15h17.32.634,VH_v3,2023.2.3,MacIntel,58.82352941,,,,,,,,,,,,427.479,428.474,,,,,,,,,,,,,,,,,,,,,,,,,,428.474,428.941,m,1,0.447,,428.941,428.941,,0,191,191,177,1,178,mutfak,1110,50.434,1032,0.1128,6,harmonic,,word,m,,,,,,,
,,m,z,2023-11-28_15h17.32.634,VH_v3,2023.2.3,MacIntel,58.82352941,,,,,,,,,,,,428.941,429.941,,,,,,,,,,,,,,,,,,,,,,,,,,429.941,430.541,z,1,0.578,,430.541,430.542,,0,192,192,345,1,346,kiru,,,,,4,notharmonic,1.8,nw,z,,,,,,,
,,m,z,2023-11-28_15h17.32.634,VH_v3,2023.2.3,MacIntel,58.82352941,,,,,,,,,,,,430.542,431.541,,,,,,,,,,,,,,,,,,,,,,,,,,431.542,432.025,m,1,0.463,,432.025,432.025,,0,193,193,5,1,6,bebek,3301,149.9843,2794,0.3054,5,harmonic,1.6,word,m,,,,,,,
,,m,z,2023-11-28_15h17.32.634,VH_v3,2023.2.3,MacIntel,58.82352941,,,,,,,,,,,,432.026,433.025,,,,,,,,,,,,,,,,,,,,,,,,,,433.025,433.508,z,1,0.463,,433.508,433.508,,0,194,194,238,1,239,bodu,,,,,4,harmonic,1.85,nw,z,,,,,,,
,,m,z,2023-11-28_15h17.32.634,VH_v3,2023.2.3,MacIntel,58.82352941,,,,,,,,,,,,433.509,434.508,,,,,,,,,,,,,,,,,,,,,,,,,,434.508,435.024,z,1,0.497,,435.024,435.025,,0,195,195,256,1,257,ulosız,,,,,6,harmonic,3,nw,z,,,,,,,
,,m,z,2023-11-28_15h17.32.634,VH_v3,2023.2.3,MacIntel,58.82352941,,,,,,,,,,,,435.025,436.025,,,,,,,,,,,,,,,,,,,,,,,,,,436.025,436.508,z,1,0.463,,436.508,436.508,,0,196,196,264,1,265,yerfek,,,,,6,harmonic,2,nw,z,,,,,,,
,,m,z,2023-11-28_15h17.32.634,VH_v3,2023.2.3,MacIntel,58.82352941,,,,,,,,,,,,436.509,437.508,,,,,,,,,,,,,,,,,,,,,,,,,,437.509,438.008,m,1,0.48,,438.008,438.009,,0,197,197,57,1,58,bölüm,1910,86.7828,1605,0.1755,5,harmonic,1.45,word,m,,,,,,,
,,m,z,2023-11-28_15h17.32.634,VH_v3,2023.2.3,MacIntel,58.82352941,,,,,,,,,,,,438.009,439.008,,,,,,,,,,,,,,,,,,,,,,,,,,439.008,439.525,m,1,0.494,,439.525,439.525,,0,198,198,128,1,129,güçlü,3924,178.291,3614,0.3951,5,harmonic,,word,m,,,,,,,
,,m,z,2023-11-28_15h17.32.634,VH_v3,2023.2.3,MacIntel,58.82352941,,,,,,,,,,,,439.525,440.525,,,,,,,,,,,,,,,,,,,,,,,,,,440.525,441.192,m,1,0.648,,441.192,441.192,,0,199,199,158,1,159,tercih,4577,207.9607,4282,0.4681,6,harmonic,,word,m,,,,,,,
,,m,z,2023-11-28_15h17.32.634,VH_v3,2023.2.3,MacIntel,58.82352941,,,,,,,,,,,,441.192,442.192,,,,,,,,,,,,,,,,,,,,,,,,,,442.192,442.759,z,1,0.546,,442.759,442.76,,0,200,200,317,1,318,zila,,,,,4,notharmonic,1.65,nw,z,,,,,,,
,,m,z,2023-11-28_15h17.32.634,VH_v3,2023.2.3,MacIntel,58.82352941,,,,,,,,,,,,442.761,443.758,,,,,,,,,,,,,,,,,,,,,,,,,,443.759,444.225,z,0,0.445,,444.225,444.226,,0,201,201,131,1,132,derin,3689,167.6135,3328,0.3638,5,harmonic,,word,m,,,,,,,
,,m,z,2023-11-28_15h17.32.634,VH_v3,2023.2.3,MacIntel,58.82352941,,,,,,,,,,,,444.227,445.225,,,,,,,,,,,,,,,,,,,,,,,,,,445.225,445.825,z,1,0.578,,445.825,445.826,,0,202,202,315,1,316,çarki,,,,,5,notharmonic,1.85,nw,z,,,,,,,
,,m,z,2023-11-28_15h17.32.634,VH_v3,2023.2.3,MacIntel,58.82352941,,,,,,,,,,,,445.826,446.825,,,,,,,,,,,,,,,,,,,,,,,,,,446.825,447.408,z,1,0.569,,447.408,447.409,,0,203,203,280,1,281,düktan,,,,,6,notharmonic,2.35,nw,z,,,,,,,
,,m,z,2023-11-28_15h17.32.634,VH_v3,2023.2.3,MacIntel,58.82352941,,,,,,,,,,,,447.41,448.409,,,,,,,,,,,,,,,,,,,,,,,,,,448.409,449.042,z,1,0.612,,449.042,449.042,,0,204,204,247,1,248,fonta,,,,,5,harmonic,1.75,nw,z,,,,,,,
,,m,z,2023-11-28_15h17.32.634,VH_v3,2023.2.3,MacIntel,58.82352941,,,,,,,,,,,,449.043,450.042,,,,,,,,,,,,,,,,,,,,,,,,,,450.042,450.525,z,1,0.466,,450.525,450.526,,0,205,205,336,1,337,zanit,,,,,5,notharmonic,1.85,nw,z,,,,,,,
,,m,z,2023-11-28_15h17.32.634,VH_v3,2023.2.3,MacIntel,58.82352941,,,,,,,,,,,,450.526,451.525,,,,,,,,,,,,,,,,,,,,,,,,,,451.525,452.109,m,1,0.561,,452.109,452.109,,0,206,206,78,1,79,ulusal,1551,70.4713,1355,0.1481,6,harmonic,1.75,word,m,,,,,,,
,,m,z,2023-11-28_15h17.32.634,VH_v3,2023.2.3,MacIntel,58.82352941,,,,,,,,,,,,452.109,453.109,,,,,,,,,,,,,,,,,,,,,,,,,,453.109,453.625,z,1,0.496,,453.626,453.626,,0,207,207,200,1,201,duftu,,,,,5,harmonic,2.5,nw,z,,,,,,,
,,m,z,2023-11-28_15h17.32.634,VH_v3,2023.2.3,MacIntel,58.82352941,,,,,,,,,,,,453.627,454.625,,,,,,,,,,,,,,,,,,,,,,,,,,454.625,455.142,m,1,0.497,,455.142,455.142,,0,208,208,23,1,24,kurum,986,44.7999,882,0.0964,5,harmonic,1.75,word,m,,,,,,,
,,m,z,2023-11-28_15h17.32.634,VH_v3,2023.2.3,MacIntel,58.82352941,,,,,,,,,,,,455.142,456.142,,,,,,,,,,,,,,,,,,,,,,,,,,456.142,456.775,z,1,0.613,,456.775,456.775,,0,209,209,242,1,243,ziye,,,,,4,harmonic,1.75,nw,z,,,,,,,
,,m,z,2023-11-28_15h17.32.634,VH_v3,2023.2.3,MacIntel,58.82352941,,,,,,,,,,,,456.775,457.776,,,,,,,,,,,,,,,,,,,,,,,,,,457.776,458.342,m,1,0.55,,458.342,458.342,,0,210,210,42,1,43,ürün,2268,103.0489,1954,0.2136,4,harmonic,1.1,word,m,,,,,,,
,,m,z,2023-11-28_15h17.32.634,VH_v3,2023.2.3,MacIntel,58.82352941,,,,,,,,,,,,458.343,459.342,,,,,,,,,,,,,,,,,,,,,,,,,,459.342,459.842,m,1,0.48,,459.842,459.842,,0,211,211,115,1,116,uygun,6757,307.0113,6297,0.6884,5,harmonic,,word,m,,,,,,,
,,m,z,2023-11-28_15h17.32.634,VH_v3,2023.2.3,MacIntel,58.82352941,,,,,,,,,,,,459.843,460.842,,,,,,,,,,,,,,,,,,,,,,,,,,460.842,461.325,m,1,0.461,,461.325,461.325,,0,212,212,4,1,5,metre,1156,52.5241,1015,0.111,5,harmonic,1.7,word,m,,,,,,,
,,m,z,2023-11-28_15h17.32.634,VH_v3,2023.2.3,MacIntel,58.82352941,,,,,,,,,,,,461.325,462.325,,,,,,,,,,,,,,,,,,,,,,,,,,462.326,462.892,z,1,0.551,,462.892,462.893,,0,213,213,220,1,221,lingin,,,,,6,harmonic,1.85,nw,z,,,,,,,
,,m,z,2023-11-28_15h17.32.634,VH_v3,2023.2.3,MacIntel,58.82352941,,,,,,,,,,,,462.893,463.892,,,,,,,,,,,,,,,,,,,,,,,,,,463.892,464.425,m,1,0.512,,464.425,464.425,,0,214,214,95,1,96,koyun,1431,65.019,1292,0.1412,5,harmonic,,word,m,,,,,,,
,,m,z,2023-11-28_15h17.32.634,VH_v3,2023.2.3,MacIntel,58.82352941,,,,,,,,,,,,464.425,465.426,,,,,,,,,,,,,,,,,,,,,,,,,,465.426,465.892,m,1,0.45,,465.892,465.892,,0,215,215,86,1,87,gerçek,8983,408.1519,8058,0.8809,6,harmonic,1.7,word,m,,,,,,,
,,m,z,2023-11-28_15h17.32.634,VH_v3,2023.2.3,MacIntel,58.82352941,,,,,,,,,,,,465.893,466.892,,,,,,,,,,,,,,,,,,,,,,,,,,466.893,467.642,z,1,0.728,,467.642,467.643,,0,216,216,208,1,209,guzır,,,,,5,harmonic,2.05,nw,z,,,,,,,
,,m,z,2023-11-28_15h17.32.634,VH_v3,2023.2.3,MacIntel,58.82352941,,,,,,,,,,,,467.643,468.643,,,,,,,,,,,,,,,,,,,,,,,,,,468.643,469.159,m,1,0.494,,469.159,469.159,,0,217,217,118,1,119,deniz,5006,227.4528,4256,0.4653,5,harmonic,,word,m,,,,,,,
,,m,z,2023-11-28_15h17.32.634,VH_v3,2023.2.3,MacIntel,58.82352941,,,,,,,,,,,,469.16,470.159,,,,,,,,,,,,,,,,,,,,,,,,,,470.164,470.892,z,1,0.71,,470.892,470.893,,0,218,218,218,1,219,yaltın,,,,,6,harmonic,1.8,nw,z,,,,,,,
,,m,z,2023-11-28_15h17.32.634,VH_v3,2023.2.3,MacIntel,58.82352941,,,,,,,,,,,,470.893,471.892,,,,,,,,,,,,,,,,,,,,,,,,,,471.892,472.426,z,1,0.515,,472.426,472.426,,0,219,219,232,1,233,çemek,,,,,5,harmonic,1.5,nw,z,,,,,,,
,,m,z,2023-11-28_15h17.32.634,VH_v3,2023.2.3,MacIntel,58.82352941,,,,,,,,,,,,472.427,473.426,,,,,,,,,,,,,,,,,,,,,,,,,,473.426,474.009,m,1,0.561,,474.009,474.009,,0,220,220,116,1,117,tatlı,5515,250.5797,4949,0.541,5,harmonic,,word,m,,,,,,,
,,m,z,2023-11-28_15h17.32.634,VH_v3,2023.2.3,MacIntel,58.82352941,,,,,,,,,,,,474.01,475.009,,,,,,,,,,,,,,,,,,,,,,,,,,475.009,475.442,m,1,0.421,,475.443,475.443,,0,221,221,20,1,21,nefes,2871,130.4469,2553,0.2791,5,harmonic,1.8,word,m,,,,,,,
,,m,z,2023-11-28_15h17.32.634,VH_v3,2023.2.3,MacIntel,58.82352941,,,,,,,,,,,,475.443,476.442,,,,,,,,,,,,,,,,,,,,,,,,,,476.443,477.109,z,1,0.645,,477.109,477.11,,0,222,222,267,1,268,eşti,,,,,4,harmonic,1.85,nw,z,,,,,,,
,,m,z,2023-11-28_15h17.32.634,VH_v3,2023.2.3,MacIntel,58.82352941,,,,,,,,,,,,477.11,478.109,,,,,,,,,,,,,,,,,,,,,,,,,,478.109,478.642,m,1,0.518,,478.642,478.643,,0,223,223,159,1,160,derece,4766,216.5481,4462,0.4878,6,harmonic,,word,m,,,,,,,
,,m,z,2023-11-28_15h17.32.634,VH_v3,2023.2.3,MacIntel,58.82352941,,,,,,,,,,,,478.643,479.643,,,,,,,,,,,,,,,,,,,,,,,,,,479.643,480.159,m,1,0.496,,480.159,480.16,,0,224,224,40,1,41,tepki,1695,77.0141,1578,0.1725,5,harmonic,1.55,word,m,,,,,,,
,,m,z,2023-11-28_15h17.32.634,VH_v3,2023.2.3,MacIntel,58.82352941,,,,,,,,,,,,480.16,481.159,,,,,,,,,,,,,,,,,,,,,,,,,,481.159,481.926,z,1,0.745,,481.926,481.926,,0,225,225,212,1,213,toya,,,,,4,harmonic,1.6,nw,z,,,,,,,
,,m,z,2023-11-28_15h17.32.634,VH_v3,2023.2.3,MacIntel,58.82352941,,,,,,,,,,,,481.926,482.926,,,,,,,,,,,,,,,,,,,,,,,,,,482.926,483.626,z,1,0.677,,483.626,483.626,,0,226,226,189,1,190,kanak,,,,,5,harmonic,1.1,nw,z,,,,,,,
,,m,z,2023-11-28_15h17.32.634,VH_v3,2023.2.3,MacIntel,58.82352941,,,,,,,,,,,,483.627,484.626,,,,,,,,,,,,,,,,,,,,,,,,,,484.626,485.125,m,1,0.486,,485.125,485.125,,0,227,227,72,1,73,çorba,1674,76.0599,1513,0.1654,5,harmonic,1.75,word,m,,,,,,,
,,m,z,2023-11-28_15h17.32.634,VH_v3,2023.2.3,MacIntel,58.82352941,,,,,,,,,,,,485.126,486.126,,,,,,,,,,,,,,,,,,,,,,,,,,486.126,486.693,m,0,0.546,,486.693,486.693,,0,228,228,269,1,270,kanon,,,,,5,harmonic,,nw,z,,,,,,,
,,m,z,2023-11-28_15h17.32.634,VH_v3,2023.2.3,MacIntel,58.82352941,,,,,,,,,,,,486.693,487.693,,,,,,,,,,,,,,,,,,,,,,,,,,487.693,488.209,m,1,0.495,,488.21,488.21,,0,229,229,81,1,82,üretim,1593,72.3796,1283,0.1403,6,harmonic,1.6,word,m,,,,,,,
,,m,z,2023-11-28_15h17.32.634,VH_v3,2023.2.3,MacIntel,58.82352941,,,,,,,,,,,,488.21,489.209,,,,,,,,,,,,,,,,,,,,,,,,,,489.21,489.693,m,1,0.462,,489.693,489.694,,0,230,230,84,1,85,ülke,3121,141.8059,2801,0.3062,4,harmonic,1.65,word,m,,,,,,,
,,m,z,2023-11-28_15h17.32.634,VH_v3,2023.2.3,MacIntel,58.82352941,,,,,,,,,,,,489.694,490.693,,,,,,,,,,,,,,,,,,,,,,,,,,490.693,491.126,m,1,0.421,,491.126,491.126,,0,231,231,140,1,141,ünlü,2684,121.9503,2457,0.2686,4,harmonic,,word,m,,,,,,,
,,m,z,2023-11-28_15h17.32.634,VH_v3,2023.2.3,MacIntel,58.82352941,,,,,,,,,,,,491.127,492.126,,,,,,,,,,,,,,,,,,,,,,,,,,492.126,492.81,m,1,0.662,,492.81,492.81,,0,232,232,178,1,179,aykırı,1094,49.707,1022,0.1117,6,harmonic,,word,m,,,,,,,
,,m,z,2023-11-28_15h17.32.634,VH_v3,2023.2.3,MacIntel,58.82352941,,,,,,,,,,,,492.81,493.81,,,,,,,,,,,,,,,,,,,,,,,,,,493.81,494.36,z,1,0.531,,494.36,494.36,,0,233,233,338,1,339,kunik,,,,,5,notharmonic,1.8,nw,z,,,,,,,
,,m,z,2023-11-28_15h17.32.634,VH_v3,2023.2.3,MacIntel,58.82352941,,,,,,,,,,,,494.361,495.36,,,,,,,,,,,,,,,,,,,,,,,,,,495.36,495.993,m,1,0.615,,495.993,495.993,,0,234,234,66,1,67,sanık,768,34.8949,699,0.0764,5,harmonic,1.85,word,m,,,,,,,
,,m,z,2023-11-28_15h17.32.634,VH_v3,2023.2.3,MacIntel,58.82352941,,,,,,,,,,,,495.994,496.993,,,,,,,,,,,,,,,,,,,,,,,,,,496.993,497.476,m,1,0.467,,497.476,497.476,,0,235,235,47,1,48,kaza,740,33.6227,679,0.0742,4,harmonic,1.85,word,m,,,,,,,
,,m,z,2023-11-28_15h17.32.634,VH_v3,2023.2.3,MacIntel,58.82352941,,,,,,,,,,,,497.476,498.476,,,,,,,,,,,,,,,,,,,,,,,,,,498.476,499.143,z,1,0.649,,499.143,499.143,,0,236,236,319,1,320,mafke,,,,,5,notharmonic,1.9,nw,z,,,,,,,
,,m,z,2023-11-28_15h17.32.634,VH_v3,2023.2.3,MacIntel,58.82352941,,,,,,,,,,,,499.144,500.143,,,,,,,,,,,,,,,,,,,,,,,,,,500.143,500.676,m,1,0.513,,500.677,500.677,,0,237,237,126,1,127,ciddi,4147,188.4232,3686,0.403,5,harmonic,,word,m,,,,,,,
,,m,z,2023-11-28_15h17.32.634,VH_v3,2023.2.3,MacIntel,58.82352941,,,,,,,,,,,,500.678,501.676,,,,,,,,,,,,,,,,,,,,,,,,,,501.677,502.41,z,1,0.718,,502.41,502.41,,0,238,238,236,1,237,abar,,,,,4,harmonic,1.1,nw,z,,,,,,,
,,m,z,2023-11-28_15h17.32.634,VH_v3,2023.2.3,MacIntel,58.82352941,,,,,,,,,,,,502.41,503.41,,,,,,,,,,,,,,,,,,,,,,,,,,503.41,503.86,m,1,0.43,,503.86,503.86,,0,239,239,130,1,131,sonuç,3768,171.203,3626,0.3964,5,harmonic,,word,m,,,,,,,
,,m,z,2023-11-28_15h17.32.634,VH_v3,2023.2.3,MacIntel,58.82352941,,,,,,,,,,,,503.861,504.859,,,,,,,,,,,,,,,,,,,,,,,,,,504.859,505.51,m,1,0.629,,505.51,516.31,space,0,240,240,3,1,4,minik,2916,132.4915,2594,0.2836,5,harmonic,1.6,word,m,10.78,,,,,,
,,m,z,2023-11-28_15h17.32.634,VH_v3,2023.2.3,MacIntel,58.82352941,,,,,,,,,,,,516.31,517.31,,,,,,,,,,,,,,,,,,,,,,,,,,517.31,518.443,z,1,1.118,,518.443,518.444,,0,241,241,257,1,258,dulom,,,,,5,harmonic,2.3,nw,z,,,,,,,
,,m,z,2023-11-28_15h17.32.634,VH_v3,2023.2.3,MacIntel,58.82352941,,,,,,,,,,,,518.444,519.444,,,,,,,,,,,,,,,,,,,,,,,,,,519.444,520.06,z,1,0.595,,520.06,520.06,,0,242,242,262,1,263,ürze,,,,,4,harmonic,1.95,nw,z,,,,,,,
,,m,z,2023-11-28_15h17.32.634,VH_v3,2023.2.3,MacIntel,58.82352941,,,,,,,,,,,,520.061,521.06,,,,,,,,,,,,,,,,,,,,,,,,,,521.06,521.576,z,1,0.497,,521.576,521.576,,0,243,243,308,1,309,tasnin,,,,,6,notharmonic,1.85,nw,z,,,,,,,
,,m,z,2023-11-28_15h17.32.634,VH_v3,2023.2.3,MacIntel,58.82352941,,,,,,,,,,,,521.577,522.577,,,,,,,,,,,,,,,,,,,,,,,,,,522.577,523.094,z,1,0.501,,523.094,523.094,,0,244,244,290,1,291,nüda,,,,,4,notharmonic,1.9,nw,z,,,,,,,
,,m,z,2023-11-28_15h17.32.634,VH_v3,2023.2.3,MacIntel,58.82352941,,,,,,,,,,,,523.094,524.093,,,,,,,,,,,,,,,,,,,,,,,,,,524.093,524.627,m,1,0.513,,524.627,524.627,,0,245,245,147,1,148,dizi,1995,90.6449,1689,0.1846,4,harmonic,,word,m,,,,,,,
,,m,z,2023-11-28_15h17.32.634,VH_v3,2023.2.3,MacIntel,58.82352941,,,,,,,,,,,,524.628,525.627,,,,,,,,,,,,,,,,,,,,,,,,,,525.627,526.293,m,1,0.644,,526.293,526.293,,0,246,246,58,1,59,ayak,2143,97.3694,1931,0.2111,4,harmonic,1,word,m,,,,,,,
,,m,z,2023-11-28_15h17.32.634,VH_v3,2023.2.3,MacIntel,58.82352941,,,,,,,,,,,,526.293,527.294,,,,,,,,,,,,,,,,,,,,,,,,,,527.294,528.194,z,1,0.879,,528.194,528.194,,0,247,247,302,1,303,desum,,,,,5,notharmonic,2,nw,z,,,,,,,
,,m,z,2023-11-28_15h17.32.634,VH_v3,2023.2.3,MacIntel,58.82352941,,,,,,,,,,,,528.195,529.194,,,,,,,,,,,,,,,,,,,,,,,,,,529.194,529.827,m,1,0.613,,529.827,529.827,,0,248,248,111,1,112,soğan,1315,59.7484,1202,0.1314,5,harmonic,,word,m,,,,,,,
,,m,z,2023-11-28_15h17.32.634,VH_v3,2023.2.3,MacIntel,58.82352941,,,,,,,,,,,,529.828,530.827,,,,,,,,,,,,,,,,,,,,,,,,,,530.827,531.411,m,1,0.563,,531.411,531.411,,0,249,249,104,1,105,çizgi,1340,60.8843,1074,0.1174,5,harmonic,,word,m,,,,,,,
,,m,z,2023-11-28_15h17.32.634,VH_v3,2023.2.3,MacIntel,58.82352941,,,,,,,,,,,,531.411,532.41,,,,,,,,,,,,,,,,,,,,,,,,,,532.41,533.06,z,1,0.63,,533.061,533.061,,0,250,250,343,1,344,tazen,,,,,5,notharmonic,1.8,nw,z,,,,,,,
,,m,z,2023-11-28_15h17.32.634,VH_v3,2023.2.3,MacIntel,58.82352941,,,,,,,,,,,,533.061,534.061,,,,,,,,,,,,,,,,,,,,,,,,,,534.061,534.561,z,1,0.482,,534.561,534.561,,0,251,251,291,1,292,kasge,,,,,5,notharmonic,2,nw,z,,,,,,,
,,m,z,2023-11-28_15h17.32.634,VH_v3,2023.2.3,MacIntel,58.82352941,,,,,,,,,,,,534.562,535.561,,,,,,,,,,,,,,,,,,,,,,,,,,535.561,536.094,m,1,0.516,,536.094,536.095,,0,252,252,102,1,103,kaşık,1355,61.5658,1177,0.1287,5,harmonic,,word,m,,,,,,,
,,m,z,2023-11-28_15h17.32.634,VH_v3,2023.2.3,MacIntel,58.82352941,,,,,,,,,,,,536.095,537.094,,,,,,,,,,,,,,,,,,,,,,,,,,537.094,537.677,z,1,0.567,,537.677,537.678,,0,253,253,301,1,302,meyav,,,,,5,notharmonic,1.85,nw,z,,,,,,,
,,m,z,2023-11-28_15h17.32.634,VH_v3,2023.2.3,MacIntel,58.82352941,,,,,,,,,,,,537.678,538.677,,,,,,,,,,,,,,,,,,,,,,,,,,538.677,539.477,z,1,0.779,,539.477,539.478,,0,254,254,349,1,350,mane,,,,,4,notharmonic,1.45,nw,z,,,,,,,
,,m,z,2023-11-28_15h17.32.634,VH_v3,2023.2.3,MacIntel,58.82352941,,,,,,,,,,,,539.478,540.477,,,,,,,,,,,,,,,,,,,,,,,,,,540.477,540.977,m,1,0.48,,540.977,540.978,,0,255,255,37,1,38,hayvan,2363,107.3653,1894,0.2071,6,harmonic,1.5,word,m,,,,,,,
,,m,z,2023-11-28_15h17.32.634,VH_v3,2023.2.3,MacIntel,58.82352941,,,,,,,,,,,,540.978,541.977,,,,,,,,,,,,,,,,,,,,,,,,,,541.978,542.561,m,1,0.562,,542.561,542.561,,0,256,256,87,1,88,mümkün,6604,300.0596,6264,0.6848,6,harmonic,1.9,word,m,,,,,,,
,,m,z,2023-11-28_15h17.32.634,VH_v3,2023.2.3,MacIntel,58.82352941,,,,,,,,,,,,542.561,543.561,,,,,,,,,,,,,,,,,,,,,,,,,,543.561,544.611,m,0,1.028,,544.611,544.611,,0,257,257,339,1,340,halip,,,,,5,notharmonic,1.5,nw,z,,,,,,,
,,m,z,2023-11-28_15h17.32.634,VH_v3,2023.2.3,MacIntel,58.82352941,,,,,,,,,,,,544.612,545.61,,,,,,,,,,,,,,,,,,,,,,,,,,545.61,546.194,z,1,0.564,,546.194,546.194,,0,258,258,314,1,315,betaş,,,,,5,notharmonic,1.9,nw,z,,,,,,,
,,m,z,2023-11-28_15h17.32.634,VH_v3,2023.2.3,MacIntel,58.82352941,,,,,,,,,,,,546.196,547.194,,,,,,,,,,,,,,,,,,,,,,,,,,547.194,547.811,z,1,0.597,,547.811,547.811,,0,259,259,329,1,330,aniş,,,,,4,notharmonic,1.7,nw,z,,,,,,,
,,m,z,2023-11-28_15h17.32.634,VH_v3,2023.2.3,MacIntel,58.82352941,,,,,,,,,,,,547.812,548.811,,,,,,,,,,,,,,,,,,,,,,,,,,548.811,549.377,m,1,0.548,,549.377,549.377,,0,260,260,77,1,78,ufak,3252,147.758,2980,0.3258,4,harmonic,1.5,word,m,,,,,,,
,,m,z,2023-11-28_15h17.32.634,VH_v3,2023.2.3,MacIntel,58.82352941,,,,,,,,,,,,549.378,550.378,,,,,,,,,,,,,,,,,,,,,,,,,,550.378,550.877,m,1,0.479,,550.878,550.878,,0,261,261,112,1,113,genel,7752,352.2201,6893,0.7535,5,harmonic,,word,m,,,,,,,
,,m,z,2023-11-28_15h17.32.634,VH_v3,2023.2.3,MacIntel,58.82352941,,,,,,,,,,,,550.878,551.878,,,,,,,,,,,,,,,,,,,,,,,,,,551.878,552.361,m,1,0.465,,552.361,552.362,,0,262,262,19,1,20,ödül,1063,48.2985,926,0.1012,4,harmonic,1.7,word,m,,,,,,,
,,m,z,2023-11-28_15h17.32.634,VH_v3,2023.2.3,MacIntel,58.82352941,,,,,,,,,,,,552.363,553.361,,,,,,,,,,,,,,,,,,,,,,,,,,553.361,553.961,z,1,0.578,,553.961,553.961,,0,263,263,327,1,328,zena,,,,,4,notharmonic,1.65,nw,z,,,,,,,
,,m,z,2023-11-28_15h17.32.634,VH_v3,2023.2.3,MacIntel,58.82352941,,,,,,,,,,,,553.962,554.961,,,,,,,,,,,,,,,,,,,,,,,,,,554.961,555.861,z,1,0.88,,555.861,555.861,,0,264,264,245,1,246,mahram,,,,,6,harmonic,1.85,nw,z,,,,,,,
,,m,z,2023-11-28_15h17.32.634,VH_v3,2023.2.3,MacIntel,58.82352941,,,,,,,,,,,,555.862,556.861,,,,,,,,,,,,,,,,,,,,,,,,,,556.861,557.428,z,1,0.548,,557.428,557.428,,0,265,265,354,1,355,dizdat,,,,,6,notharmonic,2.4,nw,z,,,,,,,
,,m,z,2023-11-28_15h17.32.634,VH_v3,2023.2.3,MacIntel,58.82352941,,,,,,,,,,,,557.429,558.428,,,,,,,,,,,,,,,,,,,,,,,,,,558.428,559.078,z,1,0.634,,559.078,559.078,,0,266,266,284,1,285,zebap,,,,,5,notharmonic,1.8,nw,z,,,,,,,
,,m,z,2023-11-28_15h17.32.634,VH_v3,2023.2.3,MacIntel,58.82352941,,,,,,,,,,,,559.079,560.078,,,,,,,,,,,,,,,,,,,,,,,,,,560.078,560.727,m,1,0.629,,560.727,560.728,,0,267,267,152,1,153,sene,6752,306.7841,5843,0.6388,4,harmonic,,word,m,,,,,,,
,,m,z,2023-11-28_15h17.32.634,VH_v3,2023.2.3,MacIntel,58.82352941,,,,,,,,,,,,560.728,561.728,,,,,,,,,,,,,,,,,,,,,,,,,,561.728,562.345,z,1,0.597,,562.345,562.345,,0,268,268,254,1,255,ileşçe,,,,,6,harmonic,2.65,nw,z,,,,,,,
,,m,z,2023-11-28_15h17.32.634,VH_v3,2023.2.3,MacIntel,58.82352941,,,,,,,,,,,,562.345,563.345,,,,,,,,,,,,,,,,,,,,,,,,,,563.345,564.044,m,1,0.679,,564.045,564.045,,0,269,269,149,1,150,ince,4045,183.7888,3429,0.3749,4,harmonic,,word,m,,,,,,,
,,m,z,2023-11-28_15h17.32.634,VH_v3,2023.2.3,MacIntel,58.82352941,,,,,,,,,,,,564.046,565.045,,,,,,,,,,,,,,,,,,,,,,,,,,565.045,565.61,z,1,0.55,,565.61,565.611,,0,270,270,318,1,319,sapel,,,,,5,notharmonic,1.9,nw,z,,,,,,,
,,m,z,2023-11-28_15h17.32.634,VH_v3,2023.2.3,MacIntel,58.82352941,,,,,,,,,,,,565.611,566.611,,,,,,,,,,,,,,,,,,,,,,,,,,566.611,567.261,z,1,0.635,,567.261,567.261,,0,271,271,322,1,323,galiç,,,,,5,notharmonic,1.8,nw,z,,,,,,,
,,m,z,2023-11-28_15h17.32.634,VH_v3,2023.2.3,MacIntel,58.82352941,,,,,,,,,,,,567.262,568.261,,,,,,,,,,,,,,,,,,,,,,,,,,568.261,568.761,m,1,0.478,,568.761,568.762,,0,272,272,120,1,121,doğal,4821,219.0471,4328,0.4731,5,harmonic,,word,m,,,,,,,
,,m,z,2023-11-28_15h17.32.634,VH_v3,2023.2.3,MacIntel,58.82352941,,,,,,,,,,,,568.762,569.761,,,,,,,,,,,,,,,,,,,,,,,,,,569.761,570.195,m,1,0.414,,570.195,570.195,,0,273,273,29,1,30,huzur,1911,86.8283,1799,0.1967,5,harmonic,1.8,word,m,,,,,,,
,,m,z,2023-11-28_15h17.32.634,VH_v3,2023.2.3,MacIntel,58.82352941,,,,,,,,,,,,570.196,571.195,,,,,,,,,,,,,,,,,,,,,,,,,,571.195,571.611,m,1,0.399,,571.611,571.612,,0,274,274,51,1,52,ilginç,2803,127.3572,2690,0.2941,6,harmonic,1.8,word,m,,,,,,,
,,m,z,2023-11-28_15h17.32.634,VH_v3,2023.2.3,MacIntel,58.82352941,,,,,,,,,,,,571.612,572.611,,,,,,,,,,,,,,,,,,,,,,,,,,572.612,573.062,m,0,0.429,,573.062,573.062,,0,275,275,298,1,299,memzur,,,,,6,notharmonic,1.95,nw,z,,,,,,,
,,m,z,2023-11-28_15h17.32.634,VH_v3,2023.2.3,MacIntel,58.82352941,,,,,,,,,,,,573.063,574.061,,,,,,,,,,,,,,,,,,,,,,,,,,574.062,574.761,z,1,0.678,,574.762,574.762,,0,276,276,263,1,264,geğniş,,,,,6,harmonic,2.35,nw,z,,,,,,,
,,m,z,2023-11-28_15h17.32.634,VH_v3,2023.2.3,MacIntel,58.82352941,,,,,,,,,,,,574.762,575.762,,,,,,,,,,,,,,,,,,,,,,,,,,575.762,576.445,z,1,0.666,,576.445,576.445,,0,277,277,258,1,259,meryeş,,,,,6,harmonic,2.35,nw,z,,,,,,,
,,m,z,2023-11-28_15h17.32.634,VH_v3,2023.2.3,MacIntel,58.82352941,,,,,,,,,,,,576.446,577.445,,,,,,,,,,,,,,,,,,,,,,,,,,577.445,578.311,z,1,0.847,,578.312,578.312,,0,278,278,181,1,182,erben,,,,,5,harmonic,1.8,nw,z,,,,,,,
,,m,z,2023-11-28_15h17.32.634,VH_v3,2023.2.3,MacIntel,58.82352941,,,,,,,,,,,,578.312,579.312,,,,,,,,,,,,,,,,,,,,,,,,,,579.312,579.828,z,1,0.5,,579.828,579.828,,0,279,279,287,1,288,beran,,,,,5,notharmonic,1.75,nw,z,,,,,,,
,,m,z,2023-11-28_15h17.32.634,VH_v3,2023.2.3,MacIntel,58.82352941,,,,,,,,,,,,579.829,580.828,,,,,,,,,,,,,,,,,,,,,,,,,,580.828,581.312,z,1,0.463,,581.312,581.312,,0,280,280,350,1,351,bügun,,,,,5,notharmonic,2,nw,z,,,,,,,
,,m,z,2023-11-28_15h17.32.634,VH_v3,2023.2.3,MacIntel,58.82352941,,,,,,,,,,,,581.312,582.311,,,,,,,,,,,,,,,,,,,,,,,,,,582.312,582.845,z,1,0.513,,582.845,582.845,,0,281,281,201,1,202,azlaş,,,,,5,harmonic,1.8,nw,z,,,,,,,
,,m,z,2023-11-28_15h17.32.634,VH_v3,2023.2.3,MacIntel,58.82352941,,,,,,,,,,,,582.846,583.845,,,,,,,,,,,,,,,,,,,,,,,,,,583.845,584.445,z,1,0.579,,584.445,584.445,,0,282,282,223,1,224,kamut,,,,,5,harmonic,1.5,nw,z,,,,,,,
,,m,z,2023-11-28_15h17.32.634,VH_v3,2023.2.3,MacIntel,58.82352941,,,,,,,,,,,,584.446,585.444,,,,,,,,,,,,,,,,,,,,,,,,,,585.444,586.012,z,1,0.553,,586.012,586.012,,0,283,283,341,1,342,sizika,,,,,6,notharmonic,2.45,nw,z,,,,,,,
,,m,z,2023-11-28_15h17.32.634,VH_v3,2023.2.3,MacIntel,58.82352941,,,,,,,,,,,,586.013,587.012,,,,,,,,,,,,,,,,,,,,,,,,,,587.012,587.562,m,1,0.534,,587.562,587.562,,0,284,284,24,1,25,yorgun,1153,52.3877,1108,0.1211,6,harmonic,1.55,word,m,,,,,,,
,,m,z,2023-11-28_15h17.32.634,VH_v3,2023.2.3,MacIntel,58.82352941,,,,,,,,,,,,587.562,588.562,,,,,,,,,,,,,,,,,,,,,,,,,,588.562,589.078,m,1,0.497,,589.079,589.079,,0,285,285,179,1,180,mesele,995,45.2089,929,0.1016,6,harmonic,,word,m,,,,,,,
,,m,z,2023-11-28_15h17.32.634,VH_v3,2023.2.3,MacIntel,58.82352941,,,,,,,,,,,,589.079,590.078,,,,,,,,,,,,,,,,,,,,,,,,,,590.079,590.695,m,1,0.594,,590.695,590.696,,0,286,286,121,1,122,şeker,4708,213.9128,4170,0.4559,5,harmonic,,word,m,,,,,,,
,,m,z,2023-11-28_15h17.32.634,VH_v3,2023.2.3,MacIntel,58.82352941,,,,,,,,,,,,590.696,591.695,,,,,,,,,,,,,,,,,,,,,,,,,,591.695,592.178,m,1,0.469,,592.178,592.179,,0,287,287,135,1,136,değer,3333,151.4383,3084,0.3371,5,harmonic,,word,m,,,,,,,
,,m,z,2023-11-28_15h17.32.634,VH_v3,2023.2.3,MacIntel,58.82352941,,,,,,,,,,,,592.179,593.178,,,,,,,,,,,,,,,,,,,,,,,,,,593.179,593.678,m,1,0.48,,593.679,593.679,,0,288,288,6,1,7,hayal,4498,204.3713,4079,0.4459,5,harmonic,1.45,word,m,,,,,,,
,,m,z,2023-11-28_15h17.32.634,VH_v3,2023.2.3,MacIntel,58.82352941,,,,,,,,,,,,593.679,594.679,,,,,,,,,,,,,,,,,,,,,,,,,,594.679,595.245,m,1,0.546,,595.245,595.246,,0,289,289,50,1,51,kanun,1198,54.4324,1010,0.1104,5,harmonic,1.6,word,m,,,,,,,
,,m,z,2023-11-28_15h17.32.634,VH_v3,2023.2.3,MacIntel,58.82352941,,,,,,,,,,,,595.246,596.245,,,,,,,,,,,,,,,,,,,,,,,,,,596.245,596.845,z,1,0.578,,596.845,596.845,,0,290,290,277,1,278,melbut,,,,,6,notharmonic,1.95,nw,z,,,,,,,
,,m,z,2023-11-28_15h17.32.634,VH_v3,2023.2.3,MacIntel,58.82352941,,,,,,,,,,,,596.846,597.845,,,,,,,,,,,,,,,,,,,,,,,,,,597.845,598.412,m,1,0.545,,598.412,598.412,,0,291,291,17,1,18,yakın,7990,363.0339,7595,0.8303,5,harmonic,1.8,word,m,,,,,,,
,,m,z,2023-11-28_15h17.32.634,VH_v3,2023.2.3,MacIntel,58.82352941,,,,,,,,,,,,598.413,599.411,,,,,,,,,,,,,,,,,,,,,,,,,,599.411,600.345,m,0,0.911,,600.345,600.346,,0,292,292,187,1,188,hücmet,,,,,6,harmonic,1.85,nw,z,,,,,,,
,,m,z,2023-11-28_15h17.32.634,VH_v3,2023.2.3,MacIntel,58.82352941,,,,,,,,,,,,600.346,601.346,,,,,,,,,,,,,,,,,,,,,,,,,,601.346,602.096,z,1,0.729,,602.096,602.096,,0,293,293,286,1,287,elsaf,,,,,5,notharmonic,1.9,nw,z,,,,,,,
,,m,z,2023-11-28_15h17.32.634,VH_v3,2023.2.3,MacIntel,58.82352941,,,,,,,,,,,,602.096,603.095,,,,,,,,,,,,,,,,,,,,,,,,,,603.095,603.645,z,1,0.529,,603.645,603.645,,0,294,294,235,1,236,mörüm,,,,,5,harmonic,1.9,nw,z,,,,,,,
,,m,z,2023-11-28_15h17.32.634,VH_v3,2023.2.3,MacIntel,58.82352941,,,,,,,,,,,,603.646,604.645,,,,,,,,,,,,,,,,,,,,,,,,,,604.645,605.396,m,1,0.73,,605.396,605.396,,0,295,295,167,1,168,yoğurt,1484,67.4271,1359,0.1486,6,harmonic,,word,m,,,,,,,
,,m,z,2023-11-28_15h17.32.634,VH_v3,2023.2.3,MacIntel,58.82352941,,,,,,,,,,,,605.396,606.396,,,,,,,,,,,,,,,,,,,,,,,,,,606.396,606.929,z,1,0.513,,606.929,606.929,,0,296,296,206,1,207,bülse,,,,,5,harmonic,2,nw,z,,,,,,,
,,m,z,2023-11-28_15h17.32.634,VH_v3,2023.2.3,MacIntel,58.82352941,,,,,,,,,,,,606.93,607.928,,,,,,,,,,,,,,,,,,,,,,,,,,607.928,608.446,z,1,0.497,,608.446,608.446,,0,297,297,251,1,252,bellet,,,,,6,harmonic,1.8,nw,z,,,,,,,
,,m,z,2023-11-28_15h17.32.634,VH_v3,2023.2.3,MacIntel,58.82352941,,,,,,,,,,,,608.446,609.446,,,,,,,,,,,,,,,,,,,,,,,,,,609.446,609.978,m,1,0.512,,609.978,609.979,,0,298,298,142,1,143,aşık,2464,111.9544,2129,0.2327,4,harmonic,,word,m,,,,,,,
,,m,z,2023-11-28_15h17.32.634,VH_v3,2023.2.3,MacIntel,58.82352941,,,,,,,,,,,,609.979,610.979,,,,,,,,,,,,,,,,,,,,,,,,,,610.979,611.512,m,1,0.515,,611.512,611.512,,0,299,299,172,1,173,halka,1196,54.3415,1014,0.1109,6,harmonic,,word,m,,,,,,,
,,m,z,2023-11-28_15h17.32.634,VH_v3,2023.2.3,MacIntel,58.82352941,,,,,,,,,,,,611.513,612.513,,,,,,,,,,,,,,,,,,,,,,,,,,612.513,613.112,z,1,0.579,,613.112,613.113,,0,300,300,196,1,197,gakık,,,,,5,harmonic,2,nw,z,,,,,,,
,,m,z,2023-11-28_15h17.32.634,VH_v3,2023.2.3,MacIntel,58.82352941,,,,,,,,,,,,613.113,614.112,,,,,,,,,,,,,,,,,,,,,,,,,,614.112,615.062,z,1,0.936,,615.062,615.063,,0,301,301,192,1,193,kusu,,,,,4,harmonic,1.5,nw,z,,,,,,,
,,m,z,2023-11-28_15h17.32.634,VH_v3,2023.2.3,MacIntel,58.82352941,,,,,,,,,,,,615.063,616.062,,,,,,,,,,,,,,,,,,,,,,,,,,616.063,616.579,m,1,0.496,,616.579,616.579,,0,302,302,18,1,19,normal,4154,188.7413,3788,0.4141,6,harmonic,1.75,word,m,,,,,,,
,,m,z,2023-11-28_15h17.32.634,VH_v3,2023.2.3,MacIntel,58.82352941,,,,,,,,,,,,616.58,617.578,,,,,,,,,,,,,,,,,,,,,,,,,,617.578,618.096,z,1,0.497,,618.096,618.096,,0,303,303,205,1,206,sefbe,,,,,5,harmonic,2,nw,z,,,,,,,
,,m,z,2023-11-28_15h17.32.634,VH_v3,2023.2.3,MacIntel,58.82352941,,,,,,,,,,,,618.097,619.096,,,,,,,,,,,,,,,,,,,,,,,,,,619.096,619.663,z,1,0.546,,619.663,619.663,,0,304,304,184,1,185,medme,,,,,5,harmonic,1.95,nw,z,,,,,,,
,,m,z,2023-11-28_15h17.32.634,VH_v3,2023.2.3,MacIntel,58.82352941,,,,,,,,,,,,619.663,620.663,,,,,,,,,,,,,,,,,,,,,,,,,,620.663,621.212,m,1,0.531,,621.213,621.213,,0,305,305,30,1,31,çevre,1662,75.5147,1409,0.154,5,harmonic,1.55,word,m,,,,,,,
,,m,z,2023-11-28_15h17.32.634,VH_v3,2023.2.3,MacIntel,58.82352941,,,,,,,,,,,,621.213,622.213,,,,,,,,,,,,,,,,,,,,,,,,,,622.213,622.712,z,1,0.479,,622.713,622.713,,0,306,306,346,1,347,mamit,,,,,5,notharmonic,1.85,nw,z,,,,,,,
,,m,z,2023-11-28_15h17.32.634,VH_v3,2023.2.3,MacIntel,58.82352941,,,,,,,,,,,,622.713,623.713,,,,,,,,,,,,,,,,,,,,,,,,,,623.713,624.263,z,1,0.529,,624.263,624.263,,0,307,307,216,1,217,halban,,,,,6,harmonic,2,nw,z,,,,,,,
,,m,z,2023-11-28_15h17.32.634,VH_v3,2023.2.3,MacIntel,58.82352941,,,,,,,,,,,,624.264,625.262,,,,,,,,,,,,,,,,,,,,,,,,,,625.262,625.813,z,1,0.529,,625.813,625.813,,0,308,308,191,1,192,unot,,,,,4,harmonic,1.85,nw,z,,,,,,,
,,m,z,2023-11-28_15h17.32.634,VH_v3,2023.2.3,MacIntel,58.82352941,,,,,,,,,,,,625.814,626.813,,,,,,,,,,,,,,,,,,,,,,,,,,626.813,627.382,m,1,0.551,,627.382,627.382,,0,309,309,27,1,28,bölge,1283,58.2944,1123,0.1228,5,harmonic,1.65,word,m,,,,,,,
,,m,z,2023-11-28_15h17.32.634,VH_v3,2023.2.3,MacIntel,58.82352941,,,,,,,,,,,,627.383,628.38,,,,,,,,,,,,,,,,,,,,,,,,,,628.38,628.913,m,1,0.513,,628.913,628.914,,0,310,310,74,1,75,başarı,1398,63.5196,1300,0.1421,6,harmonic,1.2,word,m,,,,,,,
,,m,z,2023-11-28_15h17.32.634,VH_v3,2023.2.3,MacIntel,58.82352941,,,,,,,,,,,,628.915,629.913,,,,,,,,,,,,,,,,,,,,,,,,,,629.913,630.38,m,1,0.446,,630.38,630.38,,0,311,311,117,1,118,yavaş,5087,231.1331,2886,0.3155,5,harmonic,,word,m,,,,,,,
,,m,z,2023-11-28_15h17.32.634,VH_v3,2023.2.3,MacIntel,58.82352941,,,,,,,,,,,,630.381,631.378,,,,,,,,,,,,,,,,,,,,,,,,,,631.379,631.963,z,1,0.564,,631.963,631.963,,0,312,312,332,1,333,makik,,,,,5,notharmonic,1.6,nw,z,,,,,,,
,,m,z,2023-11-28_15h17.32.634,VH_v3,2023.2.3,MacIntel,58.82352941,,,,,,,,,,,,631.964,632.963,,,,,,,,,,,,,,,,,,,,,,,,,,632.963,633.68,z,1,0.697,,633.68,633.68,,0,313,313,328,1,329,tadit,,,,,5,notharmonic,1.8,nw,z,,,,,,,
,,m,z,2023-11-28_15h17.32.634,VH_v3,2023.2.3,MacIntel,58.82352941,,,,,,,,,,,,633.681,634.68,,,,,,,,,,,,,,,,,,,,,,,,,,634.68,635.213,z,1,0.512,,635.213,635.213,,0,314,314,296,1,297,taeri,,,,,5,notharmonic,2,nw,z,,,,,,,
,,m,z,2023-11-28_15h17.32.634,VH_v3,2023.2.3,MacIntel,58.82352941,,,,,,,,,,,,635.214,636.213,,,,,,,,,,,,,,,,,,,,,,,,,,636.213,636.73,z,1,0.495,,636.73,636.73,,0,315,315,283,1,284,sate,,,,,4,notharmonic,1.45,nw,z,,,,,,,
,,m,z,2023-11-28_15h17.32.634,VH_v3,2023.2.3,MacIntel,58.82352941,,,,,,,,,,,,636.731,637.73,,,,,,,,,,,,,,,,,,,,,,,,,,637.73,638.413,m,1,0.663,,638.413,638.413,,0,316,316,89,1,90,etki,1234,56.0681,1169,0.1278,4,harmonic,1.4,word,m,,,,,,,
,,m,z,2023-11-28_15h17.32.634,VH_v3,2023.2.3,MacIntel,58.82352941,,,,,,,,,,,,638.414,639.413,,,,,,,,,,,,,,,,,,,,,,,,,,639.413,639.98,z,1,0.544,,639.98,639.98,,0,317,317,250,1,251,çonsa,,,,,5,harmonic,1.9,nw,z,,,,,,,
,,m,z,2023-11-28_15h17.32.634,VH_v3,2023.2.3,MacIntel,58.82352941,,,,,,,,,,,,639.981,640.979,,,,,,,,,,,,,,,,,,,,,,,,,,640.979,641.463,m,1,0.464,,641.463,641.464,,0,318,318,61,1,62,yıldız,1775,80.649,1532,0.1675,6,harmonic,1.6,word,m,,,,,,,
,,m,z,2023-11-28_15h17.32.634,VH_v3,2023.2.3,MacIntel,58.82352941,,,,,,,,,,,,641.464,642.463,,,,,,,,,,,,,,,,,,,,,,,,,,642.463,642.963,m,1,0.486,,642.963,642.963,,0,319,319,41,1,42,zengin,2193,99.6412,2015,0.2203,6,harmonic,1.65,word,m,,,,,,,
,,m,z,2023-11-28_15h17.32.634,VH_v3,2023.2.3,MacIntel,58.82352941,,,,,,,,,,,,642.964,643.963,,,,,,,,,,,,,,,,,,,,,,,,,,643.963,644.446,m,1,0.463,,644.446,644.447,,0,320,320,39,1,40,yaygın,1061,48.2076,1019,0.1114,6,harmonic,1.35,word,m,,,,,,,
,,m,z,2023-11-28_15h17.32.634,VH_v3,2023.2.3,MacIntel,58.82352941,,,,,,,,,,,,644.447,645.447,,,,,,,,,,,,,,,,,,,,,,,,,,645.447,645.996,z,1,0.529,,645.996,645.997,,0,321,321,320,1,321,sivaka,,,,,6,notharmonic,2.3,nw,z,,,,,,,
,,m,z,2023-11-28_15h17.32.634,VH_v3,2023.2.3,MacIntel,58.82352941,,,,,,,,,,,,645.997,646.997,,,,,,,,,,,,,,,,,,,,,,,,,,646.997,647.48,m,1,0.463,,647.48,647.48,,0,322,322,171,1,172,şirket,1227,55.75,1022,0.1117,6,harmonic,,word,m,,,,,,,
,,m,z,2023-11-28_15h17.32.634,VH_v3,2023.2.3,MacIntel,58.82352941,,,,,,,,,,,,647.481,648.48,,,,,,,,,,,,,,,,,,,,,,,,,,648.48,648.947,m,1,0.446,,648.947,648.947,,0,323,323,119,1,120,rahat,4833,219.5924,4316,0.4718,5,harmonic,,word,m,,,,,,,
,,m,z,2023-11-28_15h17.32.634,VH_v3,2023.2.3,MacIntel,58.82352941,,,,,,,,,,,,648.948,649.947,,,,,,,,,,,,,,,,,,,,,,,,,,649.947,650.43,m,1,0.463,,650.43,650.43,,0,324,324,151,1,152,uzak,4809,218.5019,4564,0.4989,4,harmonic,,word,m,,,,,,,
,,m,z,2023-11-28_15h17.32.634,VH_v3,2023.2.3,MacIntel,58.82352941,,,,,,,,,,,,650.431,651.43,,,,,,,,,,,,,,,,,,,,,,,,,,651.43,652.03,z,1,0.578,,652.03,652.03,,0,325,325,324,1,325,başi,,,,,4,notharmonic,1.5,nw,z,,,,,,,
,,m,z,2023-11-28_15h17.32.634,VH_v3,2023.2.3,MacIntel,58.82352941,,,,,,,,,,,,652.031,653.03,,,,,,,,,,,,,,,,,,,,,,,,,,653.03,653.63,z,1,0.584,,653.63,653.63,,0,326,326,268,1,269,hayot,,,,,5,harmonic,,nw,z,,,,,,,
,,m,z,2023-11-28_15h17.32.634,VH_v3,2023.2.3,MacIntel,58.82352941,,,,,,,,,,,,653.631,654.63,,,,,,,,,,,,,,,,,,,,,,,,,,654.63,655.147,m,1,0.495,,655.147,655.147,,0,327,327,103,1,104,yemek,9626,437.3673,8311,0.9086,5,harmonic,,word,m,,,,,,,
,,m,z,2023-11-28_15h17.32.634,VH_v3,2023.2.3,MacIntel,58.82352941,,,,,,,,,,,,655.147,656.147,,,,,,,,,,,,,,,,,,,,,,,,,,656.147,656.697,z,1,0.529,,656.697,656.697,,0,328,328,255,1,256,ubar,,,,,4,harmonic,1.7,nw,z,,,,,,,
,,m,z,2023-11-28_15h17.32.634,VH_v3,2023.2.3,MacIntel,58.82352941,,,,,,,,,,,,656.697,657.697,,,,,,,,,,,,,,,,,,,,,,,,,,657.697,658.213,m,1,0.499,,658.214,658.214,,0,329,329,21,1,22,duygu,1877,85.2834,1760,0.1924,5,harmonic,1.8,word,m,,,,,,,
,,m,z,2023-11-28_15h17.32.634,VH_v3,2023.2.3,MacIntel,58.82352941,,,,,,,,,,,,658.214,659.213,,,,,,,,,,,,,,,,,,,,,,,,,,659.214,659.68,m,1,0.445,,659.68,659.68,,0,330,330,99,1,100,çocuk,10612,482.1672,8979,0.9816,5,harmonic,,word,m,,,,,,,
,,m,z,2023-11-28_15h17.32.634,VH_v3,2023.2.3,MacIntel,58.82352941,,,,,,,,,,,,659.681,660.68,,,,,,,,,,,,,,,,,,,,,,,,,,660.68,661.113,m,1,0.412,,661.113,661.114,,0,331,331,11,1,12,umut,1988,90.3268,1818,0.1987,4,harmonic,1.55,word,m,,,,,,,
,,m,z,2023-11-28_15h17.32.634,VH_v3,2023.2.3,MacIntel,58.82352941,,,,,,,,,,,,661.114,662.114,,,,,,,,,,,,,,,,,,,,,,,,,,662.114,662.58,m,1,0.446,,662.58,662.58,,0,332,332,22,1,23,anlam,1730,78.6043,1617,0.1768,5,harmonic,1.25,word,m,,,,,,,
,,m,z,2023-11-28_15h17.32.634,VH_v3,2023.2.3,MacIntel,58.82352941,,,,,,,,,,,,662.581,663.58,,,,,,,,,,,,,,,,,,,,,,,,,,663.58,664.113,z,1,0.516,,664.113,664.114,,0,333,333,237,1,238,küyek,,,,,5,harmonic,1.8,nw,z,,,,,,,
,,m,z,2023-11-28_15h17.32.634,VH_v3,2023.2.3,MacIntel,58.82352941,,,,,,,,,,,,664.114,665.114,,,,,,,,,,,,,,,,,,,,,,,,,,665.114,665.63,m,0,0.496,,665.63,665.63,,0,334,334,203,1,204,yırdun,,,,,6,harmonic,2.8,nw,z,,,,,,,
,,m,z,2023-11-28_15h17.32.634,VH_v3,2023.2.3,MacIntel,58.82352941,,,,,,,,,,,,665.631,666.631,,,,,,,,,,,,,,,,,,,,,,,,,,666.631,667.147,m,1,0.497,,667.147,667.147,,0,335,335,70,1,71,yarın,3440,156.3,3222,0.3522,5,harmonic,1.85,word,m,,,,,,,
,,m,z,2023-11-28_15h17.32.634,VH_v3,2023.2.3,MacIntel,58.82352941,,,,,,,,,,,,667.148,668.147,,,,,,,,,,,,,,,,,,,,,,,,,,668.147,668.68,z,1,0.517,,668.68,668.681,,0,336,336,215,1,216,maflek,,,,,6,harmonic,2.15,nw,z,,,,,,,
,,m,z,2023-11-28_15h17.32.634,VH_v3,2023.2.3,MacIntel,58.82352941,,,,,,,,,,,,668.681,669.68,,,,,,,,,,,,,,,,,,,,,,,,,,669.68,670.663,z,1,0.962,,670.663,670.663,,0,337,337,307,1,308,masil,,,,,5,notharmonic,1.65,nw,z,,,,,,,
,,m,z,2023-11-28_15h17.32.634,VH_v3,2023.2.3,MacIntel,58.82352941,,,,,,,,,,,,670.663,671.664,,,,,,,,,,,,,,,,,,,,,,,,,,671.664,672.313,m,1,0.635,,672.313,672.313,,0,338,338,8,1,9,güven,1433,65.1098,1300,0.1421,5,harmonic,1.35,word,m,,,,,,,
,,m,z,2023-11-28_15h17.32.634,VH_v3,2023.2.3,MacIntel,58.82352941,,,,,,,,,,,,672.313,673.314,,,,,,,,,,,,,,,,,,,,,,,,,,673.314,673.93,m,1,0.596,,673.931,673.931,,0,339,339,110,1,111,beden,1333,60.5662,1119,0.1223,5,harmonic,,word,m,,,,,,,
,,m,z,2023-11-28_15h17.32.634,VH_v3,2023.2.3,MacIntel,58.82352941,,,,,,,,,,,,673.931,674.93,,,,,,,,,,,,,,,,,,,,,,,,,,674.931,675.68,m,1,0.733,,675.681,675.681,,0,340,340,60,1,61,doğu,2105,95.6429,1823,0.1993,4,harmonic,1.05,word,m,,,,,,,
,,m,z,2023-11-28_15h17.32.634,VH_v3,2023.2.3,MacIntel,58.82352941,,,,,,,,,,,,675.681,676.681,,,,,,,,,,,,,,,,,,,,,,,,,,676.681,678.681,,0,,,678.681,678.681,,0,341,341,295,1,296,takime,,,,,6,notharmonic,1.9,nw,z,,,,,,,
,,m,z,2023-11-28_15h17.32.634,VH_v3,2023.2.3,MacIntel,58.82352941,,,,,,,,,,,,678.682,679.68,,,,,,,,,,,,,,,,,,,,,,,,,,679.68,680.514,z,1,0.815,,680.514,680.514,,0,342,342,219,1,220,tefsi,,,,,5,harmonic,1.8,nw,z,,,,,,,
,,m,z,2023-11-28_15h17.32.634,VH_v3,2023.2.3,MacIntel,58.82352941,,,,,,,,,,,,680.515,681.514,,,,,,,,,,,,,,,,,,,,,,,,,,681.514,682.064,m,1,0.53,,682.064,682.064,,0,343,343,168,1,169,peynir,1421,64.5646,1248,0.1364,6,harmonic,,word,m,,,,,,,
,,m,z,2023-11-28_15h17.32.634,VH_v3,2023.2.3,MacIntel,58.82352941,,,,,,,,,,,,682.065,683.064,,,,,,,,,,,,,,,,,,,,,,,,,,683.064,683.548,m,1,0.463,,683.548,683.548,,0,344,344,48,1,49,teşvik,932,42.3464,867,0.0948,6,harmonic,1.8,word,m,,,,,,,
,,m,z,2023-11-28_15h17.32.634,VH_v3,2023.2.3,MacIntel,58.82352941,,,,,,,,,,,,683.548,684.547,,,,,,,,,,,,,,,,,,,,,,,,,,684.547,685.047,m,1,0.48,,685.047,685.048,,0,345,345,67,1,68,bayram,1948,88.5094,1648,0.1802,6,harmonic,1.85,word,m,,,,,,,
,,m,z,2023-11-28_15h17.32.634,VH_v3,2023.2.3,MacIntel,58.82352941,,,,,,,,,,,,685.048,686.047,,,,,,,,,,,,,,,,,,,,,,,,,,686.047,686.481,m,1,0.412,,686.481,686.481,,0,346,346,141,1,142,kuru,2669,121.2688,2372,0.2593,4,harmonic,,word,m,,,,,,,
,,m,z,2023-11-28_15h17.32.634,VH_v3,2023.2.3,MacIntel,58.82352941,,,,,,,,,,,,686.482,687.481,,,,,,,,,,,,,,,,,,,,,,,,,,687.481,687.997,m,1,0.5,,687.997,687.998,,0,347,347,12,1,13,konu,5400,245.3546,5110,0.5586,4,harmonic,1,word,m,,,,,,,
,,m,z,2023-11-28_15h17.32.634,VH_v3,2023.2.3,MacIntel,58.82352941,,,,,,,,,,,,687.998,688.998,,,,,,,,,,,,,,,,,,,,,,,,,,688.998,689.549,z,1,0.537,,689.549,689.549,,0,348,348,253,1,254,notan,,,,,5,harmonic,1.85,nw,z,,,,,,,
,,m,z,2023-11-28_15h17.32.634,VH_v3,2023.2.3,MacIntel,58.82352941,,,,,,,,,,,,689.55,690.548,,,,,,,,,,,,,,,,,,,,,,,,,,690.548,691.198,m,1,0.633,,691.198,691.198,,0,349,349,129,1,130,yorum,3801,172.7024,3473,0.3797,5,harmonic,,word,m,,,,,,,
,,m,z,2023-11-28_15h17.32.634,VH_v3,2023.2.3,MacIntel,58.82352941,,,,,,,,,,,,691.198,692.197,,,,,,,,,,,,,,,,,,,,,,,,,,692.197,692.948,z,1,0.729,,692.948,692.948,,0,350,350,197,1,198,şortal,,,,,6,harmonic,1.95,nw,z,,,,,,,
,,m,z,2023-11-28_15h17.32.634,VH_v3,2023.2.3,MacIntel,58.82352941,,,,,,,,,,,,692.948,693.948,,,,,,,,,,,,,,,,,,,,,,,,,,693.948,694.398,m,1,0.433,,694.398,694.398,,0,351,351,13,1,14,nokta,2085,94.7341,1939,0.212,5,harmonic,1.5,word,m,,,,,,,
,,m,z,2023-11-28_15h17.32.634,VH_v3,2023.2.3,MacIntel,58.82352941,,,,,,,,,,,,694.398,695.398,,,,,,,,,,,,,,,,,,,,,,,,,,695.398,695.948,z,1,0.534,,695.948,695.948,,0,352,352,226,1,227,mara,,,,,4,harmonic,1,nw,z,,,,,,,
,,m,z,2023-11-28_15h17.32.634,VH_v3,2023.2.3,MacIntel,58.82352941,,,,,,,,,,,,695.948,696.948,,,,,,,,,,,,,,,,,,,,,,,,,,696.948,697.415,m,1,0.445,,697.415,697.415,,0,353,353,0,1,1,sanat,3121,141.8059,2485,0.2717,5,harmonic,1.4,word,m,,,,,,,
,,m,z,2023-11-28_15h17.32.634,VH_v3,2023.2.3,MacIntel,58.82352941,,,,,,,,,,,,697.415,698.414,,,,,,,,,,,,,,,,,,,,,,,,,,698.414,698.798,m,1,0.362,,698.798,698.798,,0,354,354,33,1,34,moda,1381,62.7472,1231,0.1346,4,harmonic,1.55,word,m,,,,,,,
,,m,z,2023-11-28_15h17.32.634,VH_v3,2023.2.3,MacIntel,58.82352941,,,,,,,,,,,,698.798,699.798,,,,,,,,,,,,,,,,,,,,,,,,,,699.798,700.214,m,1,0.397,,700.215,700.215,,0,355,355,97,1,98,kadın,10751,488.4828,8665,0.9473,5,harmonic,,word,m,,,,,,,
,,m,z,2023-11-28_15h17.32.634,VH_v3,2023.2.3,MacIntel,58.82352941,,,,,,,,,,,,700.215,701.214,,,,,,,,,,,,,,,,,,,,,,,,,,701.214,701.681,m,1,0.447,,701.681,701.681,,0,356,356,139,1,140,okul,2685,121.9958,2381,0.2603,4,harmonic,,word,m,,,,,,,
,,m,z,2023-11-28_15h17.32.634,VH_v3,2023.2.3,MacIntel,58.82352941,,,,,,,,,,,,701.682,702.681,,,,,,,,,,,,,,,,,,,,,,,,,,702.681,703.148,z,1,0.454,,703.148,703.148,,0,357,357,272,1,273,sakke,,,,,5,notharmonic,1.85,nw,z,,,,,,,
,,m,z,2023-11-28_15h17.32.634,VH_v3,2023.2.3,MacIntel,58.82352941,,,,,,,,,,,,703.149,704.148,,,,,,,,,,,,,,,,,,,,,,,,,,704.148,704.681,z,1,0.514,,704.681,704.682,,0,358,358,323,1,324,itkea,,,,,5,notharmonic,2.35,nw,z,,,,,,,
,,m,z,2023-11-28_15h17.32.634,VH_v3,2023.2.3,MacIntel,58.82352941,,,,,,,,,,,,704.682,705.681,,,,,,,,,,,,,,,,,,,,,,,,,,705.681,706.248,z,1,0.546,,706.248,706.248,,0,359,359,193,1,194,şıkta,,,,,5,harmonic,2,nw,z,,,,,,,
,,m,z,2023-11-28_15h17.32.634,VH_v3,2023.2.3,MacIntel,58.82352941,,,,,,,,,,,,,,,,,,,,,,,,,,,,,,,,,,,,,,,,,,,,,,,,,,,,,,,,,,,,,,,,,,706.25,708.199,space,1.929,