anket.started,anket.stopped,participant,session,date,expName,psychopyVersion,OS,frameRate,Welcome_screen.started,Welcome_screen.stopped,key_respwelcome.keys,key_respwelcome.rt,key_respwelcome.duration,intro_x.thisRepN,intro_x.thisTrialN,intro_x.thisN,intro_x.thisIndex,intro_x.ran,Introduction,Fixation.started,Fixation.stopped,Studypractice.started,Studypractice.stopped,key_respstudy.keys,key_respstudy.corr,key_respstudy.rt,key_respstudy.duration,rt,corr,Feedback.started,Feedback.stopped,practice_loop.thisRepN,practice_loop.thisTrialN,practice_loop.thisN,practice_loop.thisIndex,practice_loop.ran,item_nr_p,target_p,isHarmonic_p,target_cond_p,CorrAns_p,Instraction.started,Instraction.stopped,key_respınstraction.keys,key_respınstraction.rt,key_respınstraction.duration,TestTrial.started,TestTrial.stopped,key_respTest.keys,key_respTest.corr,key_respTest.rt,key_respTest.duration,Pause.started,Pause.stopped,key_resp_xx.keys,test_loop.thisRepN,test_loop.thisTrialN,test_loop.thisN,test_loop.thisIndex,test_loop.ran,item_nr,target,BlogFreq_A1,BlogFreqpm_A1,BlogCD_A1,BlogCDPc_A1,WordLength_A1,isHarmonic_A1,old20,target_cond,CorrAns,key_resp_xx.rt,key_resp_xx.duration,Goodbye_screen.started,Goodbye_screen.stopped,key_respgoodbye.keys,key_respgoodbye.rt,key_respgoodbye.duration
0.001,0.001,oltan,1,2023-11-27_20h09.34.094,VH_v3,2023.2.3,Win32,60.0240096,,,,,,,,,,,,,,,,,,,,,,,,,,,,,,,,,,,,,,,,,,,,,,,,,,,,,,,,,,,,,,,,,,,,,,
,,oltan,1,2023-11-27_20h09.34.094,VH_v3,2023.2.3,Win32,60.0240096,0.042,1.308,space,1.23,,0,0,0,0,1,"Deneye hoş geldiniz,

Devam etmek için BOŞLUK tuşuna basınız.",,,,,,,,,,,,,,,,,,,,,,,,,,,,,,,,,,,,,,,,,,,,,,,,,,,,,,,,,,,
,,oltan,1,2023-11-27_20h09.34.094,VH_v3,2023.2.3,Win32,60.0240096,1.309,2.441,space,1.101,,0,1,1,1,1,"Bu çalışma Valencia Üniversitesi kapsamında yürütülmektedir. Deneydeki göreviniz, ekrana çıkacak Türkçe sözcüklerin kelime olup olmadığını belirlemenizdir. Eğer sözcük gerçek bir kelime ise ""m"" tuşuna, değil ise ""z"" tuşuna basınız.   

Devam etmek için BOŞLUK tuşuna basınız.",,,,,,,,,,,,,,,,,,,,,,,,,,,,,,,,,,,,,,,,,,,,,,,,,,,,,,,,,,,
,,oltan,1,2023-11-27_20h09.34.094,VH_v3,2023.2.3,Win32,60.0240096,2.441,4.074,space,1.61,,0,2,2,2,1,"Her sözcük için en fazla iki saniyede cevap vermeniz beklenmektedir. Aksi takdirde deney bir sonraki sözcük ile devam eder. 
Bu çalışmada oldukça hızlı ve doğru cevaplama yapmanız beklenmektedir.

Devam etmek için BOŞLUK tuşuna basınız.",,,,,,,,,,,,,,,,,,,,,,,,,,,,,,,,,,,,,,,,,,,,,,,,,,,,,,,,,,,
,,oltan,1,2023-11-27_20h09.34.094,VH_v3,2023.2.3,Win32,60.0240096,4.075,6.655,space,2.554,,0,3,3,3,1,"Çalışmaya başlamadan önce ufak bir pratik yer almaktadır.
Kelimedir: ""m""
Kelime değildir: ""z""

Pratik teste başlamak için BOŞLUK tuşuna basınız. ",,,,,,,,,,,,,,,,,,,,,,,,,,,,,,,,,,,,,,,,,,,,,,,,,,,,,,,,,,,
,,oltan,1,2023-11-27_20h09.34.094,VH_v3,2023.2.3,Win32,60.0240096,,,,,,,,,,,,6.671,7.655,7.655,8.737,z,1,1.066,,1.066,1,8.737,10.237,0,0,0,18,1,19,pimer,harmonic,nw,z,,,,,,,,,,,,,,,,,,,,,,,,,,,,,,,,,,,,,
,,oltan,1,2023-11-27_20h09.34.094,VH_v3,2023.2.3,Win32,60.0240096,,,,,,,,,,,,10.238,11.237,11.237,11.77,m,1,0.515,,0.515,1,11.77,13.269,0,1,1,5,1,6,gizli,harmonic,word,m,,,,,,,,,,,,,,,,,,,,,,,,,,,,,,,,,,,,,
,,oltan,1,2023-11-27_20h09.34.094,VH_v3,2023.2.3,Win32,60.0240096,,,,,,,,,,,,13.269,14.269,14.269,15.002,z,1,0.716,,0.716,1,15.002,16.501,0,2,2,21,1,22,güçli,harmonic,nw,z,,,,,,,,,,,,,,,,,,,,,,,,,,,,,,,,,,,,,
,,oltan,1,2023-11-27_20h09.34.094,VH_v3,2023.2.3,Win32,60.0240096,,,,,,,,,,,,16.502,17.501,17.501,18.084,m,1,0.569,,0.569,1,18.084,19.583,0,3,3,10,1,11,nefret,harmonic,word,m,,,,,,,,,,,,,,,,,,,,,,,,,,,,,,,,,,,,,
,,oltan,1,2023-11-27_20h09.34.094,VH_v3,2023.2.3,Win32,60.0240096,,,,,,,,,,,,19.584,20.583,20.583,21.232,z,1,0.636,,0.636,1,21.232,22.731,0,4,4,17,1,18,pilar,notharmonic,nw,z,,,,,,,,,,,,,,,,,,,,,,,,,,,,,,,,,,,,,
,,oltan,1,2023-11-27_20h09.34.094,VH_v3,2023.2.3,Win32,60.0240096,,,,,,,,,,,,22.732,23.731,23.731,24.248,m,1,0.497,,0.497,1,24.248,25.746,0,5,5,8,1,9,bilim,harmonic,word,m,,,,,,,,,,,,,,,,,,,,,,,,,,,,,,,,,,,,,
,,oltan,1,2023-11-27_20h09.34.094,VH_v3,2023.2.3,Win32,60.0240096,,,,,,,,,,,,25.746,26.747,26.747,27.279,m,1,0.515,,0.515,1,27.279,28.779,0,6,6,3,1,4,sevgi,harmonic,word,m,,,,,,,,,,,,,,,,,,,,,,,,,,,,,,,,,,,,,
,,oltan,1,2023-11-27_20h09.34.094,VH_v3,2023.2.3,Win32,60.0240096,,,,,,,,,,,,28.779,29.779,29.779,30.481,z,1,0.689,,0.689,1,30.481,31.977,0,7,7,15,1,16,geki,harmonic,nw,z,,,,,,,,,,,,,,,,,,,,,,,,,,,,,,,,,,,,,
,,oltan,1,2023-11-27_20h09.34.094,VH_v3,2023.2.3,Win32,60.0240096,,,,,,,,,,,,31.981,32.977,32.977,33.51,m,1,0.517,,0.517,1,33.51,35.009,0,8,8,11,1,12,teslim,harmonic,word,m,,,,,,,,,,,,,,,,,,,,,,,,,,,,,,,,,,,,,
,,oltan,1,2023-11-27_20h09.34.094,VH_v3,2023.2.3,Win32,60.0240096,,,,,,,,,,,,35.01,36.008,36.008,36.542,z,1,0.514,,0.514,1,36.542,38.042,0,9,9,16,1,17,ihlot,notharmonic,nw,z,,,,,,,,,,,,,,,,,,,,,,,,,,,,,,,,,,,,,
,,oltan,1,2023-11-27_20h09.34.094,VH_v3,2023.2.3,Win32,60.0240096,,,,,,,,,,,,38.043,39.041,39.041,39.59,z,1,0.538,,0.538,1,39.59,41.09,0,10,10,23,1,24,zarim,notharmonic,nw,z,,,,,,,,,,,,,,,,,,,,,,,,,,,,,,,,,,,,,
,,oltan,1,2023-11-27_20h09.34.094,VH_v3,2023.2.3,Win32,60.0240096,,,,,,,,,,,,41.09,42.089,42.089,42.539,m,1,0.432,,0.432,1,42.539,44.038,0,11,11,1,1,2,veri,harmonic,word,m,,,,,,,,,,,,,,,,,,,,,,,,,,,,,,,,,,,,,
,,oltan,1,2023-11-27_20h09.34.094,VH_v3,2023.2.3,Win32,60.0240096,,,,,,,,,,,,44.039,45.038,45.038,45.688,m,1,0.63,,0.63,1,45.688,47.187,0,12,12,7,1,8,oran,harmonic,word,m,,,,,,,,,,,,,,,,,,,,,,,,,,,,,,,,,,,,,
,,oltan,1,2023-11-27_20h09.34.094,VH_v3,2023.2.3,Win32,60.0240096,,,,,,,,,,,,47.188,48.187,48.187,48.786,m,1,0.58,,0.58,1,48.787,50.286,0,13,13,2,1,3,yardım,harmonic,word,m,,,,,,,,,,,,,,,,,,,,,,,,,,,,,,,,,,,,,
,,oltan,1,2023-11-27_20h09.34.094,VH_v3,2023.2.3,Win32,60.0240096,,,,,,,,,,,,50.287,51.285,51.285,51.835,m,1,0.535,,0.535,1,51.835,53.334,0,14,14,4,1,5,soğuk,harmonic,word,m,,,,,,,,,,,,,,,,,,,,,,,,,,,,,,,,,,,,,
,,oltan,1,2023-11-27_20h09.34.094,VH_v3,2023.2.3,Win32,60.0240096,,,,,,,,,,,,53.335,54.334,54.334,54.867,z,1,0.515,,0.515,1,54.867,56.367,0,15,15,14,1,15,mahne,notharmonic,nw,z,,,,,,,,,,,,,,,,,,,,,,,,,,,,,,,,,,,,,
,,oltan,1,2023-11-27_20h09.34.094,VH_v3,2023.2.3,Win32,60.0240096,,,,,,,,,,,,56.367,57.366,57.366,57.949,z,1,0.565,,0.565,1,57.949,59.448,0,16,16,22,1,23,gizım,notharmonic,nw,z,,,,,,,,,,,,,,,,,,,,,,,,,,,,,,,,,,,,,
,,oltan,1,2023-11-27_20h09.34.094,VH_v3,2023.2.3,Win32,60.0240096,,,,,,,,,,,,59.449,60.448,60.448,61.03,m,1,0.565,,0.565,1,61.03,62.53,0,17,17,6,1,7,sebep,harmonic,word,m,,,,,,,,,,,,,,,,,,,,,,,,,,,,,,,,,,,,,
,,oltan,1,2023-11-27_20h09.34.094,VH_v3,2023.2.3,Win32,60.0240096,,,,,,,,,,,,62.531,63.53,63.53,64.115,m,1,0.568,,0.568,1,64.116,65.612,0,18,18,9,1,10,zarar,harmonic,word,m,,,,,,,,,,,,,,,,,,,,,,,,,,,,,,,,,,,,,
,,oltan,1,2023-11-27_20h09.34.094,VH_v3,2023.2.3,Win32,60.0240096,,,,,,,,,,,,65.617,66.612,66.612,67.129,z,1,0.497,,0.497,1,67.129,68.628,0,19,19,20,1,21,yoğuk,harmonic,nw,z,,,,,,,,,,,,,,,,,,,,,,,,,,,,,,,,,,,,,
,,oltan,1,2023-11-27_20h09.34.094,VH_v3,2023.2.3,Win32,60.0240096,,,,,,,,,,,,68.629,69.628,69.628,70.176,m,0,0.536,,0.536,0,70.177,71.676,0,20,20,12,1,13,tahip,notharmonic,nw,z,,,,,,,,,,,,,,,,,,,,,,,,,,,,,,,,,,,,,
,,oltan,1,2023-11-27_20h09.34.094,VH_v3,2023.2.3,Win32,60.0240096,,,,,,,,,,,,71.677,72.675,72.675,73.258,z,1,0.564,,0.564,1,73.258,74.758,0,21,21,19,1,20,mımal,harmonic,nw,z,,,,,,,,,,,,,,,,,,,,,,,,,,,,,,,,,,,,,
,,oltan,1,2023-11-27_20h09.34.094,VH_v3,2023.2.3,Win32,60.0240096,,,,,,,,,,,,74.759,75.758,75.758,76.308,m,1,0.531,,0.531,1,76.308,77.806,0,22,22,0,1,1,hazır,harmonic,word,m,,,,,,,,,,,,,,,,,,,,,,,,,,,,,,,,,,,,,
,,oltan,1,2023-11-27_20h09.34.094,VH_v3,2023.2.3,Win32,60.0240096,,,,,,,,,,,,77.808,78.806,78.806,79.339,z,1,0.52,,0.52,1,79.339,80.838,0,23,23,13,1,14,orat,harmonic,nw,z,,,,,,,,,,,,,,,,,,,,,,,,,,,,,,,,,,,,,
,,oltan,1,2023-11-27_20h09.34.094,VH_v3,2023.2.3,Win32,60.0240096,,,,,,,,,,,,,,,,,,,,,,,,,,,,,,,,,,80.838,84.354,space,3.497,,,,,,,,,,,,,,,,,,,,,,,,,,,,,,,,,
,,oltan,1,2023-11-27_20h09.34.094,VH_v3,2023.2.3,Win32,60.0240096,,,,,,,,,,,,84.401,85.37,,,,,,,,,,,,,,,,,,,,,,,,,,85.37,85.936,m,1,0.544,,85.936,85.939,,0,0,0,159,1,160,derece,4766,216.5481,4462,0.4878,6,harmonic,,word,m,,,,,,,
,,oltan,1,2023-11-27_20h09.34.094,VH_v3,2023.2.3,Win32,60.0240096,,,,,,,,,,,,85.94,86.936,,,,,,,,,,,,,,,,,,,,,,,,,,86.936,87.541,z,1,0.595,,87.541,87.541,,0,1,1,264,1,265,yerfek,,,,,6,harmonic,2,nw,z,,,,,,,
,,oltan,1,2023-11-27_20h09.34.094,VH_v3,2023.2.3,Win32,60.0240096,,,,,,,,,,,,87.542,88.535,,,,,,,,,,,,,,,,,,,,,,,,,,88.535,89.068,z,1,0.514,,89.069,89.069,,0,2,2,250,1,251,çonsa,,,,,5,harmonic,1.9,nw,z,,,,,,,
,,oltan,1,2023-11-27_20h09.34.094,VH_v3,2023.2.3,Win32,60.0240096,,,,,,,,,,,,89.07,90.068,,,,,,,,,,,,,,,,,,,,,,,,,,90.068,90.534,m,1,0.449,,90.534,90.534,,0,3,3,108,1,109,sabah,8179,371.6213,7277,0.7955,5,harmonic,,word,m,,,,,,,
,,oltan,1,2023-11-27_20h09.34.094,VH_v3,2023.2.3,Win32,60.0240096,,,,,,,,,,,,90.535,91.534,,,,,,,,,,,,,,,,,,,,,,,,,,91.534,92.1,z,1,0.547,,92.1,92.101,,0,4,4,239,1,240,yulçız,,,,,6,harmonic,2.75,nw,z,,,,,,,
,,oltan,1,2023-11-27_20h09.34.094,VH_v3,2023.2.3,Win32,60.0240096,,,,,,,,,,,,92.101,93.1,,,,,,,,,,,,,,,,,,,,,,,,,,93.1,93.616,z,1,0.501,,93.617,93.617,,0,5,5,298,1,299,memzur,,,,,6,notharmonic,1.95,nw,z,,,,,,,
,,oltan,1,2023-11-27_20h09.34.094,VH_v3,2023.2.3,Win32,60.0240096,,,,,,,,,,,,93.618,94.616,,,,,,,,,,,,,,,,,,,,,,,,,,94.616,95.232,z,1,0.601,,95.232,95.232,,0,6,6,308,1,309,tasnin,,,,,6,notharmonic,1.85,nw,z,,,,,,,
,,oltan,1,2023-11-27_20h09.34.094,VH_v3,2023.2.3,Win32,60.0240096,,,,,,,,,,,,95.232,96.231,,,,,,,,,,,,,,,,,,,,,,,,,,96.231,96.765,z,1,0.522,,96.765,96.765,,0,7,7,321,1,322,kibas,,,,,5,notharmonic,1.9,nw,z,,,,,,,
,,oltan,1,2023-11-27_20h09.34.094,VH_v3,2023.2.3,Win32,60.0240096,,,,,,,,,,,,96.765,97.767,,,,,,,,,,,,,,,,,,,,,,,,,,97.767,98.28,m,1,0.494,,98.28,98.282,,0,8,8,16,1,17,yavaş,5087,231.1331,2886,0.3155,5,harmonic,1.6,word,m,,,,,,,
,,oltan,1,2023-11-27_20h09.34.094,VH_v3,2023.2.3,Win32,60.0240096,,,,,,,,,,,,98.285,99.28,,,,,,,,,,,,,,,,,,,,,,,,,,99.28,99.813,z,1,0.519,,99.813,99.813,,0,9,9,228,1,229,nekir,,,,,5,harmonic,1.65,nw,z,,,,,,,
,,oltan,1,2023-11-27_20h09.34.094,VH_v3,2023.2.3,Win32,60.0240096,,,,,,,,,,,,99.815,100.813,,,,,,,,,,,,,,,,,,,,,,,,,,100.813,102.062,m,0,1.237,,102.062,102.063,,0,10,10,267,1,268,eşti,,,,,4,harmonic,1.85,nw,z,,,,,,,
,,oltan,1,2023-11-27_20h09.34.094,VH_v3,2023.2.3,Win32,60.0240096,,,,,,,,,,,,102.064,103.062,,,,,,,,,,,,,,,,,,,,,,,,,,103.062,103.795,m,1,0.718,,103.795,103.795,,0,11,11,103,1,104,yemek,9626,437.3673,8311,0.9086,5,harmonic,,word,m,,,,,,,
,,oltan,1,2023-11-27_20h09.34.094,VH_v3,2023.2.3,Win32,60.0240096,,,,,,,,,,,,103.795,104.795,,,,,,,,,,,,,,,,,,,,,,,,,,104.795,105.427,m,1,0.618,,105.428,105.428,,0,12,12,173,1,174,koruma,1187,53.9326,1066,0.1165,6,harmonic,,word,m,,,,,,,
,,oltan,1,2023-11-27_20h09.34.094,VH_v3,2023.2.3,Win32,60.0240096,,,,,,,,,,,,105.428,106.427,,,,,,,,,,,,,,,,,,,,,,,,,,106.427,107.077,z,1,0.631,,107.077,107.077,,0,13,13,287,1,288,beran,,,,,5,notharmonic,1.75,nw,z,,,,,,,
,,oltan,1,2023-11-27_20h09.34.094,VH_v3,2023.2.3,Win32,60.0240096,,,,,,,,,,,,107.078,108.076,,,,,,,,,,,,,,,,,,,,,,,,,,108.076,108.625,m,1,0.533,,108.625,108.626,,0,14,14,156,1,157,sosyal,5290,240.3566,4372,0.4779,6,harmonic,,word,m,,,,,,,
,,oltan,1,2023-11-27_20h09.34.094,VH_v3,2023.2.3,Win32,60.0240096,,,,,,,,,,,,108.626,109.625,,,,,,,,,,,,,,,,,,,,,,,,,,109.625,110.159,m,1,0.517,,110.159,110.159,,0,15,15,74,1,75,başarı,1398,63.5196,1300,0.1421,6,harmonic,1.2,word,m,,,,,,,
,,oltan,1,2023-11-27_20h09.34.094,VH_v3,2023.2.3,Win32,60.0240096,,,,,,,,,,,,110.159,111.158,,,,,,,,,,,,,,,,,,,,,,,,,,111.158,111.658,z,1,0.485,,111.658,111.658,,0,16,16,199,1,200,repes,,,,,5,harmonic,2,nw,z,,,,,,,
,,oltan,1,2023-11-27_20h09.34.094,VH_v3,2023.2.3,Win32,60.0240096,,,,,,,,,,,,111.658,112.658,,,,,,,,,,,,,,,,,,,,,,,,,,112.658,113.174,m,1,0.505,,113.174,113.174,,0,17,17,72,1,73,çorba,1674,76.0599,1513,0.1654,5,harmonic,1.75,word,m,,,,,,,
,,oltan,1,2023-11-27_20h09.34.094,VH_v3,2023.2.3,Win32,60.0240096,,,,,,,,,,,,113.175,114.173,,,,,,,,,,,,,,,,,,,,,,,,,,114.173,114.94,m,1,0.744,,114.94,114.94,,0,18,18,66,1,67,sanık,768,34.8949,699,0.0764,5,harmonic,1.85,word,m,,,,,,,
,,oltan,1,2023-11-27_20h09.34.094,VH_v3,2023.2.3,Win32,60.0240096,,,,,,,,,,,,114.941,115.939,,,,,,,,,,,,,,,,,,,,,,,,,,115.939,116.455,z,1,0.496,,116.455,116.455,,0,19,19,311,1,312,mase,,,,,4,notharmonic,1.75,nw,z,,,,,,,
,,oltan,1,2023-11-27_20h09.34.094,VH_v3,2023.2.3,Win32,60.0240096,,,,,,,,,,,,116.456,117.455,,,,,,,,,,,,,,,,,,,,,,,,,,117.455,117.989,m,1,0.514,,117.989,117.989,,0,20,20,54,1,55,yedek,825,37.4847,732,0.08,5,harmonic,1.65,word,m,,,,,,,
,,oltan,1,2023-11-27_20h09.34.094,VH_v3,2023.2.3,Win32,60.0240096,,,,,,,,,,,,117.989,118.988,,,,,,,,,,,,,,,,,,,,,,,,,,118.988,119.504,z,1,0.503,,119.504,119.504,,0,21,21,340,1,341,zizon,,,,,5,notharmonic,1.85,nw,z,,,,,,,
,,oltan,1,2023-11-27_20h09.34.094,VH_v3,2023.2.3,Win32,60.0240096,,,,,,,,,,,,119.505,120.504,,,,,,,,,,,,,,,,,,,,,,,,,,120.504,121.053,z,1,0.532,,121.053,121.053,,0,22,22,248,1,249,harık,,,,,5,harmonic,1.55,nw,z,,,,,,,
,,oltan,1,2023-11-27_20h09.34.094,VH_v3,2023.2.3,Win32,60.0240096,,,,,,,,,,,,121.054,122.053,,,,,,,,,,,,,,,,,,,,,,,,,,122.053,122.519,m,1,0.449,,122.519,122.519,,0,23,23,105,1,106,hafta,9257,420.6014,8254,0.9023,5,harmonic,,word,m,,,,,,,
,,oltan,1,2023-11-27_20h09.34.094,VH_v3,2023.2.3,Win32,60.0240096,,,,,,,,,,,,122.52,123.52,,,,,,,,,,,,,,,,,,,,,,,,,,123.52,124.036,z,1,0.496,,124.036,124.036,,0,24,24,209,1,210,çirre,,,,,5,harmonic,2,nw,z,,,,,,,
,,oltan,1,2023-11-27_20h09.34.094,VH_v3,2023.2.3,Win32,60.0240096,,,,,,,,,,,,124.036,125.035,,,,,,,,,,,,,,,,,,,,,,,,,,125.035,125.569,z,1,0.523,,125.569,125.569,,0,25,25,237,1,238,küyek,,,,,5,harmonic,1.8,nw,z,,,,,,,
,,oltan,1,2023-11-27_20h09.34.094,VH_v3,2023.2.3,Win32,60.0240096,,,,,,,,,,,,125.569,126.568,,,,,,,,,,,,,,,,,,,,,,,,,,126.568,127.101,m,1,0.515,,127.101,127.101,,0,26,26,79,1,80,durum,6783,308.1926,6431,0.703,5,harmonic,1.7,word,m,,,,,,,
,,oltan,1,2023-11-27_20h09.34.094,VH_v3,2023.2.3,Win32,60.0240096,,,,,,,,,,,,127.101,128.101,,,,,,,,,,,,,,,,,,,,,,,,,,128.101,128.7,m,1,0.582,,128.7,128.7,,0,27,27,8,1,9,güven,1433,65.1098,1300,0.1421,5,harmonic,1.35,word,m,,,,,,,
,,oltan,1,2023-11-27_20h09.34.094,VH_v3,2023.2.3,Win32,60.0240096,,,,,,,,,,,,128.701,129.7,,,,,,,,,,,,,,,,,,,,,,,,,,129.7,130.233,z,1,0.515,,130.233,130.233,,0,28,28,215,1,216,maflek,,,,,6,harmonic,2.15,nw,z,,,,,,,
,,oltan,1,2023-11-27_20h09.34.094,VH_v3,2023.2.3,Win32,60.0240096,,,,,,,,,,,,130.233,131.232,,,,,,,,,,,,,,,,,,,,,,,,,,131.232,131.716,m,1,0.464,,131.717,131.719,,0,29,29,109,1,110,dalga,1307,59.3849,1117,0.1221,5,harmonic,,word,m,,,,,,,
,,oltan,1,2023-11-27_20h09.34.094,VH_v3,2023.2.3,Win32,60.0240096,,,,,,,,,,,,131.721,132.716,,,,,,,,,,,,,,,,,,,,,,,,,,132.716,133.198,z,1,0.463,,133.199,133.199,,0,30,30,242,1,243,ziye,,,,,4,harmonic,1.75,nw,z,,,,,,,
,,oltan,1,2023-11-27_20h09.34.094,VH_v3,2023.2.3,Win32,60.0240096,,,,,,,,,,,,133.203,134.198,,,,,,,,,,,,,,,,,,,,,,,,,,134.198,134.664,m,1,0.453,,134.664,134.664,,0,31,31,73,1,74,millet,1658,75.3329,1508,0.1649,6,harmonic,1.7,word,m,,,,,,,
,,oltan,1,2023-11-27_20h09.34.094,VH_v3,2023.2.3,Win32,60.0240096,,,,,,,,,,,,134.665,135.663,,,,,,,,,,,,,,,,,,,,,,,,,,135.663,136.23,m,1,0.548,,136.23,136.231,,0,32,32,64,1,65,lise,888,40.3472,816,0.0892,4,harmonic,1.5,word,m,,,,,,,
,,oltan,1,2023-11-27_20h09.34.094,VH_v3,2023.2.3,Win32,60.0240096,,,,,,,,,,,,136.233,137.23,,,,,,,,,,,,,,,,,,,,,,,,,,137.23,137.73,z,1,0.48,,137.73,137.73,,0,33,33,194,1,195,yabum,,,,,5,harmonic,2,nw,z,,,,,,,
,,oltan,1,2023-11-27_20h09.34.094,VH_v3,2023.2.3,Win32,60.0240096,,,,,,,,,,,,137.73,138.728,,,,,,,,,,,,,,,,,,,,,,,,,,138.729,139.229,m,1,0.481,,139.229,139.229,,0,34,34,26,1,27,sebze,1094,49.707,961,0.1051,5,harmonic,1.9,word,m,,,,,,,
,,oltan,1,2023-11-27_20h09.34.094,VH_v3,2023.2.3,Win32,60.0240096,,,,,,,,,,,,139.23,140.23,,,,,,,,,,,,,,,,,,,,,,,,,,140.23,140.778,m,0,0.531,,140.778,140.778,,0,35,35,350,1,351,bügun,,,,,5,notharmonic,2,nw,z,,,,,,,
,,oltan,1,2023-11-27_20h09.34.094,VH_v3,2023.2.3,Win32,60.0240096,,,,,,,,,,,,140.78,141.777,,,,,,,,,,,,,,,,,,,,,,,,,,141.778,142.46,z,1,0.67,,142.46,142.46,,0,36,36,317,1,318,zila,,,,,4,notharmonic,1.65,nw,z,,,,,,,
,,oltan,1,2023-11-27_20h09.34.094,VH_v3,2023.2.3,Win32,60.0240096,,,,,,,,,,,,142.461,143.46,,,,,,,,,,,,,,,,,,,,,,,,,,143.46,143.96,m,1,0.481,,143.96,143.96,,0,37,37,123,1,124,güneş,4371,198.6009,3610,0.3946,5,harmonic,,word,m,,,,,,,
,,oltan,1,2023-11-27_20h09.34.094,VH_v3,2023.2.3,Win32,60.0240096,,,,,,,,,,,,143.961,144.959,,,,,,,,,,,,,,,,,,,,,,,,,,144.96,145.525,z,1,0.552,,145.526,145.526,,0,38,38,226,1,227,mara,,,,,4,harmonic,1,nw,z,,,,,,,
,,oltan,1,2023-11-27_20h09.34.094,VH_v3,2023.2.3,Win32,60.0240096,,,,,,,,,,,,145.527,146.526,,,,,,,,,,,,,,,,,,,,,,,,,,146.526,148.008,z,1,1.466,,148.008,148.008,,0,39,39,269,1,270,kanon,,,,,5,harmonic,,nw,z,,,,,,,
,,oltan,1,2023-11-27_20h09.34.094,VH_v3,2023.2.3,Win32,60.0240096,,,,,,,,,,,,148.01,149.007,,,,,,,,,,,,,,,,,,,,,,,,,,149.007,149.558,m,1,0.53,,149.558,149.558,,0,40,40,14,1,15,yaşam,4348,197.5559,3918,0.4283,5,harmonic,1.4,word,m,,,,,,,
,,oltan,1,2023-11-27_20h09.34.094,VH_v3,2023.2.3,Win32,60.0240096,,,,,,,,,,,,149.559,150.557,,,,,,,,,,,,,,,,,,,,,,,,,,150.557,151.539,z,1,0.966,,151.54,151.54,,0,41,41,254,1,255,ileşçe,,,,,6,harmonic,2.65,nw,z,,,,,,,
,,oltan,1,2023-11-27_20h09.34.094,VH_v3,2023.2.3,Win32,60.0240096,,,,,,,,,,,,151.541,152.539,,,,,,,,,,,,,,,,,,,,,,,,,,152.539,153.073,m,1,0.518,,153.073,153.073,,0,42,42,169,1,170,düzgün,1384,62.8835,1310,0.1432,6,harmonic,,word,m,,,,,,,
,,oltan,1,2023-11-27_20h09.34.094,VH_v3,2023.2.3,Win32,60.0240096,,,,,,,,,,,,153.074,154.071,,,,,,,,,,,,,,,,,,,,,,,,,,154.071,154.872,z,1,0.781,,154.872,154.872,,0,43,43,192,1,193,kusu,,,,,4,harmonic,1.5,nw,z,,,,,,,
,,oltan,1,2023-11-27_20h09.34.094,VH_v3,2023.2.3,Win32,60.0240096,,,,,,,,,,,,154.872,155.871,,,,,,,,,,,,,,,,,,,,,,,,,,155.871,156.704,z,1,0.813,,156.704,156.705,,0,44,44,244,1,245,tazık,,,,,5,harmonic,1.7,nw,z,,,,,,,
,,oltan,1,2023-11-27_20h09.34.094,VH_v3,2023.2.3,Win32,60.0240096,,,,,,,,,,,,156.705,157.704,,,,,,,,,,,,,,,,,,,,,,,,,,157.704,158.62,z,1,0.903,,158.62,158.62,,0,45,45,263,1,264,geğniş,,,,,6,harmonic,2.35,nw,z,,,,,,,
,,oltan,1,2023-11-27_20h09.34.094,VH_v3,2023.2.3,Win32,60.0240096,,,,,,,,,,,,158.621,159.619,,,,,,,,,,,,,,,,,,,,,,,,,,159.619,160.12,m,1,0.482,,160.12,160.12,,0,46,46,31,1,32,fazla,18293,831.1614,16694,1.825,5,harmonic,1,word,m,,,,,,,
,,oltan,1,2023-11-27_20h09.34.094,VH_v3,2023.2.3,Win32,60.0240096,,,,,,,,,,,,160.121,161.119,,,,,,,,,,,,,,,,,,,,,,,,,,161.119,161.752,z,1,0.616,,161.752,161.752,,0,47,47,211,1,212,metel,,,,,5,harmonic,1.75,nw,z,,,,,,,
,,oltan,1,2023-11-27_20h09.34.094,VH_v3,2023.2.3,Win32,60.0240096,,,,,,,,,,,,161.753,162.751,,,,,,,,,,,,,,,,,,,,,,,,,,162.751,163.484,z,1,0.719,,163.484,163.484,,0,48,48,233,1,234,alıt,,,,,4,harmonic,1.15,nw,z,,,,,,,
,,oltan,1,2023-11-27_20h09.34.094,VH_v3,2023.2.3,Win32,60.0240096,,,,,,,,,,,,163.484,164.484,,,,,,,,,,,,,,,,,,,,,,,,,,164.484,165.084,m,1,0.584,,165.084,165.084,,0,49,49,69,1,70,forma,719,32.6685,597,0.0653,5,harmonic,1.8,word,m,,,,,,,
,,oltan,1,2023-11-27_20h09.34.094,VH_v3,2023.2.3,Win32,60.0240096,,,,,,,,,,,,165.084,166.086,,,,,,,,,,,,,,,,,,,,,,,,,,166.087,166.7,z,1,0.597,,166.7,166.7,,0,50,50,251,1,252,bellet,,,,,6,harmonic,1.8,nw,z,,,,,,,
,,oltan,1,2023-11-27_20h09.34.094,VH_v3,2023.2.3,Win32,60.0240096,,,,,,,,,,,,166.705,167.699,,,,,,,,,,,,,,,,,,,,,,,,,,167.7,168.782,z,1,1.064,,168.782,168.782,,0,51,51,197,1,198,şortal,,,,,6,harmonic,1.95,nw,z,,,,,,,
,,oltan,1,2023-11-27_20h09.34.094,VH_v3,2023.2.3,Win32,60.0240096,,,,,,,,,,,,168.783,169.782,,,,,,,,,,,,,,,,,,,,,,,,,,169.782,170.448,z,1,0.646,,170.448,170.448,,0,52,52,285,1,286,safiç,,,,,5,notharmonic,1.9,nw,z,,,,,,,
,,oltan,1,2023-11-27_20h09.34.094,VH_v3,2023.2.3,Win32,60.0240096,,,,,,,,,,,,170.45,171.448,,,,,,,,,,,,,,,,,,,,,,,,,,171.448,172.047,m,1,0.586,,172.047,172.047,,0,53,53,57,1,58,bölüm,1910,86.7828,1605,0.1755,5,harmonic,1.45,word,m,,,,,,,
,,oltan,1,2023-11-27_20h09.34.094,VH_v3,2023.2.3,Win32,60.0240096,,,,,,,,,,,,172.048,173.047,,,,,,,,,,,,,,,,,,,,,,,,,,173.047,174.913,m,0,1.849,,174.913,174.913,,0,54,54,322,1,323,galiç,,,,,5,notharmonic,1.8,nw,z,,,,,,,
,,oltan,1,2023-11-27_20h09.34.094,VH_v3,2023.2.3,Win32,60.0240096,,,,,,,,,,,,174.915,175.912,,,,,,,,,,,,,,,,,,,,,,,,,,175.912,176.795,m,1,0.868,,176.795,176.795,,0,55,55,138,1,139,yazar,3175,144.2594,2877,0.3145,5,harmonic,,word,m,,,,,,,
,,oltan,1,2023-11-27_20h09.34.094,VH_v3,2023.2.3,Win32,60.0240096,,,,,,,,,,,,176.796,177.795,,,,,,,,,,,,,,,,,,,,,,,,,,177.795,178.361,m,1,0.547,,178.361,178.361,,0,56,56,99,1,100,çocuk,10612,482.1672,8979,0.9816,5,harmonic,,word,m,,,,,,,
,,oltan,1,2023-11-27_20h09.34.094,VH_v3,2023.2.3,Win32,60.0240096,,,,,,,,,,,,178.362,179.361,,,,,,,,,,,,,,,,,,,,,,,,,,179.361,179.944,z,1,0.57,,179.944,179.944,,0,57,57,246,1,247,ülmet,,,,,5,harmonic,1.9,nw,z,,,,,,,
,,oltan,1,2023-11-27_20h09.34.094,VH_v3,2023.2.3,Win32,60.0240096,,,,,,,,,,,,179.945,180.943,,,,,,,,,,,,,,,,,,,,,,,,,,180.943,181.643,z,1,0.681,,181.643,181.643,,0,58,58,217,1,218,dötim,,,,,5,harmonic,2,nw,z,,,,,,,
,,oltan,1,2023-11-27_20h09.34.094,VH_v3,2023.2.3,Win32,60.0240096,,,,,,,,,,,,181.644,182.643,,,,,,,,,,,,,,,,,,,,,,,,,,182.643,183.625,z,1,0.965,,183.625,183.626,,0,59,59,258,1,259,meryeş,,,,,6,harmonic,2.35,nw,z,,,,,,,
,,oltan,1,2023-11-27_20h09.34.094,VH_v3,2023.2.3,Win32,60.0240096,,,,,,,,,,,,183.626,184.625,,,,,,,,,,,,,,,,,,,,,,,,,,184.625,185.141,m,1,0.498,,185.141,185.141,,0,60,60,4,1,5,metre,1156,52.5241,1015,0.111,5,harmonic,1.7,word,m,,,,,,,
,,oltan,1,2023-11-27_20h09.34.094,VH_v3,2023.2.3,Win32,60.0240096,,,,,,,,,,,,185.142,186.141,,,,,,,,,,,,,,,,,,,,,,,,,,186.141,186.691,z,1,0.531,,186.691,186.691,,0,61,61,342,1,343,çaneke,,,,,6,notharmonic,2.6,nw,z,,,,,,,
,,oltan,1,2023-11-27_20h09.34.094,VH_v3,2023.2.3,Win32,60.0240096,,,,,,,,,,,,186.691,187.69,,,,,,,,,,,,,,,,,,,,,,,,,,187.69,188.773,m,0,1.065,,188.773,188.773,,0,62,62,279,1,280,ikaza,,,,,5,notharmonic,1.9,nw,z,,,,,,,
,,oltan,1,2023-11-27_20h09.34.094,VH_v3,2023.2.3,Win32,60.0240096,,,,,,,,,,,,188.774,189.773,,,,,,,,,,,,,,,,,,,,,,,,,,189.773,190.489,z,1,0.699,,190.489,190.489,,0,63,63,210,1,211,şatla,,,,,5,harmonic,1.5,nw,z,,,,,,,
,,oltan,1,2023-11-27_20h09.34.094,VH_v3,2023.2.3,Win32,60.0240096,,,,,,,,,,,,190.489,191.488,,,,,,,,,,,,,,,,,,,,,,,,,,191.488,192.105,m,1,0.606,,192.105,192.105,,0,64,64,80,1,81,merkez,1445,65.6551,1255,0.1372,6,harmonic,1.8,word,m,,,,,,,
,,oltan,1,2023-11-27_20h09.34.094,VH_v3,2023.2.3,Win32,60.0240096,,,,,,,,,,,,192.107,193.104,,,,,,,,,,,,,,,,,,,,,,,,,,193.104,193.737,m,1,0.615,,193.737,193.738,,0,65,65,125,1,126,hızlı,4167,189.332,3688,0.4032,5,harmonic,,word,m,,,,,,,
,,oltan,1,2023-11-27_20h09.34.094,VH_v3,2023.2.3,Win32,60.0240096,,,,,,,,,,,,193.738,194.737,,,,,,,,,,,,,,,,,,,,,,,,,,194.737,195.57,z,1,0.815,,195.57,195.57,,0,66,66,330,1,331,tevaze,,,,,6,notharmonic,2.05,nw,z,,,,,,,
,,oltan,1,2023-11-27_20h09.34.094,VH_v3,2023.2.3,Win32,60.0240096,,,,,,,,,,,,195.571,196.569,,,,,,,,,,,,,,,,,,,,,,,,,,196.569,197.153,m,1,0.568,,197.153,197.153,,0,67,67,160,1,161,günlük,3421,155.4367,3201,0.3499,6,harmonic,,word,m,,,,,,,
,,oltan,1,2023-11-27_20h09.34.094,VH_v3,2023.2.3,Win32,60.0240096,,,,,,,,,,,,197.154,198.152,,,,,,,,,,,,,,,,,,,,,,,,,,198.152,198.668,m,1,0.498,,198.669,198.669,,0,68,68,25,1,26,rapor,703,31.9415,617,0.0675,5,harmonic,1.8,word,m,,,,,,,
,,oltan,1,2023-11-27_20h09.34.094,VH_v3,2023.2.3,Win32,60.0240096,,,,,,,,,,,,198.669,199.669,,,,,,,,,,,,,,,,,,,,,,,,,,199.669,200.119,m,1,0.431,,200.12,200.121,,0,69,69,21,1,22,duygu,1877,85.2834,1760,0.1924,5,harmonic,1.8,word,m,,,,,,,
,,oltan,1,2023-11-27_20h09.34.094,VH_v3,2023.2.3,Win32,60.0240096,,,,,,,,,,,,200.124,201.118,,,,,,,,,,,,,,,,,,,,,,,,,,201.118,201.6,m,1,0.465,,201.6,201.601,,0,70,70,15,1,16,hayat,7922,359.9443,7314,0.7996,5,harmonic,1.9,word,m,,,,,,,
,,oltan,1,2023-11-27_20h09.34.094,VH_v3,2023.2.3,Win32,60.0240096,,,,,,,,,,,,201.601,202.6,,,,,,,,,,,,,,,,,,,,,,,,,,202.6,203.05,m,1,0.432,,203.05,203.051,,0,71,71,133,1,134,ortak,3666,166.5685,3331,0.3641,5,harmonic,,word,m,,,,,,,
,,oltan,1,2023-11-27_20h09.34.094,VH_v3,2023.2.3,Win32,60.0240096,,,,,,,,,,,,203.052,204.049,,,,,,,,,,,,,,,,,,,,,,,,,,204.049,204.532,m,1,0.464,,204.532,204.532,,0,72,72,55,1,56,akıl,2208,100.3228,2004,0.2191,4,harmonic,1,word,m,,,,,,,
,,oltan,1,2023-11-27_20h09.34.094,VH_v3,2023.2.3,Win32,60.0240096,,,,,,,,,,,,204.535,205.532,,,,,,,,,,,,,,,,,,,,,,,,,,205.532,206.065,m,1,0.515,,206.065,206.065,,0,73,73,45,1,46,bilgi,5981,271.7529,5353,0.5852,5,harmonic,1.5,word,m,,,,,,,
,,oltan,1,2023-11-27_20h09.34.094,VH_v3,2023.2.3,Win32,60.0240096,,,,,,,,,,,,206.067,207.064,,,,,,,,,,,,,,,,,,,,,,,,,,207.064,207.648,z,1,0.566,,207.648,207.648,,0,74,74,190,1,191,banyak,,,,,6,harmonic,1.85,nw,z,,,,,,,
,,oltan,1,2023-11-27_20h09.34.094,VH_v3,2023.2.3,Win32,60.0240096,,,,,,,,,,,,207.649,208.647,,,,,,,,,,,,,,,,,,,,,,,,,,208.647,209.148,m,1,0.488,,209.148,209.148,,0,75,75,40,1,41,tepki,1695,77.0141,1578,0.1725,5,harmonic,1.55,word,m,,,,,,,
,,oltan,1,2023-11-27_20h09.34.094,VH_v3,2023.2.3,Win32,60.0240096,,,,,,,,,,,,209.149,210.146,,,,,,,,,,,,,,,,,,,,,,,,,,210.146,210.746,z,1,0.582,,210.746,210.746,,0,76,76,303,1,304,hahir,,,,,5,notharmonic,1.55,nw,z,,,,,,,
,,oltan,1,2023-11-27_20h09.34.094,VH_v3,2023.2.3,Win32,60.0240096,,,,,,,,,,,,210.747,211.746,,,,,,,,,,,,,,,,,,,,,,,,,,211.746,212.645,z,1,0.883,,212.645,212.646,,0,77,77,291,1,292,kasge,,,,,5,notharmonic,2,nw,z,,,,,,,
,,oltan,1,2023-11-27_20h09.34.094,VH_v3,2023.2.3,Win32,60.0240096,,,,,,,,,,,,212.646,213.645,,,,,,,,,,,,,,,,,,,,,,,,,,213.645,214.212,m,1,0.555,,214.212,214.212,,0,78,78,3,1,4,minik,2916,132.4915,2594,0.2836,5,harmonic,1.6,word,m,,,,,,,
,,oltan,1,2023-11-27_20h09.34.094,VH_v3,2023.2.3,Win32,60.0240096,,,,,,,,,,,,214.213,215.211,,,,,,,,,,,,,,,,,,,,,,,,,,215.211,215.844,z,1,0.614,,215.844,215.844,,0,79,79,318,1,319,sapel,,,,,5,notharmonic,1.9,nw,z,,,,,,,
,,oltan,1,2023-11-27_20h09.34.094,VH_v3,2023.2.3,Win32,60.0240096,,,,,,,,,,,,215.844,216.843,,,,,,,,,,,,,,,,,,,,,,,,,,216.843,218.009,z,1,1.15,,218.009,218.009,,0,80,80,189,1,190,kanak,,,,,5,harmonic,1.1,nw,z,,,,,,,
,,oltan,1,2023-11-27_20h09.34.094,VH_v3,2023.2.3,Win32,60.0240096,,,,,,,,,,,,218.01,219.01,,,,,,,,,,,,,,,,,,,,,,,,,,219.01,219.709,z,1,0.684,,219.709,219.709,,0,81,81,331,1,332,ilcaet,,,,,6,notharmonic,2.7,nw,z,,,,,,,
,,oltan,1,2023-11-27_20h09.34.094,VH_v3,2023.2.3,Win32,60.0240096,,,,,,,,,,,,219.709,220.708,,,,,,,,,,,,,,,,,,,,,,,,,,220.708,221.292,m,1,0.565,,221.292,221.292,,0,82,82,84,1,85,ülke,3121,141.8059,2801,0.3062,4,harmonic,1.65,word,m,,,,,,,
,,oltan,1,2023-11-27_20h09.34.094,VH_v3,2023.2.3,Win32,60.0240096,,,,,,,,,,,,221.292,222.292,,,,,,,,,,,,,,,,,,,,,,,,,,222.292,222.774,z,1,0.472,,222.774,222.774,,0,83,83,320,1,321,sivaka,,,,,6,notharmonic,2.3,nw,z,,,,,,,
,,oltan,1,2023-11-27_20h09.34.094,VH_v3,2023.2.3,Win32,60.0240096,,,,,,,,,,,,222.774,223.774,,,,,,,,,,,,,,,,,,,,,,,,,,223.774,224.407,z,1,0.621,,224.407,224.407,,0,84,84,339,1,340,halip,,,,,5,notharmonic,1.5,nw,z,,,,,,,
,,oltan,1,2023-11-27_20h09.34.094,VH_v3,2023.2.3,Win32,60.0240096,,,,,,,,,,,,224.407,225.406,,,,,,,,,,,,,,,,,,,,,,,,,,225.406,226.105,z,1,0.686,,226.106,226.106,,0,85,85,270,1,271,sarip,,,,,5,notharmonic,1.65,nw,z,,,,,,,
,,oltan,1,2023-11-27_20h09.34.094,VH_v3,2023.2.3,Win32,60.0240096,,,,,,,,,,,,226.106,227.105,,,,,,,,,,,,,,,,,,,,,,,,,,227.105,227.705,m,1,0.581,,227.705,227.706,,0,86,86,29,1,30,huzur,1911,86.8283,1799,0.1967,5,harmonic,1.8,word,m,,,,,,,
,,oltan,1,2023-11-27_20h09.34.094,VH_v3,2023.2.3,Win32,60.0240096,,,,,,,,,,,,227.706,228.705,,,,,,,,,,,,,,,,,,,,,,,,,,228.705,229.271,z,1,0.548,,229.271,229.271,,0,87,87,235,1,236,mörüm,,,,,5,harmonic,1.9,nw,z,,,,,,,
,,oltan,1,2023-11-27_20h09.34.094,VH_v3,2023.2.3,Win32,60.0240096,,,,,,,,,,,,229.272,230.272,,,,,,,,,,,,,,,,,,,,,,,,,,230.274,230.888,z,1,0.602,,230.888,230.889,,0,88,88,319,1,320,mafke,,,,,5,notharmonic,1.9,nw,z,,,,,,,
,,oltan,1,2023-11-27_20h09.34.094,VH_v3,2023.2.3,Win32,60.0240096,,,,,,,,,,,,230.892,231.886,,,,,,,,,,,,,,,,,,,,,,,,,,231.886,232.47,m,1,0.572,,232.47,232.47,,0,89,89,37,1,38,hayvan,2363,107.3653,1894,0.2071,6,harmonic,1.5,word,m,,,,,,,
,,oltan,1,2023-11-27_20h09.34.094,VH_v3,2023.2.3,Win32,60.0240096,,,,,,,,,,,,232.471,233.47,,,,,,,,,,,,,,,,,,,,,,,,,,233.47,234.036,z,1,0.548,,234.036,234.036,,0,90,90,358,1,359,ksalik,,,,,6,notharmonic,,nw,z,,,,,,,
,,oltan,1,2023-11-27_20h09.34.094,VH_v3,2023.2.3,Win32,60.0240096,,,,,,,,,,,,234.036,235.035,,,,,,,,,,,,,,,,,,,,,,,,,,235.035,235.552,m,1,0.496,,235.552,235.552,,0,91,91,163,1,164,teknik,3297,149.8026,2798,0.3059,6,harmonic,,word,m,,,,,,,
,,oltan,1,2023-11-27_20h09.34.094,VH_v3,2023.2.3,Win32,60.0240096,,,,,,,,,,,,235.553,236.551,,,,,,,,,,,,,,,,,,,,,,,,,,236.551,237.051,m,1,0.486,,237.051,237.051,,0,92,92,146,1,147,sarı,2072,94.1435,1838,0.2009,4,harmonic,,word,m,,,,,,,
,,oltan,1,2023-11-27_20h09.34.094,VH_v3,2023.2.3,Win32,60.0240096,,,,,,,,,,,,237.051,238.051,,,,,,,,,,,,,,,,,,,,,,,,,,238.051,238.633,z,1,0.568,,238.633,238.634,,0,93,93,180,1,181,manıt,,,,,5,harmonic,1.75,nw,z,,,,,,,
,,oltan,1,2023-11-27_20h09.34.094,VH_v3,2023.2.3,Win32,60.0240096,,,,,,,,,,,,238.634,239.633,,,,,,,,,,,,,,,,,,,,,,,,,,239.633,240.267,z,1,0.62,,240.267,240.267,,0,94,94,220,1,221,lingin,,,,,6,harmonic,1.85,nw,z,,,,,,,
,,oltan,1,2023-11-27_20h09.34.094,VH_v3,2023.2.3,Win32,60.0240096,,,,,,,,,,,,240.268,241.266,,,,,,,,,,,,,,,,,,,,,,,,,,241.266,241.799,m,1,0.518,,241.799,241.799,,0,95,95,158,1,159,tercih,4577,207.9607,4282,0.4681,6,harmonic,,word,m,,,,,,,
,,oltan,1,2023-11-27_20h09.34.094,VH_v3,2023.2.3,Win32,60.0240096,,,,,,,,,,,,241.8,242.799,,,,,,,,,,,,,,,,,,,,,,,,,,242.799,243.448,m,1,0.63,,243.448,243.448,,0,96,96,137,1,138,yoğun,3189,144.8955,3026,0.3308,5,harmonic,,word,m,,,,,,,
,,oltan,1,2023-11-27_20h09.34.094,VH_v3,2023.2.3,Win32,60.0240096,,,,,,,,,,,,243.449,244.447,,,,,,,,,,,,,,,,,,,,,,,,,,244.447,245.097,m,1,0.633,,245.097,245.097,,0,97,97,175,1,176,gündüz,1167,53.0239,1088,0.1189,6,harmonic,,word,m,,,,,,,
,,oltan,1,2023-11-27_20h09.34.094,VH_v3,2023.2.3,Win32,60.0240096,,,,,,,,,,,,245.099,246.097,,,,,,,,,,,,,,,,,,,,,,,,,,246.097,246.68,z,1,0.564,,246.68,246.68,,0,98,98,203,1,204,yırdun,,,,,6,harmonic,2.8,nw,z,,,,,,,
,,oltan,1,2023-11-27_20h09.34.094,VH_v3,2023.2.3,Win32,60.0240096,,,,,,,,,,,,246.681,247.679,,,,,,,,,,,,,,,,,,,,,,,,,,247.679,248.413,z,1,0.714,,248.413,248.413,,0,99,99,315,1,316,çarki,,,,,5,notharmonic,1.85,nw,z,,,,,,,
,,oltan,1,2023-11-27_20h09.34.094,VH_v3,2023.2.3,Win32,60.0240096,,,,,,,,,,,,248.414,249.412,,,,,,,,,,,,,,,,,,,,,,,,,,249.412,249.995,m,1,0.567,,249.995,249.995,,0,100,100,33,1,34,moda,1381,62.7472,1231,0.1346,4,harmonic,1.55,word,m,,,,,,,
,,oltan,1,2023-11-27_20h09.34.094,VH_v3,2023.2.3,Win32,60.0240096,,,,,,,,,,,,249.996,250.994,,,,,,,,,,,,,,,,,,,,,,,,,,250.994,252.111,z,1,1.097,,252.111,252.111,,0,101,101,234,1,235,taslam,,,,,6,harmonic,1.9,nw,z,,,,,,,
,,oltan,1,2023-11-27_20h09.34.094,VH_v3,2023.2.3,Win32,60.0240096,,,,,,,,,,,,252.112,253.11,,,,,,,,,,,,,,,,,,,,,,,,,,253.11,253.577,m,1,0.454,,253.577,253.577,,0,102,102,51,1,52,ilginç,2803,127.3572,2690,0.2941,6,harmonic,1.8,word,m,,,,,,,
,,oltan,1,2023-11-27_20h09.34.094,VH_v3,2023.2.3,Win32,60.0240096,,,,,,,,,,,,253.578,254.576,,,,,,,,,,,,,,,,,,,,,,,,,,254.576,255.177,m,1,0.582,,255.177,255.177,,0,103,103,144,1,145,şiir,2213,100.5499,1690,0.1848,4,harmonic,,word,m,,,,,,,
,,oltan,1,2023-11-27_20h09.34.094,VH_v3,2023.2.3,Win32,60.0240096,,,,,,,,,,,,255.177,256.176,,,,,,,,,,,,,,,,,,,,,,,,,,256.176,256.792,m,1,0.598,,256.792,256.792,,0,104,104,154,1,155,oyun,4926,223.8179,3995,0.4367,4,harmonic,,word,m,,,,,,,
,,oltan,1,2023-11-27_20h09.34.094,VH_v3,2023.2.3,Win32,60.0240096,,,,,,,,,,,,256.793,257.792,,,,,,,,,,,,,,,,,,,,,,,,,,257.792,258.325,m,1,0.519,,258.325,258.325,,0,105,105,18,1,19,normal,4154,188.7413,3788,0.4141,6,harmonic,1.75,word,m,,,,,,,
,,oltan,1,2023-11-27_20h09.34.094,VH_v3,2023.2.3,Win32,60.0240096,,,,,,,,,,,,258.326,259.324,,,,,,,,,,,,,,,,,,,,,,,,,,259.324,259.924,m,1,0.585,,259.924,259.924,,0,106,106,102,1,103,kaşık,1355,61.5658,1177,0.1287,5,harmonic,,word,m,,,,,,,
,,oltan,1,2023-11-27_20h09.34.094,VH_v3,2023.2.3,Win32,60.0240096,,,,,,,,,,,,259.924,260.926,,,,,,,,,,,,,,,,,,,,,,,,,,260.926,261.49,m,1,0.546,,261.49,261.49,,0,107,107,78,1,79,ulusal,1551,70.4713,1355,0.1481,6,harmonic,1.75,word,m,,,,,,,
,,oltan,1,2023-11-27_20h09.34.094,VH_v3,2023.2.3,Win32,60.0240096,,,,,,,,,,,,261.494,262.49,,,,,,,,,,,,,,,,,,,,,,,,,,262.49,263.206,z,1,0.698,,263.206,263.206,,0,108,108,236,1,237,abar,,,,,4,harmonic,1.1,nw,z,,,,,,,
,,oltan,1,2023-11-27_20h09.34.094,VH_v3,2023.2.3,Win32,60.0240096,,,,,,,,,,,,263.207,264.206,,,,,,,,,,,,,,,,,,,,,,,,,,264.206,264.839,z,1,0.614,,264.839,264.839,,0,109,109,204,1,205,cabor,,,,,5,harmonic,2.1,nw,z,,,,,,,
,,oltan,1,2023-11-27_20h09.34.094,VH_v3,2023.2.3,Win32,60.0240096,,,,,,,,,,,,264.841,265.837,,,,,,,,,,,,,,,,,,,,,,,,,,265.838,266.471,z,1,0.613,,266.471,266.472,,0,110,110,213,1,214,yofa,,,,,4,harmonic,1.75,nw,z,,,,,,,
,,oltan,1,2023-11-27_20h09.34.094,VH_v3,2023.2.3,Win32,60.0240096,,,,,,,,,,,,266.472,267.47,,,,,,,,,,,,,,,,,,,,,,,,,,267.47,268.004,z,1,0.516,,268.004,268.004,,0,111,111,268,1,269,hayot,,,,,5,harmonic,,nw,z,,,,,,,
,,oltan,1,2023-11-27_20h09.34.094,VH_v3,2023.2.3,Win32,60.0240096,,,,,,,,,,,,268.004,269.003,,,,,,,,,,,,,,,,,,,,,,,,,,269.003,269.586,z,1,0.564,,269.586,269.587,,0,112,112,338,1,339,kunik,,,,,5,notharmonic,1.8,nw,z,,,,,,,
,,oltan,1,2023-11-27_20h09.34.094,VH_v3,2023.2.3,Win32,60.0240096,,,,,,,,,,,,269.588,270.586,,,,,,,,,,,,,,,,,,,,,,,,,,270.586,271.185,m,1,0.585,,271.185,271.186,,0,113,113,81,1,82,üretim,1593,72.3796,1283,0.1403,6,harmonic,1.6,word,m,,,,,,,
,,oltan,1,2023-11-27_20h09.34.094,VH_v3,2023.2.3,Win32,60.0240096,,,,,,,,,,,,271.186,272.186,,,,,,,,,,,,,,,,,,,,,,,,,,272.186,272.769,z,1,0.564,,272.769,272.769,,0,114,114,187,1,188,hücmet,,,,,6,harmonic,1.85,nw,z,,,,,,,
,,oltan,1,2023-11-27_20h09.34.094,VH_v3,2023.2.3,Win32,60.0240096,,,,,,,,,,,,272.769,273.767,,,,,,,,,,,,,,,,,,,,,,,,,,273.768,274.518,z,1,0.738,,274.518,274.518,,0,115,115,293,1,294,mosil,,,,,5,notharmonic,1.85,nw,z,,,,,,,
,,oltan,1,2023-11-27_20h09.34.094,VH_v3,2023.2.3,Win32,60.0240096,,,,,,,,,,,,274.519,275.518,,,,,,,,,,,,,,,,,,,,,,,,,,275.518,276.25,m,1,0.715,,276.25,276.25,,0,116,116,60,1,61,doğu,2105,95.6429,1823,0.1993,4,harmonic,1.05,word,m,,,,,,,
,,oltan,1,2023-11-27_20h09.34.094,VH_v3,2023.2.3,Win32,60.0240096,,,,,,,,,,,,276.25,277.25,,,,,,,,,,,,,,,,,,,,,,,,,,277.25,277.733,m,1,0.473,,277.733,277.733,,0,117,117,128,1,129,güçlü,3924,178.291,3614,0.3951,5,harmonic,,word,m,,,,,,,
,,oltan,1,2023-11-27_20h09.34.094,VH_v3,2023.2.3,Win32,60.0240096,,,,,,,,,,,,277.735,278.733,,,,,,,,,,,,,,,,,,,,,,,,,,278.733,279.232,z,1,0.489,,279.232,279.232,,0,118,118,302,1,303,desum,,,,,5,notharmonic,2,nw,z,,,,,,,
,,oltan,1,2023-11-27_20h09.34.094,VH_v3,2023.2.3,Win32,60.0240096,,,,,,,,,,,,279.232,280.232,,,,,,,,,,,,,,,,,,,,,,,,,,280.232,281.265,z,1,1.022,,281.265,281.265,,0,119,119,262,1,263,ürze,,,,,4,harmonic,1.95,nw,z,,,,,,,
,,oltan,1,2023-11-27_20h09.34.094,VH_v3,2023.2.3,Win32,60.0240096,,,,,,,,,,,,281.265,282.264,,,,,,,,,,,,,,,,,,,,,,,,,,282.264,282.964,z,1,0.687,,282.964,284.28,space,0,120,120,208,1,209,guzır,,,,,5,harmonic,2.05,nw,z,1.303,,,,,,
,,oltan,1,2023-11-27_20h09.34.094,VH_v3,2023.2.3,Win32,60.0240096,,,,,,,,,,,,284.281,285.279,,,,,,,,,,,,,,,,,,,,,,,,,,285.279,285.762,m,1,0.471,,285.762,285.762,,0,121,121,42,1,43,ürün,2268,103.0489,1954,0.2136,4,harmonic,1.1,word,m,,,,,,,
,,oltan,1,2023-11-27_20h09.34.094,VH_v3,2023.2.3,Win32,60.0240096,,,,,,,,,,,,285.762,286.762,,,,,,,,,,,,,,,,,,,,,,,,,,286.762,287.345,m,1,0.566,,287.345,287.345,,0,122,122,107,1,108,sivil,1334,60.6117,1151,0.1258,5,harmonic,,word,m,,,,,,,
,,oltan,1,2023-11-27_20h09.34.094,VH_v3,2023.2.3,Win32,60.0240096,,,,,,,,,,,,287.346,288.345,,,,,,,,,,,,,,,,,,,,,,,,,,288.345,289.028,z,1,0.665,,289.028,289.028,,0,123,123,343,1,344,tazen,,,,,5,notharmonic,1.8,nw,z,,,,,,,
,,oltan,1,2023-11-27_20h09.34.094,VH_v3,2023.2.3,Win32,60.0240096,,,,,,,,,,,,289.028,290.028,,,,,,,,,,,,,,,,,,,,,,,,,,290.028,290.644,z,1,0.605,,290.645,290.647,,0,124,124,223,1,224,kamut,,,,,5,harmonic,1.5,nw,z,,,,,,,
,,oltan,1,2023-11-27_20h09.34.094,VH_v3,2023.2.3,Win32,60.0240096,,,,,,,,,,,,290.649,291.643,,,,,,,,,,,,,,,,,,,,,,,,,,291.643,292.276,m,1,0.615,,292.276,292.276,,0,125,125,47,1,48,kaza,740,33.6227,679,0.0742,4,harmonic,1.85,word,m,,,,,,,
,,oltan,1,2023-11-27_20h09.34.094,VH_v3,2023.2.3,Win32,60.0240096,,,,,,,,,,,,292.277,293.276,,,,,,,,,,,,,,,,,,,,,,,,,,293.276,293.808,z,1,0.515,,293.808,293.809,,0,126,126,281,1,282,ikva,,,,,4,notharmonic,1.85,nw,z,,,,,,,
,,oltan,1,2023-11-27_20h09.34.094,VH_v3,2023.2.3,Win32,60.0240096,,,,,,,,,,,,293.81,294.808,,,,,,,,,,,,,,,,,,,,,,,,,,294.808,295.292,m,1,0.468,,295.292,295.292,,0,127,127,34,1,35,hoca,1893,86.0104,1526,0.1668,4,harmonic,1.45,word,m,,,,,,,
,,oltan,1,2023-11-27_20h09.34.094,VH_v3,2023.2.3,Win32,60.0240096,,,,,,,,,,,,295.293,296.291,,,,,,,,,,,,,,,,,,,,,,,,,,296.291,297.008,z,1,0.698,,297.008,297.008,,0,128,128,227,1,228,temzik,,,,,6,harmonic,1.9,nw,z,,,,,,,
,,oltan,1,2023-11-27_20h09.34.094,VH_v3,2023.2.3,Win32,60.0240096,,,,,,,,,,,,297.008,298.007,,,,,,,,,,,,,,,,,,,,,,,,,,298.007,298.79,z,1,0.768,,298.79,298.79,,0,129,129,352,1,353,yarema,,,,,6,notharmonic,1.95,nw,z,,,,,,,
,,oltan,1,2023-11-27_20h09.34.094,VH_v3,2023.2.3,Win32,60.0240096,,,,,,,,,,,,298.791,299.789,,,,,,,,,,,,,,,,,,,,,,,,,,299.789,300.389,m,1,0.589,,300.389,300.389,,0,130,130,153,1,154,para,7124,323.6863,5953,0.6508,4,harmonic,,word,m,,,,,,,
,,oltan,1,2023-11-27_20h09.34.094,VH_v3,2023.2.3,Win32,60.0240096,,,,,,,,,,,,300.389,301.389,,,,,,,,,,,,,,,,,,,,,,,,,,301.389,302.155,m,1,0.754,,302.155,302.155,,0,131,131,147,1,148,dizi,1995,90.6449,1689,0.1846,4,harmonic,,word,m,,,,,,,
,,oltan,1,2023-11-27_20h09.34.094,VH_v3,2023.2.3,Win32,60.0240096,,,,,,,,,,,,302.156,303.154,,,,,,,,,,,,,,,,,,,,,,,,,,303.154,303.671,m,1,0.504,,303.671,303.671,,0,132,132,93,1,94,başka,23223,1055.161,20976,2.2931,5,harmonic,,word,m,,,,,,,
,,oltan,1,2023-11-27_20h09.34.094,VH_v3,2023.2.3,Win32,60.0240096,,,,,,,,,,,,303.672,304.671,,,,,,,,,,,,,,,,,,,,,,,,,,304.671,305.32,z,1,0.637,,305.32,305.32,,0,133,133,249,1,250,öldek,,,,,5,harmonic,1.85,nw,z,,,,,,,
,,oltan,1,2023-11-27_20h09.34.094,VH_v3,2023.2.3,Win32,60.0240096,,,,,,,,,,,,305.321,306.32,,,,,,,,,,,,,,,,,,,,,,,,,,306.32,307.286,z,1,0.947,,307.286,307.287,,0,134,134,255,1,256,ubar,,,,,4,harmonic,1.7,nw,z,,,,,,,
,,oltan,1,2023-11-27_20h09.34.094,VH_v3,2023.2.3,Win32,60.0240096,,,,,,,,,,,,307.287,308.286,,,,,,,,,,,,,,,,,,,,,,,,,,308.286,308.902,z,1,0.605,,308.902,308.902,,0,135,135,297,1,298,şasep,,,,,5,notharmonic,1.9,nw,z,,,,,,,
,,oltan,1,2023-11-27_20h09.34.094,VH_v3,2023.2.3,Win32,60.0240096,,,,,,,,,,,,308.903,309.901,,,,,,,,,,,,,,,,,,,,,,,,,,309.901,310.467,m,1,0.55,,310.467,310.468,,0,136,136,59,1,60,köpek,1044,47.4352,901,0.0985,5,harmonic,1.75,word,m,,,,,,,
,,oltan,1,2023-11-27_20h09.34.094,VH_v3,2023.2.3,Win32,60.0240096,,,,,,,,,,,,310.468,311.468,,,,,,,,,,,,,,,,,,,,,,,,,,311.468,312.167,m,1,0.681,,312.167,312.167,,0,137,137,127,1,128,müzik,3999,181.6987,3340,0.3651,5,harmonic,,word,m,,,,,,,
,,oltan,1,2023-11-27_20h09.34.094,VH_v3,2023.2.3,Win32,60.0240096,,,,,,,,,,,,312.168,313.167,,,,,,,,,,,,,,,,,,,,,,,,,,313.167,313.767,z,1,0.585,,313.767,313.767,,0,138,138,334,1,335,mecda,,,,,5,notharmonic,1.95,nw,z,,,,,,,
,,oltan,1,2023-11-27_20h09.34.094,VH_v3,2023.2.3,Win32,60.0240096,,,,,,,,,,,,313.767,314.766,,,,,,,,,,,,,,,,,,,,,,,,,,314.766,315.449,z,1,0.666,,315.449,315.449,,0,139,139,299,1,300,kurüs,,,,,5,notharmonic,1.95,nw,z,,,,,,,
,,oltan,1,2023-11-27_20h09.34.094,VH_v3,2023.2.3,Win32,60.0240096,,,,,,,,,,,,315.449,316.448,,,,,,,,,,,,,,,,,,,,,,,,,,316.448,317.115,m,1,0.648,,317.115,317.115,,0,140,140,75,1,76,roman,1499,68.1086,1281,0.14,5,harmonic,1.6,word,m,,,,,,,
,,oltan,1,2023-11-27_20h09.34.094,VH_v3,2023.2.3,Win32,60.0240096,,,,,,,,,,,,317.115,318.114,,,,,,,,,,,,,,,,,,,,,,,,,,318.114,318.697,m,1,0.567,,318.697,318.697,,0,141,141,49,1,50,şeker,4708,213.9128,4170,0.4559,5,harmonic,1.6,word,m,,,,,,,
,,oltan,1,2023-11-27_20h09.34.094,VH_v3,2023.2.3,Win32,60.0240096,,,,,,,,,,,,318.698,319.697,,,,,,,,,,,,,,,,,,,,,,,,,,319.697,320.247,z,1,0.531,,320.247,320.247,,0,142,142,184,1,185,medme,,,,,5,harmonic,1.95,nw,z,,,,,,,
,,oltan,1,2023-11-27_20h09.34.094,VH_v3,2023.2.3,Win32,60.0240096,,,,,,,,,,,,320.247,321.248,,,,,,,,,,,,,,,,,,,,,,,,,,321.248,321.963,m,1,0.695,,321.963,321.964,,0,143,143,89,1,90,etki,1234,56.0681,1169,0.1278,4,harmonic,1.4,word,m,,,,,,,
,,oltan,1,2023-11-27_20h09.34.094,VH_v3,2023.2.3,Win32,60.0240096,,,,,,,,,,,,321.968,322.962,,,,,,,,,,,,,,,,,,,,,,,,,,322.962,323.529,m,1,0.546,,323.529,323.529,,0,144,144,32,1,33,temel,4231,192.2399,3851,0.421,5,harmonic,1.55,word,m,,,,,,,
,,oltan,1,2023-11-27_20h09.34.094,VH_v3,2023.2.3,Win32,60.0240096,,,,,,,,,,,,323.531,324.529,,,,,,,,,,,,,,,,,,,,,,,,,,324.529,325.061,m,1,0.521,,325.061,325.062,,0,145,145,65,1,66,fikir,2552,115.9528,2413,0.2638,5,harmonic,1.9,word,m,,,,,,,
,,oltan,1,2023-11-27_20h09.34.094,VH_v3,2023.2.3,Win32,60.0240096,,,,,,,,,,,,325.062,326.061,,,,,,,,,,,,,,,,,,,,,,,,,,326.061,326.561,m,1,0.485,,326.561,326.561,,0,146,146,83,1,84,küçük,14048,638.2854,12467,1.3629,5,harmonic,1.75,word,m,,,,,,,
,,oltan,1,2023-11-27_20h09.34.094,VH_v3,2023.2.3,Win32,60.0240096,,,,,,,,,,,,326.563,327.56,,,,,,,,,,,,,,,,,,,,,,,,,,327.56,328.043,m,1,0.47,,328.043,328.043,,0,147,147,177,1,178,mutfak,1110,50.434,1032,0.1128,6,harmonic,,word,m,,,,,,,
,,oltan,1,2023-11-27_20h09.34.094,VH_v3,2023.2.3,Win32,60.0240096,,,,,,,,,,,,328.044,329.043,,,,,,,,,,,,,,,,,,,,,,,,,,329.043,329.593,m,1,0.528,,329.593,329.593,,0,148,148,38,1,39,dönem,2820,128.1296,2437,0.2664,5,harmonic,1.4,word,m,,,,,,,
,,oltan,1,2023-11-27_20h09.34.094,VH_v3,2023.2.3,Win32,60.0240096,,,,,,,,,,,,329.594,330.592,,,,,,,,,,,,,,,,,,,,,,,,,,330.592,331.225,z,1,0.614,,331.225,331.225,,0,149,149,206,1,207,bülse,,,,,5,harmonic,2,nw,z,,,,,,,
,,oltan,1,2023-11-27_20h09.34.094,VH_v3,2023.2.3,Win32,60.0240096,,,,,,,,,,,,331.225,332.225,,,,,,,,,,,,,,,,,,,,,,,,,,332.225,332.908,z,1,0.664,,332.908,332.908,,0,150,150,240,1,241,şünle,,,,,5,harmonic,1.9,nw,z,,,,,,,
,,oltan,1,2023-11-27_20h09.34.094,VH_v3,2023.2.3,Win32,60.0240096,,,,,,,,,,,,332.908,333.907,,,,,,,,,,,,,,,,,,,,,,,,,,333.907,334.457,m,1,0.532,,334.457,334.458,,0,151,151,58,1,59,ayak,2143,97.3694,1931,0.2111,4,harmonic,1,word,m,,,,,,,
,,oltan,1,2023-11-27_20h09.34.094,VH_v3,2023.2.3,Win32,60.0240096,,,,,,,,,,,,334.458,335.457,,,,,,,,,,,,,,,,,,,,,,,,,,335.457,336.173,z,1,0.702,,336.173,336.173,,0,152,152,314,1,315,betaş,,,,,5,notharmonic,1.9,nw,z,,,,,,,
,,oltan,1,2023-11-27_20h09.34.094,VH_v3,2023.2.3,Win32,60.0240096,,,,,,,,,,,,336.174,337.172,,,,,,,,,,,,,,,,,,,,,,,,,,337.172,337.772,m,1,0.58,,337.772,337.772,,0,153,153,63,1,64,sultan,1756,79.7857,1368,0.1496,6,harmonic,1.55,word,m,,,,,,,
,,oltan,1,2023-11-27_20h09.34.094,VH_v3,2023.2.3,Win32,60.0240096,,,,,,,,,,,,337.773,338.772,,,,,,,,,,,,,,,,,,,,,,,,,,338.772,339.388,m,1,0.599,,339.388,339.388,,0,154,154,5,1,6,bebek,3301,149.9843,2794,0.3054,5,harmonic,1.6,word,m,,,,,,,
,,oltan,1,2023-11-27_20h09.34.094,VH_v3,2023.2.3,Win32,60.0240096,,,,,,,,,,,,339.389,340.388,,,,,,,,,,,,,,,,,,,,,,,,,,340.388,341.021,m,1,0.622,,341.021,341.021,,0,155,155,61,1,62,yıldız,1775,80.649,1532,0.1675,6,harmonic,1.6,word,m,,,,,,,
,,oltan,1,2023-11-27_20h09.34.094,VH_v3,2023.2.3,Win32,60.0240096,,,,,,,,,,,,341.021,342.02,,,,,,,,,,,,,,,,,,,,,,,,,,342.021,342.67,z,1,0.638,,342.67,342.67,,0,156,156,306,1,307,napare,,,,,6,notharmonic,2.15,nw,z,,,,,,,
,,oltan,1,2023-11-27_20h09.34.094,VH_v3,2023.2.3,Win32,60.0240096,,,,,,,,,,,,342.67,343.67,,,,,,,,,,,,,,,,,,,,,,,,,,343.67,344.336,z,1,0.648,,344.336,344.336,,0,157,157,243,1,244,şiker,,,,,5,harmonic,1.85,nw,z,,,,,,,
,,oltan,1,2023-11-27_20h09.34.094,VH_v3,2023.2.3,Win32,60.0240096,,,,,,,,,,,,344.336,345.335,,,,,,,,,,,,,,,,,,,,,,,,,,345.335,345.952,z,1,0.606,,345.952,345.952,,0,158,158,325,1,326,icanat,,,,,6,notharmonic,2.25,nw,z,,,,,,,
,,oltan,1,2023-11-27_20h09.34.094,VH_v3,2023.2.3,Win32,60.0240096,,,,,,,,,,,,345.952,346.951,,,,,,,,,,,,,,,,,,,,,,,,,,346.951,347.568,z,1,0.599,,347.568,347.568,,0,159,159,354,1,355,dizdat,,,,,6,notharmonic,2.4,nw,z,,,,,,,
,,oltan,1,2023-11-27_20h09.34.094,VH_v3,2023.2.3,Win32,60.0240096,,,,,,,,,,,,347.568,348.567,,,,,,,,,,,,,,,,,,,,,,,,,,348.567,349.067,m,1,0.488,,349.067,349.067,,0,160,160,0,1,1,sanat,3121,141.8059,2485,0.2717,5,harmonic,1.4,word,m,,,,,,,
,,oltan,1,2023-11-27_20h09.34.094,VH_v3,2023.2.3,Win32,60.0240096,,,,,,,,,,,,349.068,350.067,,,,,,,,,,,,,,,,,,,,,,,,,,350.067,350.6,z,1,0.515,,350.6,350.6,,0,161,161,201,1,202,azlaş,,,,,5,harmonic,1.8,nw,z,,,,,,,
,,oltan,1,2023-11-27_20h09.34.094,VH_v3,2023.2.3,Win32,60.0240096,,,,,,,,,,,,350.6,351.6,,,,,,,,,,,,,,,,,,,,,,,,,,351.601,352.25,m,1,0.629,,352.25,352.251,,0,162,162,77,1,78,ufak,3252,147.758,2980,0.3258,4,harmonic,1.5,word,m,,,,,,,
,,oltan,1,2023-11-27_20h09.34.094,VH_v3,2023.2.3,Win32,60.0240096,,,,,,,,,,,,352.254,353.249,,,,,,,,,,,,,,,,,,,,,,,,,,353.249,353.798,m,1,0.53,,353.798,353.798,,0,163,163,140,1,141,ünlü,2684,121.9503,2457,0.2686,4,harmonic,,word,m,,,,,,,
,,oltan,1,2023-11-27_20h09.34.094,VH_v3,2023.2.3,Win32,60.0240096,,,,,,,,,,,,353.8,354.797,,,,,,,,,,,,,,,,,,,,,,,,,,354.797,355.464,z,1,0.65,,355.464,355.464,,0,164,164,241,1,242,sılman,,,,,6,harmonic,2,nw,z,,,,,,,
,,oltan,1,2023-11-27_20h09.34.094,VH_v3,2023.2.3,Win32,60.0240096,,,,,,,,,,,,355.465,356.464,,,,,,,,,,,,,,,,,,,,,,,,,,356.464,356.947,m,1,0.465,,356.947,356.947,,0,165,165,116,1,117,tatlı,5515,250.5797,4949,0.541,5,harmonic,,word,m,,,,,,,
,,oltan,1,2023-11-27_20h09.34.094,VH_v3,2023.2.3,Win32,60.0240096,,,,,,,,,,,,356.947,357.947,,,,,,,,,,,,,,,,,,,,,,,,,,357.947,358.529,z,1,0.571,,358.529,358.529,,0,166,166,238,1,239,bodu,,,,,4,harmonic,1.85,nw,z,,,,,,,
,,oltan,1,2023-11-27_20h09.34.094,VH_v3,2023.2.3,Win32,60.0240096,,,,,,,,,,,,358.53,359.529,,,,,,,,,,,,,,,,,,,,,,,,,,359.529,360.779,z,1,1.231,,360.779,360.779,,0,167,167,245,1,246,mahram,,,,,6,harmonic,1.85,nw,z,,,,,,,
,,oltan,1,2023-11-27_20h09.34.094,VH_v3,2023.2.3,Win32,60.0240096,,,,,,,,,,,,360.78,361.778,,,,,,,,,,,,,,,,,,,,,,,,,,361.778,362.428,z,1,0.633,,362.428,362.428,,0,168,168,266,1,267,yannoz,,,,,6,harmonic,2.85,nw,z,,,,,,,
,,oltan,1,2023-11-27_20h09.34.094,VH_v3,2023.2.3,Win32,60.0240096,,,,,,,,,,,,362.429,363.428,,,,,,,,,,,,,,,,,,,,,,,,,,363.428,363.977,m,1,0.531,,363.977,363.977,,0,169,169,43,1,44,geniş,3380,153.5738,3185,0.3482,5,harmonic,1.35,word,m,,,,,,,
,,oltan,1,2023-11-27_20h09.34.094,VH_v3,2023.2.3,Win32,60.0240096,,,,,,,,,,,,363.978,364.976,,,,,,,,,,,,,,,,,,,,,,,,,,364.976,365.61,m,1,0.614,,365.61,365.61,,0,170,170,48,1,49,teşvik,932,42.3464,867,0.0948,6,harmonic,1.8,word,m,,,,,,,
,,oltan,1,2023-11-27_20h09.34.094,VH_v3,2023.2.3,Win32,60.0240096,,,,,,,,,,,,365.61,366.609,,,,,,,,,,,,,,,,,,,,,,,,,,366.609,367.158,z,1,0.537,,367.159,367.159,,0,171,171,196,1,197,gakık,,,,,5,harmonic,2,nw,z,,,,,,,
,,oltan,1,2023-11-27_20h09.34.094,VH_v3,2023.2.3,Win32,60.0240096,,,,,,,,,,,,367.159,368.158,,,,,,,,,,,,,,,,,,,,,,,,,,368.158,368.608,m,1,0.431,,368.608,368.608,,0,172,172,12,1,13,konu,5400,245.3546,5110,0.5586,4,harmonic,1,word,m,,,,,,,
,,oltan,1,2023-11-27_20h09.34.094,VH_v3,2023.2.3,Win32,60.0240096,,,,,,,,,,,,368.61,369.607,,,,,,,,,,,,,,,,,,,,,,,,,,369.607,370.124,m,1,0.499,,370.124,370.124,,0,173,173,7,1,8,hizmet,3023,137.3531,2689,0.294,6,harmonic,1.75,word,m,,,,,,,
,,oltan,1,2023-11-27_20h09.34.094,VH_v3,2023.2.3,Win32,60.0240096,,,,,,,,,,,,370.125,371.124,,,,,,,,,,,,,,,,,,,,,,,,,,371.124,371.69,z,1,0.548,,371.69,371.69,,0,174,174,283,1,284,sate,,,,,4,notharmonic,1.45,nw,z,,,,,,,
,,oltan,1,2023-11-27_20h09.34.094,VH_v3,2023.2.3,Win32,60.0240096,,,,,,,,,,,,371.691,372.689,,,,,,,,,,,,,,,,,,,,,,,,,,372.689,373.523,z,1,0.814,,373.523,373.523,,0,175,175,310,1,311,moderp,,,,,6,notharmonic,,nw,z,,,,,,,
,,oltan,1,2023-11-27_20h09.34.094,VH_v3,2023.2.3,Win32,60.0240096,,,,,,,,,,,,373.524,374.522,,,,,,,,,,,,,,,,,,,,,,,,,,374.522,375.238,z,1,0.704,,375.238,375.238,,0,176,176,231,1,232,çekir,,,,,5,harmonic,1.45,nw,z,,,,,,,
,,oltan,1,2023-11-27_20h09.34.094,VH_v3,2023.2.3,Win32,60.0240096,,,,,,,,,,,,375.239,376.238,,,,,,,,,,,,,,,,,,,,,,,,,,376.238,376.938,z,1,0.681,,376.938,376.938,,0,177,177,295,1,296,takime,,,,,6,notharmonic,1.9,nw,z,,,,,,,
,,oltan,1,2023-11-27_20h09.34.094,VH_v3,2023.2.3,Win32,60.0240096,,,,,,,,,,,,376.939,377.938,,,,,,,,,,,,,,,,,,,,,,,,,,377.938,378.554,z,1,0.598,,378.554,378.554,,0,178,178,327,1,328,zena,,,,,4,notharmonic,1.65,nw,z,,,,,,,
,,oltan,1,2023-11-27_20h09.34.094,VH_v3,2023.2.3,Win32,60.0240096,,,,,,,,,,,,378.555,379.554,,,,,,,,,,,,,,,,,,,,,,,,,,379.554,380.12,m,1,0.548,,380.12,380.12,,0,179,179,118,1,119,deniz,5006,227.4528,4256,0.4653,5,harmonic,,word,m,,,,,,,
,,oltan,1,2023-11-27_20h09.34.094,VH_v3,2023.2.3,Win32,60.0240096,,,,,,,,,,,,380.12,381.119,,,,,,,,,,,,,,,,,,,,,,,,,,381.119,381.769,z,1,0.631,,381.769,381.769,,0,180,180,304,1,305,irak,,,,,4,notharmonic,1.55,nw,z,,,,,,,
,,oltan,1,2023-11-27_20h09.34.094,VH_v3,2023.2.3,Win32,60.0240096,,,,,,,,,,,,381.769,382.769,,,,,,,,,,,,,,,,,,,,,,,,,,382.769,383.301,m,1,0.515,,383.301,383.301,,0,181,181,161,1,162,servis,3344,151.9381,2968,0.3245,6,harmonic,,word,m,,,,,,,
,,oltan,1,2023-11-27_20h09.34.094,VH_v3,2023.2.3,Win32,60.0240096,,,,,,,,,,,,383.301,384.301,,,,,,,,,,,,,,,,,,,,,,,,,,384.301,384.901,z,1,0.58,,384.901,384.901,,0,182,182,219,1,220,tefsi,,,,,5,harmonic,1.8,nw,z,,,,,,,
,,oltan,1,2023-11-27_20h09.34.094,VH_v3,2023.2.3,Win32,60.0240096,,,,,,,,,,,,384.901,385.901,,,,,,,,,,,,,,,,,,,,,,,,,,385.903,386.333,m,1,0.418,,386.333,386.335,,0,183,183,149,1,150,ince,4045,183.7888,3429,0.3749,4,harmonic,,word,m,,,,,,,
,,oltan,1,2023-11-27_20h09.34.094,VH_v3,2023.2.3,Win32,60.0240096,,,,,,,,,,,,386.338,387.334,,,,,,,,,,,,,,,,,,,,,,,,,,387.334,387.9,m,1,0.546,,387.9,387.9,,0,184,184,112,1,113,genel,7752,352.2201,6893,0.7535,5,harmonic,,word,m,,,,,,,
,,oltan,1,2023-11-27_20h09.34.094,VH_v3,2023.2.3,Win32,60.0240096,,,,,,,,,,,,387.9,388.899,,,,,,,,,,,,,,,,,,,,,,,,,,388.899,389.449,m,1,0.53,,389.449,389.449,,0,185,185,176,1,177,tebrik,1117,50.7521,1102,0.1205,6,harmonic,,word,m,,,,,,,
,,oltan,1,2023-11-27_20h09.34.094,VH_v3,2023.2.3,Win32,60.0240096,,,,,,,,,,,,389.45,390.449,,,,,,,,,,,,,,,,,,,,,,,,,,390.449,390.948,z,1,0.477,,390.948,390.949,,0,186,186,333,1,334,uleç,,,,,4,notharmonic,1.95,nw,z,,,,,,,
,,oltan,1,2023-11-27_20h09.34.094,VH_v3,2023.2.3,Win32,60.0240096,,,,,,,,,,,,390.95,391.948,,,,,,,,,,,,,,,,,,,,,,,,,,391.948,392.43,m,1,0.464,,392.431,392.431,,0,187,187,179,1,180,mesele,995,45.2089,929,0.1016,6,harmonic,,word,m,,,,,,,
,,oltan,1,2023-11-27_20h09.34.094,VH_v3,2023.2.3,Win32,60.0240096,,,,,,,,,,,,392.431,393.431,,,,,,,,,,,,,,,,,,,,,,,,,,393.431,394.213,m,1,0.763,,394.214,394.214,,0,188,188,62,1,63,cümle,1911,86.8283,1765,0.193,5,harmonic,1.85,word,m,,,,,,,
,,oltan,1,2023-11-27_20h09.34.094,VH_v3,2023.2.3,Win32,60.0240096,,,,,,,,,,,,394.216,395.213,,,,,,,,,,,,,,,,,,,,,,,,,,395.213,395.762,m,1,0.537,,395.762,395.762,,0,189,189,135,1,136,değer,3333,151.4383,3084,0.3371,5,harmonic,,word,m,,,,,,,
,,oltan,1,2023-11-27_20h09.34.094,VH_v3,2023.2.3,Win32,60.0240096,,,,,,,,,,,,395.763,396.762,,,,,,,,,,,,,,,,,,,,,,,,,,396.762,397.361,m,1,0.58,,397.362,397.362,,0,190,190,129,1,130,yorum,3801,172.7024,3473,0.3797,5,harmonic,,word,m,,,,,,,
,,oltan,1,2023-11-27_20h09.34.094,VH_v3,2023.2.3,Win32,60.0240096,,,,,,,,,,,,397.362,398.362,,,,,,,,,,,,,,,,,,,,,,,,,,398.362,399.511,z,1,1.133,,399.511,399.511,,0,191,191,288,1,289,talif,,,,,5,notharmonic,1.5,nw,z,,,,,,,
,,oltan,1,2023-11-27_20h09.34.094,VH_v3,2023.2.3,Win32,60.0240096,,,,,,,,,,,,399.511,400.51,,,,,,,,,,,,,,,,,,,,,,,,,,400.511,400.976,m,1,0.449,,400.976,400.977,,0,192,192,36,1,37,meslek,1082,49.1618,976,0.1067,6,harmonic,1.9,word,m,,,,,,,
,,oltan,1,2023-11-27_20h09.34.094,VH_v3,2023.2.3,Win32,60.0240096,,,,,,,,,,,,400.978,401.976,,,,,,,,,,,,,,,,,,,,,,,,,,401.976,402.609,z,1,0.619,,402.609,402.609,,0,193,193,200,1,201,duftu,,,,,5,harmonic,2.5,nw,z,,,,,,,
,,oltan,1,2023-11-27_20h09.34.094,VH_v3,2023.2.3,Win32,60.0240096,,,,,,,,,,,,402.61,403.609,,,,,,,,,,,,,,,,,,,,,,,,,,403.609,404.309,m,1,0.681,,404.309,404.309,,0,194,194,124,1,125,yarım,4177,189.7863,3852,0.4211,5,harmonic,,word,m,,,,,,,
,,oltan,1,2023-11-27_20h09.34.094,VH_v3,2023.2.3,Win32,60.0240096,,,,,,,,,,,,404.31,405.309,,,,,,,,,,,,,,,,,,,,,,,,,,405.309,405.874,m,1,0.548,,405.874,405.874,,0,195,195,85,1,86,geçmiş,4195,190.6042,4039,0.4415,6,harmonic,1.55,word,m,,,,,,,
,,oltan,1,2023-11-27_20h09.34.094,VH_v3,2023.2.3,Win32,60.0240096,,,,,,,,,,,,405.874,406.874,,,,,,,,,,,,,,,,,,,,,,,,,,406.874,407.408,m,1,0.517,,407.408,407.408,,0,196,196,11,1,12,umut,1988,90.3268,1818,0.1987,4,harmonic,1.55,word,m,,,,,,,
,,oltan,1,2023-11-27_20h09.34.094,VH_v3,2023.2.3,Win32,60.0240096,,,,,,,,,,,,407.408,408.407,,,,,,,,,,,,,,,,,,,,,,,,,,408.407,408.874,m,1,0.451,,408.874,408.874,,0,197,197,117,1,118,yavaş,5087,231.1331,2886,0.3155,5,harmonic,,word,m,,,,,,,
,,oltan,1,2023-11-27_20h09.34.094,VH_v3,2023.2.3,Win32,60.0240096,,,,,,,,,,,,408.875,409.873,,,,,,,,,,,,,,,,,,,,,,,,,,409.873,411.173,z,1,1.281,,411.173,411.173,,0,198,198,275,1,276,makis,,,,,5,notharmonic,1.8,nw,z,,,,,,,
,,oltan,1,2023-11-27_20h09.34.094,VH_v3,2023.2.3,Win32,60.0240096,,,,,,,,,,,,411.174,412.172,,,,,,,,,,,,,,,,,,,,,,,,,,412.172,414.171,,0,,,414.171,414.171,,0,199,199,88,1,89,yalnız,5891,267.6637,5440,0.5947,6,harmonic,1.6,word,m,,,,,,,
,,oltan,1,2023-11-27_20h09.34.094,VH_v3,2023.2.3,Win32,60.0240096,,,,,,,,,,,,414.171,415.17,,,,,,,,,,,,,,,,,,,,,,,,,,415.17,415.72,m,1,0.537,,415.72,415.72,,0,200,200,6,1,7,hayal,4498,204.3713,4079,0.4459,5,harmonic,1.45,word,m,,,,,,,
,,oltan,1,2023-11-27_20h09.34.094,VH_v3,2023.2.3,Win32,60.0240096,,,,,,,,,,,,415.72,416.72,,,,,,,,,,,,,,,,,,,,,,,,,,416.72,417.453,z,1,0.72,,417.453,417.453,,0,201,201,282,1,283,edap,,,,,4,notharmonic,1.7,nw,z,,,,,,,
,,oltan,1,2023-11-27_20h09.34.094,VH_v3,2023.2.3,Win32,60.0240096,,,,,,,,,,,,417.453,418.452,,,,,,,,,,,,,,,,,,,,,,,,,,418.452,418.969,m,1,0.503,,418.969,418.969,,0,202,202,82,1,83,aday,1028,46.7082,873,0.0954,4,harmonic,1.45,word,m,,,,,,,
,,oltan,1,2023-11-27_20h09.34.094,VH_v3,2023.2.3,Win32,60.0240096,,,,,,,,,,,,418.969,419.969,,,,,,,,,,,,,,,,,,,,,,,,,,419.971,420.968,m,1,0.983,,420.968,420.968,,0,203,203,22,1,23,anlam,1730,78.6043,1617,0.1768,5,harmonic,1.25,word,m,,,,,,,
,,oltan,1,2023-11-27_20h09.34.094,VH_v3,2023.2.3,Win32,60.0240096,,,,,,,,,,,,420.972,421.967,,,,,,,,,,,,,,,,,,,,,,,,,,421.968,422.667,z,1,0.682,,422.667,422.667,,0,204,204,278,1,279,camet,,,,,5,notharmonic,1.8,nw,z,,,,,,,
,,oltan,1,2023-11-27_20h09.34.094,VH_v3,2023.2.3,Win32,60.0240096,,,,,,,,,,,,422.668,423.666,,,,,,,,,,,,,,,,,,,,,,,,,,423.666,424.366,m,1,0.683,,424.367,424.367,,0,205,205,76,1,77,ilişki,1675,76.1054,1524,0.1666,6,harmonic,1.8,word,m,,,,,,,
,,oltan,1,2023-11-27_20h09.34.094,VH_v3,2023.2.3,Win32,60.0240096,,,,,,,,,,,,424.368,425.366,,,,,,,,,,,,,,,,,,,,,,,,,,425.366,425.999,m,1,0.615,,425.999,425.999,,0,206,206,157,1,158,eğitim,4784,217.366,3846,0.4204,6,harmonic,,word,m,,,,,,,
,,oltan,1,2023-11-27_20h09.34.094,VH_v3,2023.2.3,Win32,60.0240096,,,,,,,,,,,,425.999,426.998,,,,,,,,,,,,,,,,,,,,,,,,,,426.998,427.498,m,0,0.489,,427.498,427.498,,0,207,207,247,1,248,fonta,,,,,5,harmonic,1.75,nw,z,,,,,,,
,,oltan,1,2023-11-27_20h09.34.094,VH_v3,2023.2.3,Win32,60.0240096,,,,,,,,,,,,427.499,428.498,,,,,,,,,,,,,,,,,,,,,,,,,,428.498,429.181,z,1,0.665,,429.181,429.181,,0,208,208,305,1,306,itba,,,,,4,notharmonic,1.85,nw,z,,,,,,,
,,oltan,1,2023-11-27_20h09.34.094,VH_v3,2023.2.3,Win32,60.0240096,,,,,,,,,,,,429.183,430.181,,,,,,,,,,,,,,,,,,,,,,,,,,430.181,430.747,m,1,0.546,,430.747,430.747,,0,209,209,46,1,47,takım,4370,198.5555,3726,0.4073,5,harmonic,1.7,word,m,,,,,,,
,,oltan,1,2023-11-27_20h09.34.094,VH_v3,2023.2.3,Win32,60.0240096,,,,,,,,,,,,430.748,431.746,,,,,,,,,,,,,,,,,,,,,,,,,,431.746,432.53,m,1,0.768,,432.53,432.53,,0,210,210,56,1,57,sağlam,1818,82.6027,1720,0.188,6,harmonic,1.6,word,m,,,,,,,
,,oltan,1,2023-11-27_20h09.34.094,VH_v3,2023.2.3,Win32,60.0240096,,,,,,,,,,,,432.53,433.529,,,,,,,,,,,,,,,,,,,,,,,,,,433.529,433.995,m,1,0.454,,433.995,433.995,,0,211,211,39,1,40,yaygın,1061,48.2076,1019,0.1114,6,harmonic,1.35,word,m,,,,,,,
,,oltan,1,2023-11-27_20h09.34.094,VH_v3,2023.2.3,Win32,60.0240096,,,,,,,,,,,,433.996,434.995,,,,,,,,,,,,,,,,,,,,,,,,,,434.995,435.611,z,1,0.597,,435.611,435.611,,0,212,212,326,1,327,melaş,,,,,5,notharmonic,1.8,nw,z,,,,,,,
,,oltan,1,2023-11-27_20h09.34.094,VH_v3,2023.2.3,Win32,60.0240096,,,,,,,,,,,,435.611,436.611,,,,,,,,,,,,,,,,,,,,,,,,,,436.611,437.028,m,1,0.398,,437.028,437.028,,0,213,213,98,1,99,yerel,1399,63.565,1187,0.1298,5,harmonic,,word,m,,,,,,,
,,oltan,1,2023-11-27_20h09.34.094,VH_v3,2023.2.3,Win32,60.0240096,,,,,,,,,,,,437.03,438.027,,,,,,,,,,,,,,,,,,,,,,,,,,438.027,438.66,z,1,0.616,,438.66,438.66,,0,214,214,316,1,317,karkiş,,,,,6,notharmonic,2,nw,z,,,,,,,
,,oltan,1,2023-11-27_20h09.34.094,VH_v3,2023.2.3,Win32,60.0240096,,,,,,,,,,,,438.66,439.659,,,,,,,,,,,,,,,,,,,,,,,,,,439.659,439.992,m,1,0.313,,439.992,439.992,,0,215,215,142,1,143,aşık,2464,111.9544,2129,0.2327,4,harmonic,,word,m,,,,,,,
,,oltan,1,2023-11-27_20h09.34.094,VH_v3,2023.2.3,Win32,60.0240096,,,,,,,,,,,,439.993,440.992,,,,,,,,,,,,,,,,,,,,,,,,,,440.992,441.575,z,1,0.566,,441.575,441.575,,0,216,216,273,1,274,sisaf,,,,,5,notharmonic,2,nw,z,,,,,,,
,,oltan,1,2023-11-27_20h09.34.094,VH_v3,2023.2.3,Win32,60.0240096,,,,,,,,,,,,441.576,442.575,,,,,,,,,,,,,,,,,,,,,,,,,,442.575,443.191,z,1,0.597,,443.191,443.191,,0,217,217,186,1,187,yadal,,,,,5,harmonic,1.85,nw,z,,,,,,,
,,oltan,1,2023-11-27_20h09.34.094,VH_v3,2023.2.3,Win32,60.0240096,,,,,,,,,,,,443.192,444.19,,,,,,,,,,,,,,,,,,,,,,,,,,444.19,444.757,z,1,0.547,,444.757,444.757,,0,218,218,191,1,192,unot,,,,,4,harmonic,1.85,nw,z,,,,,,,
,,oltan,1,2023-11-27_20h09.34.094,VH_v3,2023.2.3,Win32,60.0240096,,,,,,,,,,,,444.758,445.757,,,,,,,,,,,,,,,,,,,,,,,,,,445.757,445.823,z,1,0.048,,445.823,445.823,,0,219,219,276,1,277,dapel,,,,,5,notharmonic,1.9,nw,z,,,,,,,
,,oltan,1,2023-11-27_20h09.34.094,VH_v3,2023.2.3,Win32,60.0240096,,,,,,,,,,,,445.824,446.823,,,,,,,,,,,,,,,,,,,,,,,,,,446.823,447.306,m,1,0.472,,447.306,447.306,,0,220,220,145,1,146,ilgi,2144,97.4149,2041,0.2231,4,harmonic,,word,m,,,,,,,
,,oltan,1,2023-11-27_20h09.34.094,VH_v3,2023.2.3,Win32,60.0240096,,,,,,,,,,,,447.306,448.306,,,,,,,,,,,,,,,,,,,,,,,,,,448.306,448.772,z,1,0.449,,448.772,448.772,,0,221,221,216,1,217,halban,,,,,6,harmonic,2,nw,z,,,,,,,
,,oltan,1,2023-11-27_20h09.34.094,VH_v3,2023.2.3,Win32,60.0240096,,,,,,,,,,,,448.772,449.772,,,,,,,,,,,,,,,,,,,,,,,,,,449.772,450.154,m,1,0.365,,450.154,450.154,,0,222,222,17,1,18,yakın,7990,363.0339,7595,0.8303,5,harmonic,1.8,word,m,,,,,,,
,,oltan,1,2023-11-27_20h09.34.094,VH_v3,2023.2.3,Win32,60.0240096,,,,,,,,,,,,450.155,451.154,,,,,,,,,,,,,,,,,,,,,,,,,,451.154,451.57,m,1,0.399,,451.57,451.57,,0,223,223,91,1,92,zaman,40307,1831.3902,33589,3.672,5,harmonic,,word,m,,,,,,,
,,oltan,1,2023-11-27_20h09.34.094,VH_v3,2023.2.3,Win32,60.0240096,,,,,,,,,,,,451.572,452.57,,,,,,,,,,,,,,,,,,,,,,,,,,452.57,453.136,z,1,0.55,,453.137,453.137,,0,224,224,345,1,346,kiru,,,,,4,notharmonic,1.8,nw,z,,,,,,,
,,oltan,1,2023-11-27_20h09.34.094,VH_v3,2023.2.3,Win32,60.0240096,,,,,,,,,,,,453.137,454.137,,,,,,,,,,,,,,,,,,,,,,,,,,454.139,454.67,m,0,0.515,,454.67,454.67,,0,225,225,271,1,272,icazi,,,,,5,notharmonic,1.95,nw,z,,,,,,,
,,oltan,1,2023-11-27_20h09.34.094,VH_v3,2023.2.3,Win32,60.0240096,,,,,,,,,,,,454.674,455.669,,,,,,,,,,,,,,,,,,,,,,,,,,455.669,456.219,z,0,0.532,,456.219,456.219,,0,226,226,119,1,120,rahat,4833,219.5924,4316,0.4718,5,harmonic,,word,m,,,,,,,
,,oltan,1,2023-11-27_20h09.34.094,VH_v3,2023.2.3,Win32,60.0240096,,,,,,,,,,,,456.22,457.218,,,,,,,,,,,,,,,,,,,,,,,,,,457.219,457.951,z,1,0.722,,457.951,457.951,,0,227,227,229,1,230,ilgent,,,,,6,harmonic,2.7,nw,z,,,,,,,
,,oltan,1,2023-11-27_20h09.34.094,VH_v3,2023.2.3,Win32,60.0240096,,,,,,,,,,,,457.953,458.951,,,,,,,,,,,,,,,,,,,,,,,,,,458.951,459.601,z,1,0.638,,459.601,459.601,,0,228,228,329,1,330,aniş,,,,,4,notharmonic,1.7,nw,z,,,,,,,
,,oltan,1,2023-11-27_20h09.34.094,VH_v3,2023.2.3,Win32,60.0240096,,,,,,,,,,,,459.602,460.6,,,,,,,,,,,,,,,,,,,,,,,,,,460.6,461.266,z,1,0.654,,461.266,461.266,,0,229,229,224,1,225,binci,,,,,5,harmonic,1.5,nw,z,,,,,,,
,,oltan,1,2023-11-27_20h09.34.094,VH_v3,2023.2.3,Win32,60.0240096,,,,,,,,,,,,461.267,462.265,,,,,,,,,,,,,,,,,,,,,,,,,,462.265,462.849,m,1,0.566,,462.849,462.849,,0,230,230,170,1,171,parmak,1268,57.6129,1165,0.1274,6,harmonic,,word,m,,,,,,,
,,oltan,1,2023-11-27_20h09.34.094,VH_v3,2023.2.3,Win32,60.0240096,,,,,,,,,,,,462.85,463.848,,,,,,,,,,,,,,,,,,,,,,,,,,463.849,464.315,m,1,0.447,,464.315,464.315,,0,231,231,90,1,91,güzel,42841,1946.5251,37209,4.0677,5,harmonic,,word,m,,,,,,,
,,oltan,1,2023-11-27_20h09.34.094,VH_v3,2023.2.3,Win32,60.0240096,,,,,,,,,,,,464.315,465.314,,,,,,,,,,,,,,,,,,,,,,,,,,465.315,465.83,m,1,0.501,,465.83,465.831,,0,232,232,95,1,96,koyun,1431,65.019,1292,0.1412,5,harmonic,,word,m,,,,,,,
,,oltan,1,2023-11-27_20h09.34.094,VH_v3,2023.2.3,Win32,60.0240096,,,,,,,,,,,,465.831,466.831,,,,,,,,,,,,,,,,,,,,,,,,,,466.831,467.23,m,1,0.38,,467.23,467.23,,0,233,233,165,1,166,fırsat,1952,88.6911,1863,0.2037,6,harmonic,,word,m,,,,,,,
,,oltan,1,2023-11-27_20h09.34.094,VH_v3,2023.2.3,Win32,60.0240096,,,,,,,,,,,,467.231,468.23,,,,,,,,,,,,,,,,,,,,,,,,,,468.23,468.98,z,1,0.731,,468.98,468.98,,0,234,234,218,1,219,yaltın,,,,,6,harmonic,1.8,nw,z,,,,,,,
,,oltan,1,2023-11-27_20h09.34.094,VH_v3,2023.2.3,Win32,60.0240096,,,,,,,,,,,,468.981,469.979,,,,,,,,,,,,,,,,,,,,,,,,,,469.979,470.595,z,1,0.599,,470.595,470.595,,0,235,235,341,1,342,sizika,,,,,6,notharmonic,2.45,nw,z,,,,,,,
,,oltan,1,2023-11-27_20h09.34.094,VH_v3,2023.2.3,Win32,60.0240096,,,,,,,,,,,,470.597,471.594,,,,,,,,,,,,,,,,,,,,,,,,,,471.594,472.244,m,1,0.632,,472.244,472.244,,0,236,236,155,1,156,devlet,5766,261.9842,4854,0.5306,6,harmonic,,word,m,,,,,,,
,,oltan,1,2023-11-27_20h09.34.094,VH_v3,2023.2.3,Win32,60.0240096,,,,,,,,,,,,472.245,473.244,,,,,,,,,,,,,,,,,,,,,,,,,,473.244,473.794,z,1,0.534,,473.794,473.794,,0,237,237,265,1,266,münrün,,,,,6,harmonic,2.75,nw,z,,,,,,,
,,oltan,1,2023-11-27_20h09.34.094,VH_v3,2023.2.3,Win32,60.0240096,,,,,,,,,,,,473.795,474.793,,,,,,,,,,,,,,,,,,,,,,,,,,474.793,475.26,m,1,0.451,,475.26,475.26,,0,238,238,150,1,151,ağır,4441,201.7814,3961,0.433,4,harmonic,,word,m,,,,,,,
,,oltan,1,2023-11-27_20h09.34.094,VH_v3,2023.2.3,Win32,60.0240096,,,,,,,,,,,,475.261,476.26,,,,,,,,,,,,,,,,,,,,,,,,,,476.26,476.859,m,1,0.581,,476.859,476.859,,0,239,239,9,1,10,karar,8108,368.3954,7436,0.8129,5,harmonic,1.6,word,m,,,,,,,
,,oltan,1,2023-11-27_20h09.34.094,VH_v3,2023.2.3,Win32,60.0240096,,,,,,,,,,,,476.86,477.859,,,,,,,,,,,,,,,,,,,,,,,,,,477.859,478.725,z,1,0.849,,478.725,760.381,space,0,240,240,207,1,208,çallak,,,,,6,harmonic,1.75,nw,z,281.637,,,,,,
,,oltan,1,2023-11-27_20h09.34.094,VH_v3,2023.2.3,Win32,60.0240096,,,,,,,,,,,,760.385,761.381,,,,,,,,,,,,,,,,,,,,,,,,,,761.381,762.03,z,1,0.626,,762.03,762.031,,0,241,241,335,1,336,askif,,,,,5,notharmonic,2,nw,z,,,,,,,
,,oltan,1,2023-11-27_20h09.34.094,VH_v3,2023.2.3,Win32,60.0240096,,,,,,,,,,,,762.032,763.029,,,,,,,,,,,,,,,,,,,,,,,,,,763.029,763.43,m,1,0.384,,763.43,763.43,,0,242,242,110,1,111,beden,1333,60.5662,1119,0.1223,5,harmonic,,word,m,,,,,,,
,,oltan,1,2023-11-27_20h09.34.094,VH_v3,2023.2.3,Win32,60.0240096,,,,,,,,,,,,763.431,764.429,,,,,,,,,,,,,,,,,,,,,,,,,,764.429,764.912,m,1,0.464,,764.912,764.912,,0,243,243,130,1,131,sonuç,3768,171.203,3626,0.3964,5,harmonic,,word,m,,,,,,,
,,oltan,1,2023-11-27_20h09.34.094,VH_v3,2023.2.3,Win32,60.0240096,,,,,,,,,,,,764.914,765.911,,,,,,,,,,,,,,,,,,,,,,,,,,765.911,766.428,z,1,0.5,,766.428,766.428,,0,244,244,260,1,261,abaf,,,,,4,harmonic,1.85,nw,z,,,,,,,
,,oltan,1,2023-11-27_20h09.34.094,VH_v3,2023.2.3,Win32,60.0240096,,,,,,,,,,,,766.429,767.427,,,,,,,,,,,,,,,,,,,,,,,,,,767.427,768.01,z,1,0.565,,768.01,768.01,,0,245,245,284,1,285,zebap,,,,,5,notharmonic,1.8,nw,z,,,,,,,
,,oltan,1,2023-11-27_20h09.34.094,VH_v3,2023.2.3,Win32,60.0240096,,,,,,,,,,,,768.011,769.01,,,,,,,,,,,,,,,,,,,,,,,,,,769.01,769.493,z,1,0.466,,769.493,769.493,,0,246,246,296,1,297,taeri,,,,,5,notharmonic,2,nw,z,,,,,,,
,,oltan,1,2023-11-27_20h09.34.094,VH_v3,2023.2.3,Win32,60.0240096,,,,,,,,,,,,769.494,770.493,,,,,,,,,,,,,,,,,,,,,,,,,,770.493,771.026,m,1,0.516,,771.026,771.026,,0,247,247,164,1,165,toprak,1989,90.3723,1762,0.1926,6,harmonic,,word,m,,,,,,,
,,oltan,1,2023-11-27_20h09.34.094,VH_v3,2023.2.3,Win32,60.0240096,,,,,,,,,,,,771.027,772.025,,,,,,,,,,,,,,,,,,,,,,,,,,772.025,772.691,m,1,0.65,,772.691,772.691,,0,248,248,143,1,144,isim,2366,107.5017,2163,0.2365,4,harmonic,,word,m,,,,,,,
,,oltan,1,2023-11-27_20h09.34.094,VH_v3,2023.2.3,Win32,60.0240096,,,,,,,,,,,,772.693,773.691,,,,,,,,,,,,,,,,,,,,,,,,,,773.691,774.291,z,1,0.58,,774.291,774.292,,0,249,249,324,1,325,başi,,,,,4,notharmonic,1.5,nw,z,,,,,,,
,,oltan,1,2023-11-27_20h09.34.094,VH_v3,2023.2.3,Win32,60.0240096,,,,,,,,,,,,774.293,775.29,,,,,,,,,,,,,,,,,,,,,,,,,,775.29,775.757,m,1,0.447,,775.757,775.757,,0,250,250,136,1,137,süper,3256,147.9397,2989,0.3268,5,harmonic,,word,m,,,,,,,
,,oltan,1,2023-11-27_20h09.34.094,VH_v3,2023.2.3,Win32,60.0240096,,,,,,,,,,,,775.758,776.757,,,,,,,,,,,,,,,,,,,,,,,,,,776.757,777.256,z,1,0.481,,777.256,777.257,,0,251,251,292,1,293,semun,,,,,5,notharmonic,1.85,nw,z,,,,,,,
,,oltan,1,2023-11-27_20h09.34.094,VH_v3,2023.2.3,Win32,60.0240096,,,,,,,,,,,,777.257,778.256,,,,,,,,,,,,,,,,,,,,,,,,,,778.256,778.706,m,1,0.436,,778.706,778.706,,0,252,252,13,1,14,nokta,2085,94.7341,1939,0.212,5,harmonic,1.5,word,m,,,,,,,
,,oltan,1,2023-11-27_20h09.34.094,VH_v3,2023.2.3,Win32,60.0240096,,,,,,,,,,,,778.706,779.705,,,,,,,,,,,,,,,,,,,,,,,,,,779.705,780.355,m,1,0.63,,780.355,780.355,,0,253,253,141,1,142,kuru,2669,121.2688,2372,0.2593,4,harmonic,,word,m,,,,,,,
,,oltan,1,2023-11-27_20h09.34.094,VH_v3,2023.2.3,Win32,60.0240096,,,,,,,,,,,,780.356,781.355,,,,,,,,,,,,,,,,,,,,,,,,,,781.355,781.787,m,1,0.416,,781.787,781.787,,0,254,254,166,1,167,tespit,1929,87.6461,1745,0.1908,6,harmonic,,word,m,,,,,,,
,,oltan,1,2023-11-27_20h09.34.094,VH_v3,2023.2.3,Win32,60.0240096,,,,,,,,,,,,781.788,782.787,,,,,,,,,,,,,,,,,,,,,,,,,,782.787,783.254,m,0,0.447,,783.254,783.254,,0,255,255,280,1,281,düktan,,,,,6,notharmonic,2.35,nw,z,,,,,,,
,,oltan,1,2023-11-27_20h09.34.094,VH_v3,2023.2.3,Win32,60.0240096,,,,,,,,,,,,783.254,784.253,,,,,,,,,,,,,,,,,,,,,,,,,,784.253,784.903,z,1,0.638,,784.903,784.903,,0,256,256,347,1,348,şeylam,,,,,6,notharmonic,2.4,nw,z,,,,,,,
,,oltan,1,2023-11-27_20h09.34.094,VH_v3,2023.2.3,Win32,60.0240096,,,,,,,,,,,,784.903,785.902,,,,,,,,,,,,,,,,,,,,,,,,,,785.903,786.536,z,1,0.617,,786.536,786.536,,0,257,257,337,1,338,yakim,,,,,5,notharmonic,1.75,nw,z,,,,,,,
,,oltan,1,2023-11-27_20h09.34.094,VH_v3,2023.2.3,Win32,60.0240096,,,,,,,,,,,,786.536,787.535,,,,,,,,,,,,,,,,,,,,,,,,,,787.536,788.051,z,1,0.506,,788.052,788.052,,0,258,258,357,1,358,harim,,,,,5,notharmonic,,nw,z,,,,,,,
,,oltan,1,2023-11-27_20h09.34.094,VH_v3,2023.2.3,Win32,60.0240096,,,,,,,,,,,,788.054,789.051,,,,,,,,,,,,,,,,,,,,,,,,,,789.051,789.634,m,1,0.567,,789.635,789.635,,0,259,259,134,1,135,hanım,3564,161.934,3151,0.3445,5,harmonic,,word,m,,,,,,,
,,oltan,1,2023-11-27_20h09.34.094,VH_v3,2023.2.3,Win32,60.0240096,,,,,,,,,,,,789.635,790.633,,,,,,,,,,,,,,,,,,,,,,,,,,790.633,791.15,z,1,0.499,,791.15,791.15,,0,260,260,323,1,324,itkea,,,,,5,notharmonic,2.35,nw,z,,,,,,,
,,oltan,1,2023-11-27_20h09.34.094,VH_v3,2023.2.3,Win32,60.0240096,,,,,,,,,,,,791.15,792.152,,,,,,,,,,,,,,,,,,,,,,,,,,792.153,792.883,z,1,0.719,,792.884,792.885,,0,261,261,274,1,275,rikal,,,,,5,notharmonic,1.85,nw,z,,,,,,,
,,oltan,1,2023-11-27_20h09.34.094,VH_v3,2023.2.3,Win32,60.0240096,,,,,,,,,,,,792.888,793.882,,,,,,,,,,,,,,,,,,,,,,,,,,793.882,794.381,m,1,0.48,,794.381,794.382,,0,262,262,115,1,116,uygun,6757,307.0113,6297,0.6884,5,harmonic,,word,m,,,,,,,
,,oltan,1,2023-11-27_20h09.34.094,VH_v3,2023.2.3,Win32,60.0240096,,,,,,,,,,,,794.383,795.382,,,,,,,,,,,,,,,,,,,,,,,,,,795.382,795.882,z,1,0.481,,795.882,795.882,,0,263,263,356,1,357,ated,,,,,4,notharmonic,,nw,z,,,,,,,
,,oltan,1,2023-11-27_20h09.34.094,VH_v3,2023.2.3,Win32,60.0240096,,,,,,,,,,,,795.882,796.88,,,,,,,,,,,,,,,,,,,,,,,,,,796.88,797.398,m,1,0.506,,797.398,797.398,,0,264,264,94,1,95,bütün,18630,846.4733,16711,1.8269,5,harmonic,,word,m,,,,,,,
,,oltan,1,2023-11-27_20h09.34.094,VH_v3,2023.2.3,Win32,60.0240096,,,,,,,,,,,,797.401,798.397,,,,,,,,,,,,,,,,,,,,,,,,,,798.397,798.896,z,1,0.486,,798.896,798.896,,0,265,265,261,1,262,kübün,,,,,5,harmonic,2,nw,z,,,,,,,
,,oltan,1,2023-11-27_20h09.34.094,VH_v3,2023.2.3,Win32,60.0240096,,,,,,,,,,,,798.897,799.896,,,,,,,,,,,,,,,,,,,,,,,,,,799.896,800.446,m,1,0.532,,800.446,800.446,,0,266,266,10,1,11,bardak,1728,78.5135,1569,0.1715,6,harmonic,1.6,word,m,,,,,,,
,,oltan,1,2023-11-27_20h09.34.094,VH_v3,2023.2.3,Win32,60.0240096,,,,,,,,,,,,800.448,801.445,,,,,,,,,,,,,,,,,,,,,,,,,,801.445,802.145,m,1,0.687,,802.145,802.145,,0,267,267,178,1,179,aykırı,1094,49.707,1022,0.1117,6,harmonic,,word,m,,,,,,,
,,oltan,1,2023-11-27_20h09.34.094,VH_v3,2023.2.3,Win32,60.0240096,,,,,,,,,,,,802.146,803.145,,,,,,,,,,,,,,,,,,,,,,,,,,803.145,803.578,m,1,0.423,,803.578,803.578,,0,268,268,171,1,172,şirket,1227,55.75,1022,0.1117,6,harmonic,,word,m,,,,,,,
,,oltan,1,2023-11-27_20h09.34.094,VH_v3,2023.2.3,Win32,60.0240096,,,,,,,,,,,,803.579,804.577,,,,,,,,,,,,,,,,,,,,,,,,,,804.577,805.01,m,1,0.416,,805.01,805.01,,0,269,269,41,1,42,zengin,2193,99.6412,2015,0.2203,6,harmonic,1.65,word,m,,,,,,,
,,oltan,1,2023-11-27_20h09.34.094,VH_v3,2023.2.3,Win32,60.0240096,,,,,,,,,,,,805.012,806.01,,,,,,,,,,,,,,,,,,,,,,,,,,806.01,806.51,z,1,0.482,,806.51,806.51,,0,270,270,253,1,254,notan,,,,,5,harmonic,1.85,nw,z,,,,,,,
,,oltan,1,2023-11-27_20h09.34.094,VH_v3,2023.2.3,Win32,60.0240096,,,,,,,,,,,,806.511,807.51,,,,,,,,,,,,,,,,,,,,,,,,,,807.51,808.026,m,1,0.504,,808.026,808.026,,0,271,271,152,1,153,sene,6752,306.7841,5843,0.6388,4,harmonic,,word,m,,,,,,,
,,oltan,1,2023-11-27_20h09.34.094,VH_v3,2023.2.3,Win32,60.0240096,,,,,,,,,,,,808.027,809.025,,,,,,,,,,,,,,,,,,,,,,,,,,809.025,809.592,z,1,0.548,,809.592,809.592,,0,272,272,332,1,333,makik,,,,,5,notharmonic,1.6,nw,z,,,,,,,
,,oltan,1,2023-11-27_20h09.34.094,VH_v3,2023.2.3,Win32,60.0240096,,,,,,,,,,,,809.594,810.591,,,,,,,,,,,,,,,,,,,,,,,,,,810.591,811.24,m,0,0.631,,811.24,811.24,,0,273,273,232,1,233,çemek,,,,,5,harmonic,1.5,nw,z,,,,,,,
,,oltan,1,2023-11-27_20h09.34.094,VH_v3,2023.2.3,Win32,60.0240096,,,,,,,,,,,,811.242,812.24,,,,,,,,,,,,,,,,,,,,,,,,,,812.24,812.773,z,1,0.513,,812.773,812.773,,0,274,274,257,1,258,dulom,,,,,5,harmonic,2.3,nw,z,,,,,,,
,,oltan,1,2023-11-27_20h09.34.094,VH_v3,2023.2.3,Win32,60.0240096,,,,,,,,,,,,812.774,813.773,,,,,,,,,,,,,,,,,,,,,,,,,,813.773,814.373,z,1,0.581,,814.373,814.373,,0,275,275,221,1,222,ülük,,,,,4,harmonic,1.55,nw,z,,,,,,,
,,oltan,1,2023-11-27_20h09.34.094,VH_v3,2023.2.3,Win32,60.0240096,,,,,,,,,,,,814.374,815.373,,,,,,,,,,,,,,,,,,,,,,,,,,815.373,815.822,m,1,0.432,,815.822,815.822,,0,276,276,96,1,97,mutlu,11447,520.1063,10279,1.1237,5,harmonic,,word,m,,,,,,,
,,oltan,1,2023-11-27_20h09.34.094,VH_v3,2023.2.3,Win32,60.0240096,,,,,,,,,,,,815.823,816.822,,,,,,,,,,,,,,,,,,,,,,,,,,816.822,817.354,z,1,0.518,,817.354,817.355,,0,277,277,312,1,313,izmal,,,,,5,notharmonic,1.8,nw,z,,,,,,,
,,oltan,1,2023-11-27_20h09.34.094,VH_v3,2023.2.3,Win32,60.0240096,,,,,,,,,,,,817.357,818.354,,,,,,,,,,,,,,,,,,,,,,,,,,818.354,819.154,z,1,0.781,,819.154,819.155,,0,278,278,252,1,253,savanı,,,,,6,harmonic,1.85,nw,z,,,,,,,
,,oltan,1,2023-11-27_20h09.34.094,VH_v3,2023.2.3,Win32,60.0240096,,,,,,,,,,,,819.155,820.153,,,,,,,,,,,,,,,,,,,,,,,,,,820.153,820.687,m,1,0.517,,820.687,820.687,,0,279,279,174,1,175,hayran,1171,53.2056,1073,0.1173,6,harmonic,,word,m,,,,,,,
,,oltan,1,2023-11-27_20h09.34.094,VH_v3,2023.2.3,Win32,60.0240096,,,,,,,,,,,,820.687,821.686,,,,,,,,,,,,,,,,,,,,,,,,,,821.686,822.27,z,1,0.567,,822.27,822.27,,0,280,280,188,1,189,hüyen,,,,,5,harmonic,2,nw,z,,,,,,,
,,oltan,1,2023-11-27_20h09.34.094,VH_v3,2023.2.3,Win32,60.0240096,,,,,,,,,,,,822.27,823.269,,,,,,,,,,,,,,,,,,,,,,,,,,823.269,823.835,z,1,0.555,,823.835,823.835,,0,281,281,212,1,213,toya,,,,,4,harmonic,1.6,nw,z,,,,,,,
,,oltan,1,2023-11-27_20h09.34.094,VH_v3,2023.2.3,Win32,60.0240096,,,,,,,,,,,,823.835,824.835,,,,,,,,,,,,,,,,,,,,,,,,,,824.835,825.468,z,1,0.618,,825.468,825.468,,0,282,282,185,1,186,bebin,,,,,5,harmonic,1.7,nw,z,,,,,,,
,,oltan,1,2023-11-27_20h09.34.094,VH_v3,2023.2.3,Win32,60.0240096,,,,,,,,,,,,825.468,826.469,,,,,,,,,,,,,,,,,,,,,,,,,,826.47,826.934,m,1,0.45,,826.934,826.935,,0,283,283,151,1,152,uzak,4809,218.5019,4564,0.4989,4,harmonic,,word,m,,,,,,,
,,oltan,1,2023-11-27_20h09.34.094,VH_v3,2023.2.3,Win32,60.0240096,,,,,,,,,,,,826.939,827.933,,,,,,,,,,,,,,,,,,,,,,,,,,827.933,828.75,m,1,0.796,,828.75,828.75,,0,284,284,23,1,24,kurum,986,44.7999,882,0.0964,5,harmonic,1.75,word,m,,,,,,,
,,oltan,1,2023-11-27_20h09.34.094,VH_v3,2023.2.3,Win32,60.0240096,,,,,,,,,,,,828.751,829.749,,,,,,,,,,,,,,,,,,,,,,,,,,829.749,830.365,m,1,0.598,,830.365,830.365,,0,285,285,53,1,54,gelir,7578,344.3143,7014,0.7668,5,harmonic,1.4,word,m,,,,,,,
,,oltan,1,2023-11-27_20h09.34.094,VH_v3,2023.2.3,Win32,60.0240096,,,,,,,,,,,,830.367,831.365,,,,,,,,,,,,,,,,,,,,,,,,,,831.366,831.898,z,1,0.521,,831.898,831.898,,0,286,286,301,1,302,meyav,,,,,5,notharmonic,1.85,nw,z,,,,,,,
,,oltan,1,2023-11-27_20h09.34.094,VH_v3,2023.2.3,Win32,60.0240096,,,,,,,,,,,,831.899,832.898,,,,,,,,,,,,,,,,,,,,,,,,,,832.898,833.564,z,1,0.651,,833.564,833.564,,0,287,287,300,1,301,iştal,,,,,5,notharmonic,1.8,nw,z,,,,,,,
,,oltan,1,2023-11-27_20h09.34.094,VH_v3,2023.2.3,Win32,60.0240096,,,,,,,,,,,,833.565,834.564,,,,,,,,,,,,,,,,,,,,,,,,,,834.564,835.213,m,0,0.632,,835.214,835.214,,0,288,288,214,1,215,yapa,,,,,4,harmonic,1,nw,z,,,,,,,
,,oltan,1,2023-11-27_20h09.34.094,VH_v3,2023.2.3,Win32,60.0240096,,,,,,,,,,,,835.215,836.213,,,,,,,,,,,,,,,,,,,,,,,,,,836.213,836.83,z,1,0.598,,836.83,836.83,,0,289,289,290,1,291,nüda,,,,,4,notharmonic,1.9,nw,z,,,,,,,
,,oltan,1,2023-11-27_20h09.34.094,VH_v3,2023.2.3,Win32,60.0240096,,,,,,,,,,,,836.831,837.828,,,,,,,,,,,,,,,,,,,,,,,,,,837.828,838.512,m,1,0.667,,838.512,838.512,,0,290,290,2,1,3,radyo,763,34.6677,636,0.0695,5,harmonic,1.85,word,m,,,,,,,
,,oltan,1,2023-11-27_20h09.34.094,VH_v3,2023.2.3,Win32,60.0240096,,,,,,,,,,,,838.512,839.511,,,,,,,,,,,,,,,,,,,,,,,,,,839.511,840.045,m,1,0.518,,840.045,840.045,,0,291,291,68,1,69,ücret,734,33.35,634,0.0693,5,harmonic,1.85,word,m,,,,,,,
,,oltan,1,2023-11-27_20h09.34.094,VH_v3,2023.2.3,Win32,60.0240096,,,,,,,,,,,,840.045,841.045,,,,,,,,,,,,,,,,,,,,,,,,,,841.045,841.444,m,1,0.383,,841.444,841.444,,0,292,292,19,1,20,ödül,1063,48.2985,926,0.1012,4,harmonic,1.7,word,m,,,,,,,
,,oltan,1,2023-11-27_20h09.34.094,VH_v3,2023.2.3,Win32,60.0240096,,,,,,,,,,,,841.446,842.444,,,,,,,,,,,,,,,,,,,,,,,,,,842.444,842.893,m,1,0.433,,842.893,842.893,,0,293,293,52,1,53,resim,2506,113.8627,2188,0.2392,5,harmonic,1.4,word,m,,,,,,,
,,oltan,1,2023-11-27_20h09.34.094,VH_v3,2023.2.3,Win32,60.0240096,,,,,,,,,,,,842.895,843.893,,,,,,,,,,,,,,,,,,,,,,,,,,843.893,844.509,z,1,0.6,,844.509,844.509,,0,294,294,225,1,226,sakam,,,,,5,harmonic,1.45,nw,z,,,,,,,
,,oltan,1,2023-11-27_20h09.34.094,VH_v3,2023.2.3,Win32,60.0240096,,,,,,,,,,,,844.51,845.509,,,,,,,,,,,,,,,,,,,,,,,,,,845.509,845.941,m,1,0.422,,845.941,845.943,,0,295,295,148,1,149,ışık,1814,82.421,1635,0.1787,4,harmonic,,word,m,,,,,,,
,,oltan,1,2023-11-27_20h09.34.094,VH_v3,2023.2.3,Win32,60.0240096,,,,,,,,,,,,845.943,846.942,,,,,,,,,,,,,,,,,,,,,,,,,,846.942,847.374,m,1,0.416,,847.374,847.374,,0,296,296,104,1,105,çizgi,1340,60.8843,1074,0.1174,5,harmonic,,word,m,,,,,,,
,,oltan,1,2023-11-27_20h09.34.094,VH_v3,2023.2.3,Win32,60.0240096,,,,,,,,,,,,847.375,848.374,,,,,,,,,,,,,,,,,,,,,,,,,,848.374,848.924,z,1,0.532,,848.924,848.924,,0,297,297,307,1,308,masil,,,,,5,notharmonic,1.65,nw,z,,,,,,,
,,oltan,1,2023-11-27_20h09.34.094,VH_v3,2023.2.3,Win32,60.0240096,,,,,,,,,,,,848.925,849.923,,,,,,,,,,,,,,,,,,,,,,,,,,849.924,850.323,m,1,0.381,,850.323,850.324,,0,298,298,1,1,2,erkek,6188,281.1582,5195,0.5679,5,harmonic,1.65,word,m,,,,,,,
,,oltan,1,2023-11-27_20h09.34.094,VH_v3,2023.2.3,Win32,60.0240096,,,,,,,,,,,,850.325,851.323,,,,,,,,,,,,,,,,,,,,,,,,,,851.323,851.906,m,1,0.567,,851.906,851.906,,0,299,299,126,1,127,ciddi,4147,188.4232,3686,0.403,5,harmonic,,word,m,,,,,,,
,,oltan,1,2023-11-27_20h09.34.094,VH_v3,2023.2.3,Win32,60.0240096,,,,,,,,,,,,851.906,852.905,,,,,,,,,,,,,,,,,,,,,,,,,,852.905,853.472,z,1,0.551,,853.472,853.472,,0,300,300,359,1,360,hisaye,,,,,6,notharmonic,,nw,z,,,,,,,
,,oltan,1,2023-11-27_20h09.34.094,VH_v3,2023.2.3,Win32,60.0240096,,,,,,,,,,,,853.472,854.471,,,,,,,,,,,,,,,,,,,,,,,,,,854.471,855.788,z,1,1.305,,855.788,855.788,,0,301,301,195,1,196,habaş,,,,,5,harmonic,1.95,nw,z,,,,,,,
,,oltan,1,2023-11-27_20h09.34.094,VH_v3,2023.2.3,Win32,60.0240096,,,,,,,,,,,,855.789,856.787,,,,,,,,,,,,,,,,,,,,,,,,,,856.787,857.336,m,1,0.534,,857.336,857.337,,0,302,302,100,1,101,zayıf,1359,61.7476,1285,0.1405,5,harmonic,,word,m,,,,,,,
,,oltan,1,2023-11-27_20h09.34.094,VH_v3,2023.2.3,Win32,60.0240096,,,,,,,,,,,,857.338,858.336,,,,,,,,,,,,,,,,,,,,,,,,,,858.336,858.803,z,1,0.449,,858.803,858.803,,0,303,303,289,1,290,minkon,,,,,6,notharmonic,2.2,nw,z,,,,,,,
,,oltan,1,2023-11-27_20h09.34.094,VH_v3,2023.2.3,Win32,60.0240096,,,,,,,,,,,,858.803,859.804,,,,,,,,,,,,,,,,,,,,,,,,,,859.805,860.403,z,1,0.581,,860.403,860.404,,0,304,304,259,1,260,üreyeş,,,,,6,harmonic,2.9,nw,z,,,,,,,
,,oltan,1,2023-11-27_20h09.34.094,VH_v3,2023.2.3,Win32,60.0240096,,,,,,,,,,,,860.408,861.402,,,,,,,,,,,,,,,,,,,,,,,,,,861.402,862.068,z,1,0.648,,862.068,862.068,,0,305,305,349,1,350,mane,,,,,4,notharmonic,1.45,nw,z,,,,,,,
,,oltan,1,2023-11-27_20h09.34.094,VH_v3,2023.2.3,Win32,60.0240096,,,,,,,,,,,,862.069,863.068,,,,,,,,,,,,,,,,,,,,,,,,,,863.068,863.784,z,1,0.698,,863.784,863.784,,0,306,306,230,1,231,redem,,,,,5,harmonic,2,nw,z,,,,,,,
,,oltan,1,2023-11-27_20h09.34.094,VH_v3,2023.2.3,Win32,60.0240096,,,,,,,,,,,,863.787,864.783,,,,,,,,,,,,,,,,,,,,,,,,,,864.783,865.267,m,1,0.465,,865.267,865.267,,0,307,307,162,1,163,destek,3328,151.2111,3065,0.3351,6,harmonic,,word,m,,,,,,,
,,oltan,1,2023-11-27_20h09.34.094,VH_v3,2023.2.3,Win32,60.0240096,,,,,,,,,,,,865.268,866.266,,,,,,,,,,,,,,,,,,,,,,,,,,866.266,866.749,z,1,0.465,,866.749,866.749,,0,308,308,309,1,310,yanele,,,,,6,notharmonic,1.85,nw,z,,,,,,,
,,oltan,1,2023-11-27_20h09.34.094,VH_v3,2023.2.3,Win32,60.0240096,,,,,,,,,,,,866.75,867.749,,,,,,,,,,,,,,,,,,,,,,,,,,867.749,868.215,m,1,0.446,,868.215,868.215,,0,309,309,70,1,71,yarın,3440,156.3,3222,0.3522,5,harmonic,1.85,word,m,,,,,,,
,,oltan,1,2023-11-27_20h09.34.094,VH_v3,2023.2.3,Win32,60.0240096,,,,,,,,,,,,868.217,869.215,,,,,,,,,,,,,,,,,,,,,,,,,,869.215,869.698,z,1,0.464,,869.698,869.698,,0,310,310,355,1,356,daneta,,,,,6,notharmonic,2.4,nw,z,,,,,,,
,,oltan,1,2023-11-27_20h09.34.094,VH_v3,2023.2.3,Win32,60.0240096,,,,,,,,,,,,869.699,870.697,,,,,,,,,,,,,,,,,,,,,,,,,,870.697,871.281,z,1,0.565,,871.281,871.281,,0,311,311,328,1,329,tadit,,,,,5,notharmonic,1.8,nw,z,,,,,,,
,,oltan,1,2023-11-27_20h09.34.094,VH_v3,2023.2.3,Win32,60.0240096,,,,,,,,,,,,871.282,872.279,,,,,,,,,,,,,,,,,,,,,,,,,,872.279,872.83,z,1,0.53,,872.83,872.83,,0,312,312,222,1,223,çetiş,,,,,5,harmonic,1.7,nw,z,,,,,,,
,,oltan,1,2023-11-27_20h09.34.094,VH_v3,2023.2.3,Win32,60.0240096,,,,,,,,,,,,872.831,873.829,,,,,,,,,,,,,,,,,,,,,,,,,,873.829,874.429,z,1,0.582,,874.429,874.429,,0,313,313,344,1,345,adalüt,,,,,6,notharmonic,,nw,z,,,,,,,
,,oltan,1,2023-11-27_20h09.34.094,VH_v3,2023.2.3,Win32,60.0240096,,,,,,,,,,,,874.43,875.429,,,,,,,,,,,,,,,,,,,,,,,,,,875.429,876.028,m,1,0.581,,876.028,876.028,,0,314,314,122,1,123,sorun,4653,211.4139,4296,0.4696,5,harmonic,,word,m,,,,,,,
,,oltan,1,2023-11-27_20h09.34.094,VH_v3,2023.2.3,Win32,60.0240096,,,,,,,,,,,,876.029,877.028,,,,,,,,,,,,,,,,,,,,,,,,,,877.028,877.461,m,1,0.414,,877.461,877.461,,0,315,315,71,1,72,örnek,3463,157.345,3266,0.357,5,harmonic,1.85,word,m,,,,,,,
,,oltan,1,2023-11-27_20h09.34.094,VH_v3,2023.2.3,Win32,60.0240096,,,,,,,,,,,,877.461,878.46,,,,,,,,,,,,,,,,,,,,,,,,,,878.46,879.193,m,1,0.721,,879.193,879.194,,0,316,316,50,1,51,kanun,1198,54.4324,1010,0.1104,5,harmonic,1.6,word,m,,,,,,,
,,oltan,1,2023-11-27_20h09.34.094,VH_v3,2023.2.3,Win32,60.0240096,,,,,,,,,,,,879.194,880.193,,,,,,,,,,,,,,,,,,,,,,,,,,880.193,880.776,z,1,0.566,,880.776,880.776,,0,317,317,348,1,349,minsar,,,,,6,notharmonic,2,nw,z,,,,,,,
,,oltan,1,2023-11-27_20h09.34.094,VH_v3,2023.2.3,Win32,60.0240096,,,,,,,,,,,,880.777,881.776,,,,,,,,,,,,,,,,,,,,,,,,,,881.776,882.292,m,1,0.497,,882.292,882.293,,0,318,318,167,1,168,yoğurt,1484,67.4271,1359,0.1486,6,harmonic,,word,m,,,,,,,
,,oltan,1,2023-11-27_20h09.34.094,VH_v3,2023.2.3,Win32,60.0240096,,,,,,,,,,,,882.293,883.291,,,,,,,,,,,,,,,,,,,,,,,,,,883.291,883.808,m,0,0.498,,883.808,883.808,,0,319,319,193,1,194,şıkta,,,,,5,harmonic,2,nw,z,,,,,,,
,,oltan,1,2023-11-27_20h09.34.094,VH_v3,2023.2.3,Win32,60.0240096,,,,,,,,,,,,883.808,884.807,,,,,,,,,,,,,,,,,,,,,,,,,,884.807,885.324,z,0,0.501,,885.324,885.325,,0,320,320,106,1,107,sağlık,8866,402.8359,8289,0.9062,5,harmonic,,word,m,,,,,,,
,,oltan,1,2023-11-27_20h09.34.094,VH_v3,2023.2.3,Win32,60.0240096,,,,,,,,,,,,885.325,886.323,,,,,,,,,,,,,,,,,,,,,,,,,,886.323,886.89,z,1,0.548,,886.89,886.89,,0,321,321,313,1,314,hahih,,,,,5,notharmonic,1.95,nw,z,,,,,,,
,,oltan,1,2023-11-27_20h09.34.094,VH_v3,2023.2.3,Win32,60.0240096,,,,,,,,,,,,886.891,887.89,,,,,,,,,,,,,,,,,,,,,,,,,,887.89,888.756,z,1,0.847,,888.756,888.756,,0,322,322,294,1,295,fiyan,,,,,5,notharmonic,1.65,nw,z,,,,,,,
,,oltan,1,2023-11-27_20h09.34.094,VH_v3,2023.2.3,Win32,60.0240096,,,,,,,,,,,,888.757,889.755,,,,,,,,,,,,,,,,,,,,,,,,,,889.756,890.306,z,1,0.531,,890.306,890.306,,0,323,323,256,1,257,ulosız,,,,,6,harmonic,3,nw,z,,,,,,,
,,oltan,1,2023-11-27_20h09.34.094,VH_v3,2023.2.3,Win32,60.0240096,,,,,,,,,,,,890.306,891.305,,,,,,,,,,,,,,,,,,,,,,,,,,891.305,891.804,m,1,0.488,,891.805,891.805,,0,324,324,172,1,173,halka,1196,54.3415,1014,0.1109,6,harmonic,,word,m,,,,,,,
,,oltan,1,2023-11-27_20h09.34.094,VH_v3,2023.2.3,Win32,60.0240096,,,,,,,,,,,,891.805,892.804,,,,,,,,,,,,,,,,,,,,,,,,,,892.804,893.307,m,1,0.481,,893.308,893.308,,0,325,325,67,1,68,bayram,1948,88.5094,1648,0.1802,6,harmonic,1.85,word,m,,,,,,,
,,oltan,1,2023-11-27_20h09.34.094,VH_v3,2023.2.3,Win32,60.0240096,,,,,,,,,,,,893.309,894.304,,,,,,,,,,,,,,,,,,,,,,,,,,894.304,894.82,m,1,0.496,,894.82,894.821,,0,326,326,168,1,169,peynir,1421,64.5646,1248,0.1364,6,harmonic,,word,m,,,,,,,
,,oltan,1,2023-11-27_20h09.34.094,VH_v3,2023.2.3,Win32,60.0240096,,,,,,,,,,,,894.822,895.819,,,,,,,,,,,,,,,,,,,,,,,,,,895.819,896.253,m,1,0.415,,896.253,896.253,,0,327,327,28,1,29,parlak,1142,51.888,1088,0.1189,6,harmonic,1.7,word,m,,,,,,,
,,oltan,1,2023-11-27_20h09.34.094,VH_v3,2023.2.3,Win32,60.0240096,,,,,,,,,,,,896.254,897.253,,,,,,,,,,,,,,,,,,,,,,,,,,897.253,897.785,z,1,0.513,,897.786,897.786,,0,328,328,202,1,203,kulom,,,,,5,harmonic,2,nw,z,,,,,,,
,,oltan,1,2023-11-27_20h09.34.094,VH_v3,2023.2.3,Win32,60.0240096,,,,,,,,,,,,897.787,898.785,,,,,,,,,,,,,,,,,,,,,,,,,,898.785,899.285,m,1,0.481,,899.285,899.285,,0,329,329,131,1,132,derin,3689,167.6135,3328,0.3638,5,harmonic,,word,m,,,,,,,
,,oltan,1,2023-11-27_20h09.34.094,VH_v3,2023.2.3,Win32,60.0240096,,,,,,,,,,,,899.286,900.284,,,,,,,,,,,,,,,,,,,,,,,,,,900.284,900.9,m,1,0.605,,900.901,900.901,,0,330,330,92,1,93,büyük,32406,1472.4001,28224,3.0855,5,harmonic,,word,m,,,,,,,
,,oltan,1,2023-11-27_20h09.34.094,VH_v3,2023.2.3,Win32,60.0240096,,,,,,,,,,,,900.903,901.9,,,,,,,,,,,,,,,,,,,,,,,,,,901.9,902.516,z,1,0.597,,902.516,902.516,,0,331,331,346,1,347,mamit,,,,,5,notharmonic,1.85,nw,z,,,,,,,
,,oltan,1,2023-11-27_20h09.34.094,VH_v3,2023.2.3,Win32,60.0240096,,,,,,,,,,,,902.517,903.516,,,,,,,,,,,,,,,,,,,,,,,,,,903.516,903.949,m,1,0.422,,903.949,903.949,,0,332,332,30,1,31,çevre,1662,75.5147,1409,0.154,5,harmonic,1.55,word,m,,,,,,,
,,oltan,1,2023-11-27_20h09.34.094,VH_v3,2023.2.3,Win32,60.0240096,,,,,,,,,,,,903.95,904.949,,,,,,,,,,,,,,,,,,,,,,,,,,904.949,905.515,m,1,0.548,,905.515,905.515,,0,333,333,111,1,112,soğan,1315,59.7484,1202,0.1314,5,harmonic,,word,m,,,,,,,
,,oltan,1,2023-11-27_20h09.34.094,VH_v3,2023.2.3,Win32,60.0240096,,,,,,,,,,,,905.516,906.514,,,,,,,,,,,,,,,,,,,,,,,,,,906.514,906.931,m,1,0.4,,906.931,906.931,,0,334,334,86,1,87,gerçek,8983,408.1519,8058,0.8809,6,harmonic,1.7,word,m,,,,,,,
,,oltan,1,2023-11-27_20h09.34.094,VH_v3,2023.2.3,Win32,60.0240096,,,,,,,,,,,,906.933,907.931,,,,,,,,,,,,,,,,,,,,,,,,,,907.931,908.397,z,1,0.447,,908.397,908.397,,0,335,335,198,1,199,ıdol,,,,,4,harmonic,1.9,nw,z,,,,,,,
,,oltan,1,2023-11-27_20h09.34.094,VH_v3,2023.2.3,Win32,60.0240096,,,,,,,,,,,,908.398,909.397,,,,,,,,,,,,,,,,,,,,,,,,,,909.397,909.879,m,1,0.47,,909.879,909.879,,0,336,336,121,1,122,şeker,4708,213.9128,4170,0.4559,5,harmonic,,word,m,,,,,,,
,,oltan,1,2023-11-27_20h09.34.094,VH_v3,2023.2.3,Win32,60.0240096,,,,,,,,,,,,909.88,910.879,,,,,,,,,,,,,,,,,,,,,,,,,,910.879,911.529,z,1,0.631,,911.529,911.529,,0,337,337,336,1,337,zanit,,,,,5,notharmonic,1.85,nw,z,,,,,,,
,,oltan,1,2023-11-27_20h09.34.094,VH_v3,2023.2.3,Win32,60.0240096,,,,,,,,,,,,911.53,912.529,,,,,,,,,,,,,,,,,,,,,,,,,,912.529,913.061,m,1,0.515,,913.061,913.061,,0,338,338,120,1,121,doğal,4821,219.0471,4328,0.4731,5,harmonic,,word,m,,,,,,,
,,oltan,1,2023-11-27_20h09.34.094,VH_v3,2023.2.3,Win32,60.0240096,,,,,,,,,,,,913.062,914.061,,,,,,,,,,,,,,,,,,,,,,,,,,914.061,914.528,z,1,0.448,,914.528,914.528,,0,339,339,351,1,352,eula,,,,,4,notharmonic,1.65,nw,z,,,,,,,
,,oltan,1,2023-11-27_20h09.34.094,VH_v3,2023.2.3,Win32,60.0240096,,,,,,,,,,,,914.528,915.527,,,,,,,,,,,,,,,,,,,,,,,,,,915.527,916.01,m,1,0.464,,916.01,916.01,,0,340,340,97,1,98,kadın,10751,488.4828,8665,0.9473,5,harmonic,,word,m,,,,,,,
,,oltan,1,2023-11-27_20h09.34.094,VH_v3,2023.2.3,Win32,60.0240096,,,,,,,,,,,,916.011,917.01,,,,,,,,,,,,,,,,,,,,,,,,,,917.01,917.626,z,1,0.598,,917.626,917.626,,0,341,341,272,1,273,sakke,,,,,5,notharmonic,1.85,nw,z,,,,,,,
,,oltan,1,2023-11-27_20h09.34.094,VH_v3,2023.2.3,Win32,60.0240096,,,,,,,,,,,,917.626,918.626,,,,,,,,,,,,,,,,,,,,,,,,,,918.626,919.159,m,1,0.522,,919.159,919.159,,0,342,342,114,1,115,türlü,7010,318.5066,6559,0.717,5,harmonic,,word,m,,,,,,,
,,oltan,1,2023-11-27_20h09.34.094,VH_v3,2023.2.3,Win32,60.0240096,,,,,,,,,,,,919.159,920.158,,,,,,,,,,,,,,,,,,,,,,,,,,920.158,921.074,m,1,0.897,,921.075,921.075,,0,343,343,20,1,21,nefes,2871,130.4469,2553,0.2791,5,harmonic,1.8,word,m,,,,,,,
,,oltan,1,2023-11-27_20h09.34.094,VH_v3,2023.2.3,Win32,60.0240096,,,,,,,,,,,,921.075,922.074,,,,,,,,,,,,,,,,,,,,,,,,,,922.074,922.607,m,1,0.515,,922.608,922.608,,0,344,344,101,1,102,kabul,10003,454.4967,9014,0.9854,5,harmonic,,word,m,,,,,,,
,,oltan,1,2023-11-27_20h09.34.094,VH_v3,2023.2.3,Win32,60.0240096,,,,,,,,,,,,922.608,923.607,,,,,,,,,,,,,,,,,,,,,,,,,,923.607,924.257,z,1,0.632,,924.257,924.257,,0,345,345,182,1,183,rafto,,,,,5,harmonic,2,nw,z,,,,,,,
,,oltan,1,2023-11-27_20h09.34.094,VH_v3,2023.2.3,Win32,60.0240096,,,,,,,,,,,,924.258,925.256,,,,,,,,,,,,,,,,,,,,,,,,,,925.256,926.089,z,1,0.814,,926.089,926.089,,0,346,346,183,1,184,titik,,,,,5,harmonic,1.7,nw,z,,,,,,,
,,oltan,1,2023-11-27_20h09.34.094,VH_v3,2023.2.3,Win32,60.0240096,,,,,,,,,,,,926.091,927.09,,,,,,,,,,,,,,,,,,,,,,,,,,927.091,927.624,m,1,0.52,,927.625,927.626,,0,347,347,35,1,36,hava,4975,226.0443,4398,0.4808,4,harmonic,1,word,m,,,,,,,
,,oltan,1,2023-11-27_20h09.34.094,VH_v3,2023.2.3,Win32,60.0240096,,,,,,,,,,,,927.627,928.621,,,,,,,,,,,,,,,,,,,,,,,,,,928.622,929.271,z,1,0.636,,929.271,929.271,,0,348,348,205,1,206,sefbe,,,,,5,harmonic,2,nw,z,,,,,,,
,,oltan,1,2023-11-27_20h09.34.094,VH_v3,2023.2.3,Win32,60.0240096,,,,,,,,,,,,929.272,930.27,,,,,,,,,,,,,,,,,,,,,,,,,,930.27,930.737,m,1,0.455,,930.737,930.737,,0,349,349,44,1,45,kayıt,1234,56.0681,1058,0.1157,5,harmonic,1.35,word,m,,,,,,,
,,oltan,1,2023-11-27_20h09.34.094,VH_v3,2023.2.3,Win32,60.0240096,,,,,,,,,,,,930.738,931.737,,,,,,,,,,,,,,,,,,,,,,,,,,931.737,932.369,m,1,0.613,,932.369,932.369,,0,350,350,113,1,114,akşam,7480,339.8615,6833,0.747,5,harmonic,,word,m,,,,,,,
,,oltan,1,2023-11-27_20h09.34.094,VH_v3,2023.2.3,Win32,60.0240096,,,,,,,,,,,,932.371,933.369,,,,,,,,,,,,,,,,,,,,,,,,,,933.369,933.969,z,1,0.586,,933.969,933.969,,0,351,351,353,1,354,medrar,,,,,6,notharmonic,2.05,nw,z,,,,,,,
,,oltan,1,2023-11-27_20h09.34.094,VH_v3,2023.2.3,Win32,60.0240096,,,,,,,,,,,,933.97,934.968,,,,,,,,,,,,,,,,,,,,,,,,,,934.968,935.435,m,1,0.447,,935.435,935.435,,0,352,352,27,1,28,bölge,1283,58.2944,1123,0.1228,5,harmonic,1.65,word,m,,,,,,,
,,oltan,1,2023-11-27_20h09.34.094,VH_v3,2023.2.3,Win32,60.0240096,,,,,,,,,,,,935.436,936.434,,,,,,,,,,,,,,,,,,,,,,,,,,936.434,936.984,m,1,0.534,,936.984,936.984,,0,353,353,24,1,25,yorgun,1153,52.3877,1108,0.1211,6,harmonic,1.55,word,m,,,,,,,
,,oltan,1,2023-11-27_20h09.34.094,VH_v3,2023.2.3,Win32,60.0240096,,,,,,,,,,,,936.986,937.983,,,,,,,,,,,,,,,,,,,,,,,,,,937.983,938.633,z,1,0.632,,938.633,938.634,,0,354,354,286,1,287,elsaf,,,,,5,notharmonic,1.9,nw,z,,,,,,,
,,oltan,1,2023-11-27_20h09.34.094,VH_v3,2023.2.3,Win32,60.0240096,,,,,,,,,,,,938.636,939.633,,,,,,,,,,,,,,,,,,,,,,,,,,939.633,940.133,m,1,0.481,,940.133,940.133,,0,355,355,139,1,140,okul,2685,121.9958,2381,0.2603,4,harmonic,,word,m,,,,,,,
,,oltan,1,2023-11-27_20h09.34.094,VH_v3,2023.2.3,Win32,60.0240096,,,,,,,,,,,,940.136,941.133,,,,,,,,,,,,,,,,,,,,,,,,,,941.133,941.648,m,1,0.501,,941.648,941.649,,0,356,356,87,1,88,mümkün,6604,300.0596,6264,0.6848,6,harmonic,1.9,word,m,,,,,,,
,,oltan,1,2023-11-27_20h09.34.094,VH_v3,2023.2.3,Win32,60.0240096,,,,,,,,,,,,941.65,942.648,,,,,,,,,,,,,,,,,,,,,,,,,,942.648,943.298,z,1,0.631,,943.298,943.298,,0,357,357,181,1,182,erben,,,,,5,harmonic,1.8,nw,z,,,,,,,
,,oltan,1,2023-11-27_20h09.34.094,VH_v3,2023.2.3,Win32,60.0240096,,,,,,,,,,,,943.3,944.298,,,,,,,,,,,,,,,,,,,,,,,,,,944.298,944.748,m,1,0.431,,944.748,944.748,,0,358,358,132,1,133,soğuk,3676,167.0229,3359,0.3672,5,harmonic,,word,m,,,,,,,
,,oltan,1,2023-11-27_20h09.34.094,VH_v3,2023.2.3,Win32,60.0240096,,,,,,,,,,,,944.75,945.747,,,,,,,,,,,,,,,,,,,,,,,,,,945.747,946.33,z,1,0.564,,946.33,946.33,,0,359,359,277,1,278,melbut,,,,,6,notharmonic,1.95,nw,z,,,,,,,
,,oltan,1,2023-11-27_20h09.34.094,VH_v3,2023.2.3,Win32,60.0240096,,,,,,,,,,,,,,,,,,,,,,,,,,,,,,,,,,,,,,,,,,,,,,,,,,,,,,,,,,,,,,,,,,946.33,947.979,space,1.634,