anket.started,anket.stopped,participant,session,date,expName,psychopyVersion,OS,frameRate,Welcome_screen.started,Welcome_screen.stopped,key_respwelcome.keys,key_respwelcome.rt,key_respwelcome.duration,intro_x.thisRepN,intro_x.thisTrialN,intro_x.thisN,intro_x.thisIndex,intro_x.ran,Introduction,Fixation.started,Fixation.stopped,Studypractice.started,Studypractice.stopped,key_respstudy.keys,key_respstudy.corr,key_respstudy.rt,key_respstudy.duration,rt,corr,Feedback.started,Feedback.stopped,practice_loop.thisRepN,practice_loop.thisTrialN,practice_loop.thisN,practice_loop.thisIndex,practice_loop.ran,item_nr_p,target_p,isHarmonic_p,target_cond_p,CorrAns_p,Instraction.started,Instraction.stopped,key_respınstraction.keys,key_respınstraction.rt,key_respınstraction.duration,TestTrial.started,TestTrial.stopped,key_respTest.keys,key_respTest.corr,key_respTest.rt,key_respTest.duration,Pause.started,Pause.stopped,key_resp_xx.keys,test_loop.thisRepN,test_loop.thisTrialN,test_loop.thisN,test_loop.thisIndex,test_loop.ran,item_nr,target,BlogFreq_A1,BlogFreqpm_A1,BlogCD_A1,BlogCDPc_A1,WordLength_A1,isHarmonic_A1,old20,target_cond,CorrAns,key_resp_xx.rt,key_resp_xx.duration,Goodbye_screen.started,Goodbye_screen.stopped,key_respgoodbye.keys,key_respgoodbye.rt,key_respgoodbye.duration
0.001,0.001,,,2023-11-28_19h16.50.972,VH_v3,2023.2.3,iPad,55.55555556,,,,,,,,,,,,,,,,,,,,,,,,,,,,,,,,,,,,,,,,,,,,,,,,,,,,,,,,,,,,,,,,,,,,,,
,,,,2023-11-28_19h16.50.972,VH_v3,2023.2.3,iPad,55.55555556,0.011,5.358,space,5.314,,0,0,0,0,1,"Deneye hoş geldiniz,

Devam etmek için BOŞLUK tuşuna basınız.",,,,,,,,,,,,,,,,,,,,,,,,,,,,,,,,,,,,,,,,,,,,,,,,,,,,,,,,,,,
,,,,2023-11-28_19h16.50.972,VH_v3,2023.2.3,iPad,55.55555556,5.359,10.365,space,4.987,,0,1,1,1,1,"Bu çalışma Valencia Üniversitesi kapsamında yürütülmektedir. Deneydeki göreviniz, ekrana çıkacak Türkçe sözcüklerin kelime olup olmadığını belirlemenizdir. Eğer sözcük gerçek bir kelime ise ""m"" tuşuna, değil ise ""z"" tuşuna basınız.   

Devam etmek için BOŞLUK tuşuna basınız.",,,,,,,,,,,,,,,,,,,,,,,,,,,,,,,,,,,,,,,,,,,,,,,,,,,,,,,,,,,
,,,,2023-11-28_19h16.50.972,VH_v3,2023.2.3,iPad,55.55555556,10.366,11.899,space,1.504,,0,2,2,2,1,"Her sözcük için en fazla iki saniyede cevap vermeniz beklenmektedir. Aksi takdirde deney bir sonraki sözcük ile devam eder. 
Bu çalışmada oldukça hızlı ve doğru cevaplama yapmanız beklenmektedir.

Devam etmek için BOŞLUK tuşuna basınız.",,,,,,,,,,,,,,,,,,,,,,,,,,,,,,,,,,,,,,,,,,,,,,,,,,,,,,,,,,,
,,,,2023-11-28_19h16.50.972,VH_v3,2023.2.3,iPad,55.55555556,11.899,14.117,space,2.188,,0,3,3,3,1,"Çalışmaya başlamadan önce ufak bir pratik yer almaktadır.
Kelimedir: ""m""
Kelime değildir: ""z""

Pratik teste başlamak için BOŞLUK tuşuna basınız. ",,,,,,,,,,,,,,,,,,,,,,,,,,,,,,,,,,,,,,,,,,,,,,,,,,,,,,,,,,,
,,,,2023-11-28_19h16.50.972,VH_v3,2023.2.3,iPad,55.55555556,,,,,,,,,,,,14.132,15.129,15.129,34.911,z,1,19.762,,19.762,1,34.911,36.404,0,0,0,23,1,24,zarim,notharmonic,nw,z,,,,,,,,,,,,,,,,,,,,,,,,,,,,,,,,,,,,,
,,,,2023-11-28_19h16.50.972,VH_v3,2023.2.3,iPad,55.55555556,,,,,,,,,,,,36.406,37.404,37.404,38.521,m,1,1.102,,1.102,1,38.521,40.022,0,1,1,3,1,4,sevgi,harmonic,word,m,,,,,,,,,,,,,,,,,,,,,,,,,,,,,,,,,,,,,
,,,,2023-11-28_19h16.50.972,VH_v3,2023.2.3,iPad,55.55555556,,,,,,,,,,,,40.023,41.022,41.023,41.53,m,1,0.492,,0.492,1,41.53,43.023,0,2,2,5,1,6,gizli,harmonic,word,m,,,,,,,,,,,,,,,,,,,,,,,,,,,,,,,,,,,,,
,,,,2023-11-28_19h16.50.972,VH_v3,2023.2.3,iPad,55.55555556,,,,,,,,,,,,43.024,44.024,44.024,44.84,m,0,0.801,,0.801,0,44.841,46.341,0,3,3,17,1,18,pilar,notharmonic,nw,z,,,,,,,,,,,,,,,,,,,,,,,,,,,,,,,,,,,,,
,,,,2023-11-28_19h16.50.972,VH_v3,2023.2.3,iPad,55.55555556,,,,,,,,,,,,46.342,47.342,47.342,47.842,m,1,0.485,,0.485,1,47.842,49.342,0,4,4,6,1,7,sebep,harmonic,word,m,,,,,,,,,,,,,,,,,,,,,,,,,,,,,,,,,,,,,
,,,,2023-11-28_19h16.50.972,VH_v3,2023.2.3,iPad,55.55555556,,,,,,,,,,,,49.343,50.342,50.343,51.093,z,1,0.734,,0.734,1,51.093,52.593,0,5,5,12,1,13,tahip,notharmonic,nw,z,,,,,,,,,,,,,,,,,,,,,,,,,,,,,,,,,,,,,
,,,,2023-11-28_19h16.50.972,VH_v3,2023.2.3,iPad,55.55555556,,,,,,,,,,,,52.594,53.594,53.594,54.144,m,1,0.534,,0.534,1,54.145,55.645,0,6,6,1,1,2,veri,harmonic,word,m,,,,,,,,,,,,,,,,,,,,,,,,,,,,,,,,,,,,,
,,,,2023-11-28_19h16.50.972,VH_v3,2023.2.3,iPad,55.55555556,,,,,,,,,,,,55.645,56.645,56.645,57.213,z,1,0.553,,0.553,1,57.213,58.712,0,7,7,22,1,23,gizım,notharmonic,nw,z,,,,,,,,,,,,,,,,,,,,,,,,,,,,,,,,,,,,,
,,,,2023-11-28_19h16.50.972,VH_v3,2023.2.3,iPad,55.55555556,,,,,,,,,,,,58.713,59.713,59.713,60.164,m,1,0.437,,0.437,1,60.164,61.664,0,8,8,8,1,9,bilim,harmonic,word,m,,,,,,,,,,,,,,,,,,,,,,,,,,,,,,,,,,,,,
,,,,2023-11-28_19h16.50.972,VH_v3,2023.2.3,iPad,55.55555556,,,,,,,,,,,,61.665,62.664,62.664,63.239,m,1,0.56,,0.56,1,63.239,64.732,0,9,9,7,1,8,oran,harmonic,word,m,,,,,,,,,,,,,,,,,,,,,,,,,,,,,,,,,,,,,
,,,,2023-11-28_19h16.50.972,VH_v3,2023.2.3,iPad,55.55555556,,,,,,,,,,,,64.732,65.732,65.732,66.315,m,1,0.568,,0.568,1,66.316,67.816,0,10,10,11,1,12,teslim,harmonic,word,m,,,,,,,,,,,,,,,,,,,,,,,,,,,,,,,,,,,,,
,,,,2023-11-28_19h16.50.972,VH_v3,2023.2.3,iPad,55.55555556,,,,,,,,,,,,67.817,68.816,68.817,69.251,m,1,0.417,,0.417,1,69.251,70.751,0,11,11,2,1,3,yardım,harmonic,word,m,,,,,,,,,,,,,,,,,,,,,,,,,,,,,,,,,,,,,
,,,,2023-11-28_19h16.50.972,VH_v3,2023.2.3,iPad,55.55555556,,,,,,,,,,,,70.753,71.751,71.752,72.252,m,1,0.483,,0.483,1,72.252,73.752,0,12,12,9,1,10,zarar,harmonic,word,m,,,,,,,,,,,,,,,,,,,,,,,,,,,,,,,,,,,,,
,,,,2023-11-28_19h16.50.972,VH_v3,2023.2.3,iPad,55.55555556,,,,,,,,,,,,73.754,74.752,74.752,75.437,z,1,0.666,,0.666,1,75.437,76.936,0,13,13,18,1,19,pimer,harmonic,nw,z,,,,,,,,,,,,,,,,,,,,,,,,,,,,,,,,,,,,,
,,,,2023-11-28_19h16.50.972,VH_v3,2023.2.3,iPad,55.55555556,,,,,,,,,,,,76.937,77.937,77.937,78.671,z,1,0.718,,0.718,1,78.671,80.171,0,14,14,20,1,21,yoğuk,harmonic,nw,z,,,,,,,,,,,,,,,,,,,,,,,,,,,,,,,,,,,,,
,,,,2023-11-28_19h16.50.972,VH_v3,2023.2.3,iPad,55.55555556,,,,,,,,,,,,80.172,81.172,81.172,81.862,z,1,0.675,,0.675,1,81.862,83.356,0,15,15,14,1,15,mahne,notharmonic,nw,z,,,,,,,,,,,,,,,,,,,,,,,,,,,,,,,,,,,,,
,,,,2023-11-28_19h16.50.972,VH_v3,2023.2.3,iPad,55.55555556,,,,,,,,,,,,83.357,84.356,84.356,84.829,m,1,0.46,,0.46,1,84.829,86.323,0,16,16,0,1,1,hazır,harmonic,word,m,,,,,,,,,,,,,,,,,,,,,,,,,,,,,,,,,,,,,
,,,,2023-11-28_19h16.50.972,VH_v3,2023.2.3,iPad,55.55555556,,,,,,,,,,,,86.324,87.324,87.324,87.891,m,1,0.552,,0.552,1,87.891,89.391,0,17,17,10,1,11,nefret,harmonic,word,m,,,,,,,,,,,,,,,,,,,,,,,,,,,,,,,,,,,,,
,,,,2023-11-28_19h16.50.972,VH_v3,2023.2.3,iPad,55.55555556,,,,,,,,,,,,89.392,90.392,90.392,91.083,z,1,0.675,,0.675,1,91.083,92.576,0,18,18,19,1,20,mımal,harmonic,nw,z,,,,,,,,,,,,,,,,,,,,,,,,,,,,,,,,,,,,,
,,,,2023-11-28_19h16.50.972,VH_v3,2023.2.3,iPad,55.55555556,,,,,,,,,,,,92.577,93.576,93.577,94.277,z,1,0.683,,0.683,1,94.278,95.777,0,19,19,15,1,16,geki,harmonic,nw,z,,,,,,,,,,,,,,,,,,,,,,,,,,,,,,,,,,,,,
,,,,2023-11-28_19h16.50.972,VH_v3,2023.2.3,iPad,55.55555556,,,,,,,,,,,,95.778,96.778,96.778,97.318,m,1,0.526,,0.526,1,97.318,98.812,0,20,20,4,1,5,soğuk,harmonic,word,m,,,,,,,,,,,,,,,,,,,,,,,,,,,,,,,,,,,,,
,,,,2023-11-28_19h16.50.972,VH_v3,2023.2.3,iPad,55.55555556,,,,,,,,,,,,98.813,99.812,99.812,100.48,z,1,0.652,,0.652,1,100.48,101.98,0,21,21,21,1,22,güçli,harmonic,nw,z,,,,,,,,,,,,,,,,,,,,,,,,,,,,,,,,,,,,,
,,,,2023-11-28_19h16.50.972,VH_v3,2023.2.3,iPad,55.55555556,,,,,,,,,,,,101.98,102.98,102.98,103.604,z,1,0.61,,0.61,1,103.604,105.098,0,22,22,13,1,14,orat,harmonic,nw,z,,,,,,,,,,,,,,,,,,,,,,,,,,,,,,,,,,,,,
,,,,2023-11-28_19h16.50.972,VH_v3,2023.2.3,iPad,55.55555556,,,,,,,,,,,,105.098,106.098,106.098,106.688,z,1,0.577,,0.577,1,106.688,108.182,0,23,23,16,1,17,ihlot,notharmonic,nw,z,,,,,,,,,,,,,,,,,,,,,,,,,,,,,,,,,,,,,
,,,,2023-11-28_19h16.50.972,VH_v3,2023.2.3,iPad,55.55555556,,,,,,,,,,,,,,,,,,,,,,,,,,,,,,,,,,108.183,110.134,space,1.922,,,,,,,,,,,,,,,,,,,,,,,,,,,,,,,,,
,,,,2023-11-28_19h16.50.972,VH_v3,2023.2.3,iPad,55.55555556,,,,,,,,,,,,110.167,111.15,,,,,,,,,,,,,,,,,,,,,,,,,,111.151,111.99,z,1,0.817,,111.991,111.994,,0,0,0,317,1,318,zila,,,,,4,notharmonic,1.65,nw,z,,,,,,,
,,,,2023-11-28_19h16.50.972,VH_v3,2023.2.3,iPad,55.55555556,,,,,,,,,,,,111.995,112.984,,,,,,,,,,,,,,,,,,,,,,,,,,112.984,113.534,z,1,0.535,,113.535,113.535,,0,1,1,308,1,309,tasnin,,,,,6,notharmonic,1.85,nw,z,,,,,,,
,,,,2023-11-28_19h16.50.972,VH_v3,2023.2.3,iPad,55.55555556,,,,,,,,,,,,113.536,114.535,,,,,,,,,,,,,,,,,,,,,,,,,,114.535,115.041,m,1,0.492,,115.041,115.042,,0,2,2,171,1,172,şirket,1227,55.75,1022,0.1117,6,harmonic,,word,m,,,,,,,
,,,,2023-11-28_19h16.50.972,VH_v3,2023.2.3,iPad,55.55555556,,,,,,,,,,,,115.043,116.035,,,,,,,,,,,,,,,,,,,,,,,,,,116.035,116.802,z,1,0.75,,116.803,116.803,,0,3,3,227,1,228,temzik,,,,,6,harmonic,1.9,nw,z,,,,,,,
,,,,2023-11-28_19h16.50.972,VH_v3,2023.2.3,iPad,55.55555556,,,,,,,,,,,,116.803,117.803,,,,,,,,,,,,,,,,,,,,,,,,,,117.803,118.32,m,1,0.505,,118.32,118.32,,0,4,4,97,1,98,kadın,10751,488.4828,8665,0.9473,5,harmonic,,word,m,,,,,,,
,,,,2023-11-28_19h16.50.972,VH_v3,2023.2.3,iPad,55.55555556,,,,,,,,,,,,118.321,119.32,,,,,,,,,,,,,,,,,,,,,,,,,,119.32,119.753,m,1,0.42,,119.754,119.754,,0,5,5,14,1,15,yaşam,4348,197.5559,3918,0.4283,5,harmonic,1.4,word,m,,,,,,,
,,,,2023-11-28_19h16.50.972,VH_v3,2023.2.3,iPad,55.55555556,,,,,,,,,,,,119.755,120.754,,,,,,,,,,,,,,,,,,,,,,,,,,120.754,121.295,z,1,0.528,,121.295,121.295,,0,6,6,200,1,201,duftu,,,,,5,harmonic,2.5,nw,z,,,,,,,
,,,,2023-11-28_19h16.50.972,VH_v3,2023.2.3,iPad,55.55555556,,,,,,,,,,,,121.296,122.288,,,,,,,,,,,,,,,,,,,,,,,,,,122.288,122.777,m,1,0.476,,122.778,122.778,,0,7,7,52,1,53,resim,2506,113.8627,2188,0.2392,5,harmonic,1.4,word,m,,,,,,,
,,,,2023-11-28_19h16.50.972,VH_v3,2023.2.3,iPad,55.55555556,,,,,,,,,,,,122.778,123.772,,,,,,,,,,,,,,,,,,,,,,,,,,123.772,124.279,m,1,0.493,,124.279,124.279,,0,8,8,76,1,77,ilişki,1675,76.1054,1524,0.1666,6,harmonic,1.8,word,m,,,,,,,
,,,,2023-11-28_19h16.50.972,VH_v3,2023.2.3,iPad,55.55555556,,,,,,,,,,,,124.279,125.272,,,,,,,,,,,,,,,,,,,,,,,,,,125.273,126.013,z,1,0.726,,126.013,126.014,,0,9,9,214,1,215,yapa,,,,,4,harmonic,1,nw,z,,,,,,,
,,,,2023-11-28_19h16.50.972,VH_v3,2023.2.3,iPad,55.55555556,,,,,,,,,,,,126.014,127.006,,,,,,,,,,,,,,,,,,,,,,,,,,127.007,128.097,m,0,1.076,,128.098,128.098,,0,10,10,232,1,233,çemek,,,,,5,harmonic,1.5,nw,z,,,,,,,
,,,,2023-11-28_19h16.50.972,VH_v3,2023.2.3,iPad,55.55555556,,,,,,,,,,,,128.099,129.09,,,,,,,,,,,,,,,,,,,,,,,,,,129.091,129.625,m,1,0.519,,129.625,129.625,,0,11,11,110,1,111,beden,1333,60.5662,1119,0.1223,5,harmonic,,word,m,,,,,,,
,,,,2023-11-28_19h16.50.972,VH_v3,2023.2.3,iPad,55.55555556,,,,,,,,,,,,129.626,130.625,,,,,,,,,,,,,,,,,,,,,,,,,,130.625,131.175,z,1,0.536,,131.175,131.175,,0,12,12,202,1,203,kulom,,,,,5,harmonic,2,nw,z,,,,,,,
,,,,2023-11-28_19h16.50.972,VH_v3,2023.2.3,iPad,55.55555556,,,,,,,,,,,,131.175,132.175,,,,,,,,,,,,,,,,,,,,,,,,,,132.175,132.666,m,1,0.477,,132.666,132.666,,0,13,13,53,1,54,gelir,7578,344.3143,7014,0.7668,5,harmonic,1.4,word,m,,,,,,,
,,,,2023-11-28_19h16.50.972,VH_v3,2023.2.3,iPad,55.55555556,,,,,,,,,,,,132.666,133.66,,,,,,,,,,,,,,,,,,,,,,,,,,133.66,134.177,m,1,0.501,,134.177,134.177,,0,14,14,122,1,123,sorun,4653,211.4139,4296,0.4696,5,harmonic,,word,m,,,,,,,
,,,,2023-11-28_19h16.50.972,VH_v3,2023.2.3,iPad,55.55555556,,,,,,,,,,,,134.179,135.176,,,,,,,,,,,,,,,,,,,,,,,,,,135.176,135.8,z,1,0.608,,135.8,135.8,,0,15,15,307,1,308,masil,,,,,5,notharmonic,1.65,nw,z,,,,,,,
,,,,2023-11-28_19h16.50.972,VH_v3,2023.2.3,iPad,55.55555556,,,,,,,,,,,,135.802,136.794,,,,,,,,,,,,,,,,,,,,,,,,,,136.794,137.367,m,1,0.559,,137.367,137.368,,0,16,16,142,1,143,aşık,2464,111.9544,2129,0.2327,4,harmonic,,word,m,,,,,,,
,,,,2023-11-28_19h16.50.972,VH_v3,2023.2.3,iPad,55.55555556,,,,,,,,,,,,137.369,138.361,,,,,,,,,,,,,,,,,,,,,,,,,,138.361,139.028,z,1,0.652,,139.029,139.029,,0,17,17,258,1,259,meryeş,,,,,6,harmonic,2.35,nw,z,,,,,,,
,,,,2023-11-28_19h16.50.972,VH_v3,2023.2.3,iPad,55.55555556,,,,,,,,,,,,139.029,140.028,,,,,,,,,,,,,,,,,,,,,,,,,,140.028,140.495,m,1,0.451,,140.495,140.495,,0,18,18,100,1,101,zayıf,1359,61.7476,1285,0.1405,5,harmonic,,word,m,,,,,,,
,,,,2023-11-28_19h16.50.972,VH_v3,2023.2.3,iPad,55.55555556,,,,,,,,,,,,140.496,141.496,,,,,,,,,,,,,,,,,,,,,,,,,,141.496,142.062,z,1,0.551,,142.062,142.063,,0,19,19,333,1,334,uleç,,,,,4,notharmonic,1.95,nw,z,,,,,,,
,,,,2023-11-28_19h16.50.972,VH_v3,2023.2.3,iPad,55.55555556,,,,,,,,,,,,142.063,143.063,,,,,,,,,,,,,,,,,,,,,,,,,,143.063,143.736,z,1,0.658,,143.736,143.736,,0,20,20,289,1,290,minkon,,,,,6,notharmonic,2.2,nw,z,,,,,,,
,,,,2023-11-28_19h16.50.972,VH_v3,2023.2.3,iPad,55.55555556,,,,,,,,,,,,143.737,144.73,,,,,,,,,,,,,,,,,,,,,,,,,,144.73,145.197,m,1,0.453,,145.197,145.197,,0,21,21,99,1,100,çocuk,10612,482.1672,8979,0.9816,5,harmonic,,word,m,,,,,,,
,,,,2023-11-28_19h16.50.972,VH_v3,2023.2.3,iPad,55.55555556,,,,,,,,,,,,145.198,146.197,,,,,,,,,,,,,,,,,,,,,,,,,,146.197,146.821,z,1,0.609,,146.821,146.821,,0,22,22,270,1,271,sarip,,,,,5,notharmonic,1.65,nw,z,,,,,,,
,,,,2023-11-28_19h16.50.972,VH_v3,2023.2.3,iPad,55.55555556,,,,,,,,,,,,146.822,147.815,,,,,,,,,,,,,,,,,,,,,,,,,,147.815,148.424,m,1,0.594,,148.424,148.424,,0,23,23,177,1,178,mutfak,1110,50.434,1032,0.1128,6,harmonic,,word,m,,,,,,,
,,,,2023-11-28_19h16.50.972,VH_v3,2023.2.3,iPad,55.55555556,,,,,,,,,,,,148.426,149.415,,,,,,,,,,,,,,,,,,,,,,,,,,149.415,150.022,m,1,0.593,,150.022,150.023,,0,24,24,140,1,141,ünlü,2684,121.9503,2457,0.2686,4,harmonic,,word,m,,,,,,,
,,,,2023-11-28_19h16.50.972,VH_v3,2023.2.3,iPad,55.55555556,,,,,,,,,,,,150.023,151.022,,,,,,,,,,,,,,,,,,,,,,,,,,151.024,151.591,m,1,0.551,,151.592,151.592,,0,25,25,178,1,179,aykırı,1094,49.707,1022,0.1117,6,harmonic,,word,m,,,,,,,
,,,,2023-11-28_19h16.50.972,VH_v3,2023.2.3,iPad,55.55555556,,,,,,,,,,,,151.594,152.583,,,,,,,,,,,,,,,,,,,,,,,,,,152.584,153.267,z,1,0.669,,153.267,153.268,,0,26,26,283,1,284,sate,,,,,4,notharmonic,1.45,nw,z,,,,,,,
,,,,2023-11-28_19h16.50.972,VH_v3,2023.2.3,iPad,55.55555556,,,,,,,,,,,,153.269,154.267,,,,,,,,,,,,,,,,,,,,,,,,,,154.267,154.851,m,1,0.567,,154.851,154.851,,0,27,27,170,1,171,parmak,1268,57.6129,1165,0.1274,6,harmonic,,word,m,,,,,,,
,,,,2023-11-28_19h16.50.972,VH_v3,2023.2.3,iPad,55.55555556,,,,,,,,,,,,154.852,155.851,,,,,,,,,,,,,,,,,,,,,,,,,,155.851,156.42,m,1,0.557,,156.42,156.421,,0,28,28,89,1,90,etki,1234,56.0681,1169,0.1278,4,harmonic,1.4,word,m,,,,,,,
,,,,2023-11-28_19h16.50.972,VH_v3,2023.2.3,iPad,55.55555556,,,,,,,,,,,,156.421,157.418,,,,,,,,,,,,,,,,,,,,,,,,,,157.418,158.022,z,1,0.597,,158.022,158.023,,0,29,29,335,1,336,askif,,,,,5,notharmonic,2,nw,z,,,,,,,
,,,,2023-11-28_19h16.50.972,VH_v3,2023.2.3,iPad,55.55555556,,,,,,,,,,,,158.023,159.019,,,,,,,,,,,,,,,,,,,,,,,,,,159.019,159.56,m,1,0.525,,159.56,159.56,,0,30,30,9,1,10,karar,8108,368.3954,7436,0.8129,5,harmonic,1.6,word,m,,,,,,,
,,,,2023-11-28_19h16.50.972,VH_v3,2023.2.3,iPad,55.55555556,,,,,,,,,,,,159.561,160.553,,,,,,,,,,,,,,,,,,,,,,,,,,160.553,161.27,z,1,0.703,,161.27,161.27,,0,31,31,273,1,274,sisaf,,,,,5,notharmonic,2,nw,z,,,,,,,
,,,,2023-11-28_19h16.50.972,VH_v3,2023.2.3,iPad,55.55555556,,,,,,,,,,,,161.271,162.271,,,,,,,,,,,,,,,,,,,,,,,,,,162.271,162.999,z,1,0.71,,162.999,162.999,,0,32,32,288,1,289,talif,,,,,5,notharmonic,1.5,nw,z,,,,,,,
,,,,2023-11-28_19h16.50.972,VH_v3,2023.2.3,iPad,55.55555556,,,,,,,,,,,,163,164.004,,,,,,,,,,,,,,,,,,,,,,,,,,164.005,164.538,m,1,0.519,,164.538,164.539,,0,33,33,82,1,83,aday,1028,46.7082,873,0.0954,4,harmonic,1.45,word,m,,,,,,,
,,,,2023-11-28_19h16.50.972,VH_v3,2023.2.3,iPad,55.55555556,,,,,,,,,,,,164.539,165.538,,,,,,,,,,,,,,,,,,,,,,,,,,165.538,166.012,m,1,0.458,,166.012,166.013,,0,34,34,160,1,161,günlük,3421,155.4367,3201,0.3499,6,harmonic,,word,m,,,,,,,
,,,,2023-11-28_19h16.50.972,VH_v3,2023.2.3,iPad,55.55555556,,,,,,,,,,,,166.014,167.006,,,,,,,,,,,,,,,,,,,,,,,,,,167.006,167.506,m,1,0.484,,167.506,167.506,,0,35,35,174,1,175,hayran,1171,53.2056,1073,0.1173,6,harmonic,,word,m,,,,,,,
,,,,2023-11-28_19h16.50.972,VH_v3,2023.2.3,iPad,55.55555556,,,,,,,,,,,,167.507,168.506,,,,,,,,,,,,,,,,,,,,,,,,,,168.506,168.914,m,1,0.394,,168.914,168.914,,0,36,36,153,1,154,para,7124,323.6863,5953,0.6508,4,harmonic,,word,m,,,,,,,
,,,,2023-11-28_19h16.50.972,VH_v3,2023.2.3,iPad,55.55555556,,,,,,,,,,,,168.915,169.907,,,,,,,,,,,,,,,,,,,,,,,,,,169.907,170.647,z,1,0.726,,170.647,170.647,,0,37,37,234,1,235,taslam,,,,,6,harmonic,1.9,nw,z,,,,,,,
,,,,2023-11-28_19h16.50.972,VH_v3,2023.2.3,iPad,55.55555556,,,,,,,,,,,,170.647,171.641,,,,,,,,,,,,,,,,,,,,,,,,,,171.641,172.281,z,1,0.627,,172.281,172.282,,0,38,38,180,1,181,manıt,,,,,5,harmonic,1.75,nw,z,,,,,,,
,,,,2023-11-28_19h16.50.972,VH_v3,2023.2.3,iPad,55.55555556,,,,,,,,,,,,172.283,173.275,,,,,,,,,,,,,,,,,,,,,,,,,,173.275,173.731,m,1,0.443,,173.731,173.731,,0,39,39,104,1,105,çizgi,1340,60.8843,1074,0.1174,5,harmonic,,word,m,,,,,,,
,,,,2023-11-28_19h16.50.972,VH_v3,2023.2.3,iPad,55.55555556,,,,,,,,,,,,173.731,174.725,,,,,,,,,,,,,,,,,,,,,,,,,,174.725,175.292,z,0,0.553,,175.292,175.292,,0,40,40,35,1,36,hava,4975,226.0443,4398,0.4808,4,harmonic,1,word,m,,,,,,,
,,,,2023-11-28_19h16.50.972,VH_v3,2023.2.3,iPad,55.55555556,,,,,,,,,,,,175.293,176.293,,,,,,,,,,,,,,,,,,,,,,,,,,176.293,176.843,m,1,0.535,,176.843,176.843,,0,41,41,31,1,32,fazla,18293,831.1614,16694,1.825,5,harmonic,1,word,m,,,,,,,
,,,,2023-11-28_19h16.50.972,VH_v3,2023.2.3,iPad,55.55555556,,,,,,,,,,,,176.844,177.843,,,,,,,,,,,,,,,,,,,,,,,,,,177.843,178.544,m,1,0.688,,178.544,178.544,,0,42,42,32,1,33,temel,4231,192.2399,3851,0.421,5,harmonic,1.55,word,m,,,,,,,
,,,,2023-11-28_19h16.50.972,VH_v3,2023.2.3,iPad,55.55555556,,,,,,,,,,,,178.545,179.544,,,,,,,,,,,,,,,,,,,,,,,,,,179.544,180.035,m,1,0.476,,180.035,180.035,,0,43,43,56,1,57,sağlam,1818,82.6027,1720,0.188,6,harmonic,1.6,word,m,,,,,,,
,,,,2023-11-28_19h16.50.972,VH_v3,2023.2.3,iPad,55.55555556,,,,,,,,,,,,180.036,181.028,,,,,,,,,,,,,,,,,,,,,,,,,,181.028,181.601,z,1,0.561,,181.602,181.602,,0,44,44,213,1,214,yofa,,,,,4,harmonic,1.75,nw,z,,,,,,,
,,,,2023-11-28_19h16.50.972,VH_v3,2023.2.3,iPad,55.55555556,,,,,,,,,,,,181.602,182.595,,,,,,,,,,,,,,,,,,,,,,,,,,182.595,183.137,m,1,0.526,,183.137,183.137,,0,45,45,38,1,39,dönem,2820,128.1296,2437,0.2664,5,harmonic,1.4,word,m,,,,,,,
,,,,2023-11-28_19h16.50.972,VH_v3,2023.2.3,iPad,55.55555556,,,,,,,,,,,,183.137,184.129,,,,,,,,,,,,,,,,,,,,,,,,,,184.129,184.829,z,1,0.686,,184.829,184.829,,0,46,46,328,1,329,tadit,,,,,5,notharmonic,1.8,nw,z,,,,,,,
,,,,2023-11-28_19h16.50.972,VH_v3,2023.2.3,iPad,55.55555556,,,,,,,,,,,,184.83,185.83,,,,,,,,,,,,,,,,,,,,,,,,,,185.83,186.636,z,1,0.793,,186.636,186.636,,0,47,47,295,1,296,takime,,,,,6,notharmonic,1.9,nw,z,,,,,,,
,,,,2023-11-28_19h16.50.972,VH_v3,2023.2.3,iPad,55.55555556,,,,,,,,,,,,186.637,187.63,,,,,,,,,,,,,,,,,,,,,,,,,,187.63,188.264,z,1,0.619,,188.264,188.264,,0,48,48,248,1,249,harık,,,,,5,harmonic,1.55,nw,z,,,,,,,
,,,,2023-11-28_19h16.50.972,VH_v3,2023.2.3,iPad,55.55555556,,,,,,,,,,,,188.265,189.264,,,,,,,,,,,,,,,,,,,,,,,,,,189.264,189.765,m,1,0.485,,189.765,189.765,,0,49,49,173,1,174,koruma,1187,53.9326,1066,0.1165,6,harmonic,,word,m,,,,,,,
,,,,2023-11-28_19h16.50.972,VH_v3,2023.2.3,iPad,55.55555556,,,,,,,,,,,,189.765,190.765,,,,,,,,,,,,,,,,,,,,,,,,,,190.765,191.288,m,1,0.511,,191.288,191.288,,0,50,50,6,1,7,hayal,4498,204.3713,4079,0.4459,5,harmonic,1.45,word,m,,,,,,,
,,,,2023-11-28_19h16.50.972,VH_v3,2023.2.3,iPad,55.55555556,,,,,,,,,,,,191.288,192.282,,,,,,,,,,,,,,,,,,,,,,,,,,192.282,192.823,z,1,0.527,,192.823,192.823,,0,51,51,337,1,338,yakim,,,,,5,notharmonic,1.75,nw,z,,,,,,,
,,,,2023-11-28_19h16.50.972,VH_v3,2023.2.3,iPad,55.55555556,,,,,,,,,,,,192.824,193.816,,,,,,,,,,,,,,,,,,,,,,,,,,193.816,194.456,z,1,0.626,,194.456,194.456,,0,52,52,315,1,316,çarki,,,,,5,notharmonic,1.85,nw,z,,,,,,,
,,,,2023-11-28_19h16.50.972,VH_v3,2023.2.3,iPad,55.55555556,,,,,,,,,,,,194.456,195.45,,,,,,,,,,,,,,,,,,,,,,,,,,195.45,196.034,z,1,0.569,,196.034,196.034,,0,53,53,257,1,258,dulom,,,,,5,harmonic,2.3,nw,z,,,,,,,
,,,,2023-11-28_19h16.50.972,VH_v3,2023.2.3,iPad,55.55555556,,,,,,,,,,,,196.035,197.034,,,,,,,,,,,,,,,,,,,,,,,,,,197.034,197.608,z,1,0.56,,197.608,197.608,,0,54,54,208,1,209,guzır,,,,,5,harmonic,2.05,nw,z,,,,,,,
,,,,2023-11-28_19h16.50.972,VH_v3,2023.2.3,iPad,55.55555556,,,,,,,,,,,,197.608,198.601,,,,,,,,,,,,,,,,,,,,,,,,,,198.601,199.218,m,1,0.603,,199.218,199.219,,0,55,55,95,1,96,koyun,1431,65.019,1292,0.1412,5,harmonic,,word,m,,,,,,,
,,,,2023-11-28_19h16.50.972,VH_v3,2023.2.3,iPad,55.55555556,,,,,,,,,,,,199.219,200.219,,,,,,,,,,,,,,,,,,,,,,,,,,200.219,200.742,m,1,0.511,,200.742,200.742,,0,56,56,155,1,156,devlet,5766,261.9842,4854,0.5306,6,harmonic,,word,m,,,,,,,
,,,,2023-11-28_19h16.50.972,VH_v3,2023.2.3,iPad,55.55555556,,,,,,,,,,,,200.743,201.736,,,,,,,,,,,,,,,,,,,,,,,,,,201.736,202.277,z,1,0.528,,202.277,202.277,,0,57,57,228,1,229,nekir,,,,,5,harmonic,1.65,nw,z,,,,,,,
,,,,2023-11-28_19h16.50.972,VH_v3,2023.2.3,iPad,55.55555556,,,,,,,,,,,,202.278,203.27,,,,,,,,,,,,,,,,,,,,,,,,,,203.27,203.811,m,1,0.527,,203.811,203.811,,0,58,58,26,1,27,sebze,1094,49.707,961,0.1051,5,harmonic,1.9,word,m,,,,,,,
,,,,2023-11-28_19h16.50.972,VH_v3,2023.2.3,iPad,55.55555556,,,,,,,,,,,,203.812,204.804,,,,,,,,,,,,,,,,,,,,,,,,,,204.804,205.411,z,1,0.593,,205.411,205.411,,0,59,59,329,1,330,aniş,,,,,4,notharmonic,1.7,nw,z,,,,,,,
,,,,2023-11-28_19h16.50.972,VH_v3,2023.2.3,iPad,55.55555556,,,,,,,,,,,,205.412,206.405,,,,,,,,,,,,,,,,,,,,,,,,,,206.405,206.977,m,1,0.559,,206.977,206.977,,0,60,60,10,1,11,bardak,1728,78.5135,1569,0.1715,6,harmonic,1.6,word,m,,,,,,,
,,,,2023-11-28_19h16.50.972,VH_v3,2023.2.3,iPad,55.55555556,,,,,,,,,,,,206.978,207.972,,,,,,,,,,,,,,,,,,,,,,,,,,207.972,209.19,z,1,1.204,,209.19,209.19,,0,61,61,350,1,351,bügun,,,,,5,notharmonic,2,nw,z,,,,,,,
,,,,2023-11-28_19h16.50.972,VH_v3,2023.2.3,iPad,55.55555556,,,,,,,,,,,,209.191,210.189,,,,,,,,,,,,,,,,,,,,,,,,,,210.189,210.98,z,1,0.777,,210.98,210.98,,0,62,62,229,1,230,ilgent,,,,,6,harmonic,2.7,nw,z,,,,,,,
,,,,2023-11-28_19h16.50.972,VH_v3,2023.2.3,iPad,55.55555556,,,,,,,,,,,,210.981,211.974,,,,,,,,,,,,,,,,,,,,,,,,,,211.974,212.54,z,1,0.551,,212.54,212.541,,0,63,63,236,1,237,abar,,,,,4,harmonic,1.1,nw,z,,,,,,,
,,,,2023-11-28_19h16.50.972,VH_v3,2023.2.3,iPad,55.55555556,,,,,,,,,,,,212.541,213.541,,,,,,,,,,,,,,,,,,,,,,,,,,213.541,214.064,m,1,0.511,,214.064,214.065,,0,64,64,161,1,162,servis,3344,151.9381,2968,0.3245,6,harmonic,,word,m,,,,,,,
,,,,2023-11-28_19h16.50.972,VH_v3,2023.2.3,iPad,55.55555556,,,,,,,,,,,,214.065,215.058,,,,,,,,,,,,,,,,,,,,,,,,,,215.058,215.608,z,1,0.536,,215.609,215.609,,0,65,65,276,1,277,dapel,,,,,5,notharmonic,1.9,nw,z,,,,,,,
,,,,2023-11-28_19h16.50.972,VH_v3,2023.2.3,iPad,55.55555556,,,,,,,,,,,,215.609,216.609,,,,,,,,,,,,,,,,,,,,,,,,,,216.609,217.183,z,1,0.561,,217.184,217.184,,0,66,66,296,1,297,taeri,,,,,5,notharmonic,2,nw,z,,,,,,,
,,,,2023-11-28_19h16.50.972,VH_v3,2023.2.3,iPad,55.55555556,,,,,,,,,,,,217.184,218.176,,,,,,,,,,,,,,,,,,,,,,,,,,218.176,218.743,z,1,0.552,,218.743,218.743,,0,67,67,216,1,217,halban,,,,,6,harmonic,2,nw,z,,,,,,,
,,,,2023-11-28_19h16.50.972,VH_v3,2023.2.3,iPad,55.55555556,,,,,,,,,,,,218.744,219.743,,,,,,,,,,,,,,,,,,,,,,,,,,219.744,220.394,m,1,0.635,,220.394,220.394,,0,68,68,69,1,70,forma,719,32.6685,597,0.0653,5,harmonic,1.8,word,m,,,,,,,
,,,,2023-11-28_19h16.50.972,VH_v3,2023.2.3,iPad,55.55555556,,,,,,,,,,,,220.394,221.394,,,,,,,,,,,,,,,,,,,,,,,,,,221.394,222.018,m,1,0.611,,222.018,222.018,,0,69,69,66,1,67,sanık,768,34.8949,699,0.0764,5,harmonic,1.85,word,m,,,,,,,
,,,,2023-11-28_19h16.50.972,VH_v3,2023.2.3,iPad,55.55555556,,,,,,,,,,,,222.019,223.011,,,,,,,,,,,,,,,,,,,,,,,,,,223.011,223.568,m,1,0.546,,223.569,223.569,,0,70,70,152,1,153,sene,6752,306.7841,5843,0.6388,4,harmonic,,word,m,,,,,,,
,,,,2023-11-28_19h16.50.972,VH_v3,2023.2.3,iPad,55.55555556,,,,,,,,,,,,223.569,224.562,,,,,,,,,,,,,,,,,,,,,,,,,,224.562,225.036,m,1,0.459,,225.036,225.036,,0,71,71,64,1,65,lise,888,40.3472,816,0.0892,4,harmonic,1.5,word,m,,,,,,,
,,,,2023-11-28_19h16.50.972,VH_v3,2023.2.3,iPad,55.55555556,,,,,,,,,,,,225.036,226.029,,,,,,,,,,,,,,,,,,,,,,,,,,226.029,226.486,m,1,0.446,,226.486,226.486,,0,72,72,20,1,21,nefes,2871,130.4469,2553,0.2791,5,harmonic,1.8,word,m,,,,,,,
,,,,2023-11-28_19h16.50.972,VH_v3,2023.2.3,iPad,55.55555556,,,,,,,,,,,,226.487,227.48,,,,,,,,,,,,,,,,,,,,,,,,,,227.48,228.03,z,1,0.536,,228.03,228.03,,0,73,73,272,1,273,sakke,,,,,5,notharmonic,1.85,nw,z,,,,,,,
,,,,2023-11-28_19h16.50.972,VH_v3,2023.2.3,iPad,55.55555556,,,,,,,,,,,,228.031,229.03,,,,,,,,,,,,,,,,,,,,,,,,,,229.031,229.621,z,1,0.576,,229.621,229.621,,0,74,74,316,1,317,karkiş,,,,,6,notharmonic,2,nw,z,,,,,,,
,,,,2023-11-28_19h16.50.972,VH_v3,2023.2.3,iPad,55.55555556,,,,,,,,,,,,229.621,230.614,,,,,,,,,,,,,,,,,,,,,,,,,,230.614,231.198,z,1,0.569,,231.198,231.198,,0,75,75,277,1,278,melbut,,,,,6,notharmonic,1.95,nw,z,,,,,,,
,,,,2023-11-28_19h16.50.972,VH_v3,2023.2.3,iPad,55.55555556,,,,,,,,,,,,231.198,232.198,,,,,,,,,,,,,,,,,,,,,,,,,,232.198,232.804,z,1,0.595,,232.804,232.804,,0,76,76,322,1,323,galiç,,,,,5,notharmonic,1.8,nw,z,,,,,,,
,,,,2023-11-28_19h16.50.972,VH_v3,2023.2.3,iPad,55.55555556,,,,,,,,,,,,232.805,233.799,,,,,,,,,,,,,,,,,,,,,,,,,,233.799,234.355,m,1,0.543,,234.356,234.356,,0,77,77,17,1,18,yakın,7990,363.0339,7595,0.8303,5,harmonic,1.8,word,m,,,,,,,
,,,,2023-11-28_19h16.50.972,VH_v3,2023.2.3,iPad,55.55555556,,,,,,,,,,,,234.356,235.349,,,,,,,,,,,,,,,,,,,,,,,,,,235.349,236.083,z,1,0.72,,236.083,236.083,,0,78,78,262,1,263,ürze,,,,,4,harmonic,1.95,nw,z,,,,,,,
,,,,2023-11-28_19h16.50.972,VH_v3,2023.2.3,iPad,55.55555556,,,,,,,,,,,,236.084,237.084,,,,,,,,,,,,,,,,,,,,,,,,,,237.084,237.657,m,1,0.561,,237.657,237.657,,0,79,79,34,1,35,hoca,1893,86.0104,1526,0.1668,4,harmonic,1.45,word,m,,,,,,,
,,,,2023-11-28_19h16.50.972,VH_v3,2023.2.3,iPad,55.55555556,,,,,,,,,,,,237.658,238.651,,,,,,,,,,,,,,,,,,,,,,,,,,238.651,239.152,m,1,0.487,,239.152,239.152,,0,80,80,93,1,94,başka,23223,1055.161,20976,2.2931,5,harmonic,,word,m,,,,,,,
,,,,2023-11-28_19h16.50.972,VH_v3,2023.2.3,iPad,55.55555556,,,,,,,,,,,,239.153,240.151,,,,,,,,,,,,,,,,,,,,,,,,,,240.151,240.676,z,1,0.509,,240.676,240.676,,0,81,81,352,1,353,yarema,,,,,6,notharmonic,1.95,nw,z,,,,,,,
,,,,2023-11-28_19h16.50.972,VH_v3,2023.2.3,iPad,55.55555556,,,,,,,,,,,,240.677,241.669,,,,,,,,,,,,,,,,,,,,,,,,,,241.669,242.202,m,1,0.52,,242.203,242.203,,0,82,82,176,1,177,tebrik,1117,50.7521,1102,0.1205,6,harmonic,,word,m,,,,,,,
,,,,2023-11-28_19h16.50.972,VH_v3,2023.2.3,iPad,55.55555556,,,,,,,,,,,,242.203,243.203,,,,,,,,,,,,,,,,,,,,,,,,,,243.203,243.754,z,1,0.535,,243.754,243.754,,0,83,83,266,1,267,yannoz,,,,,6,harmonic,2.85,nw,z,,,,,,,
,,,,2023-11-28_19h16.50.972,VH_v3,2023.2.3,iPad,55.55555556,,,,,,,,,,,,243.754,244.753,,,,,,,,,,,,,,,,,,,,,,,,,,244.753,245.22,m,1,0.451,,245.22,245.22,,0,84,84,117,1,118,yavaş,5087,231.1331,2886,0.3155,5,harmonic,,word,m,,,,,,,
,,,,2023-11-28_19h16.50.972,VH_v3,2023.2.3,iPad,55.55555556,,,,,,,,,,,,245.221,246.22,,,,,,,,,,,,,,,,,,,,,,,,,,246.22,246.827,z,1,0.593,,246.827,246.827,,0,85,85,184,1,185,medme,,,,,5,harmonic,1.95,nw,z,,,,,,,
,,,,2023-11-28_19h16.50.972,VH_v3,2023.2.3,iPad,55.55555556,,,,,,,,,,,,246.828,247.822,,,,,,,,,,,,,,,,,,,,,,,,,,247.822,248.339,z,1,0.5,,248.339,248.339,,0,86,86,196,1,197,gakık,,,,,5,harmonic,2,nw,z,,,,,,,
,,,,2023-11-28_19h16.50.972,VH_v3,2023.2.3,iPad,55.55555556,,,,,,,,,,,,248.341,249.338,,,,,,,,,,,,,,,,,,,,,,,,,,249.338,249.805,m,1,0.451,,249.805,249.806,,0,87,87,83,1,84,küçük,14048,638.2854,12467,1.3629,5,harmonic,1.75,word,m,,,,,,,
,,,,2023-11-28_19h16.50.972,VH_v3,2023.2.3,iPad,55.55555556,,,,,,,,,,,,249.807,250.806,,,,,,,,,,,,,,,,,,,,,,,,,,250.806,251.279,m,1,0.46,,251.28,251.28,,0,88,88,85,1,86,geçmiş,4195,190.6042,4039,0.4415,6,harmonic,1.55,word,m,,,,,,,
,,,,2023-11-28_19h16.50.972,VH_v3,2023.2.3,iPad,55.55555556,,,,,,,,,,,,251.281,252.273,,,,,,,,,,,,,,,,,,,,,,,,,,252.273,253.03,z,1,0.743,,253.03,253.03,,0,89,89,267,1,268,eşti,,,,,4,harmonic,1.85,nw,z,,,,,,,
,,,,2023-11-28_19h16.50.972,VH_v3,2023.2.3,iPad,55.55555556,,,,,,,,,,,,253.03,254.024,,,,,,,,,,,,,,,,,,,,,,,,,,254.024,254.697,z,1,0.66,,254.697,254.697,,0,90,90,281,1,282,ikva,,,,,4,notharmonic,1.85,nw,z,,,,,,,
,,,,2023-11-28_19h16.50.972,VH_v3,2023.2.3,iPad,55.55555556,,,,,,,,,,,,254.698,255.691,,,,,,,,,,,,,,,,,,,,,,,,,,255.691,256.164,m,1,0.461,,256.164,256.164,,0,91,91,86,1,87,gerçek,8983,408.1519,8058,0.8809,6,harmonic,1.7,word,m,,,,,,,
,,,,2023-11-28_19h16.50.972,VH_v3,2023.2.3,iPad,55.55555556,,,,,,,,,,,,256.165,257.158,,,,,,,,,,,,,,,,,,,,,,,,,,257.158,257.725,z,1,0.553,,257.725,257.725,,0,92,92,240,1,241,şünle,,,,,5,harmonic,1.9,nw,z,,,,,,,
,,,,2023-11-28_19h16.50.972,VH_v3,2023.2.3,iPad,55.55555556,,,,,,,,,,,,257.726,258.725,,,,,,,,,,,,,,,,,,,,,,,,,,258.726,259.467,z,1,0.727,,259.467,259.467,,0,93,93,218,1,219,yaltın,,,,,6,harmonic,1.8,nw,z,,,,,,,
,,,,2023-11-28_19h16.50.972,VH_v3,2023.2.3,iPad,55.55555556,,,,,,,,,,,,259.468,260.459,,,,,,,,,,,,,,,,,,,,,,,,,,260.46,260.96,m,1,0.485,,260.96,260.96,,0,94,94,36,1,37,meslek,1082,49.1618,976,0.1067,6,harmonic,1.9,word,m,,,,,,,
,,,,2023-11-28_19h16.50.972,VH_v3,2023.2.3,iPad,55.55555556,,,,,,,,,,,,260.961,261.96,,,,,,,,,,,,,,,,,,,,,,,,,,261.96,262.527,z,1,0.552,,262.528,262.528,,0,95,95,222,1,223,çetiş,,,,,5,harmonic,1.7,nw,z,,,,,,,
,,,,2023-11-28_19h16.50.972,VH_v3,2023.2.3,iPad,55.55555556,,,,,,,,,,,,262.529,263.527,,,,,,,,,,,,,,,,,,,,,,,,,,263.527,264.184,z,1,0.644,,264.184,264.184,,0,96,96,269,1,270,kanon,,,,,5,harmonic,,nw,z,,,,,,,
,,,,2023-11-28_19h16.50.972,VH_v3,2023.2.3,iPad,55.55555556,,,,,,,,,,,,264.185,265.178,,,,,,,,,,,,,,,,,,,,,,,,,,265.178,265.702,m,1,0.51,,265.702,265.702,,0,97,97,37,1,38,hayvan,2363,107.3653,1894,0.2071,6,harmonic,1.5,word,m,,,,,,,
,,,,2023-11-28_19h16.50.972,VH_v3,2023.2.3,iPad,55.55555556,,,,,,,,,,,,265.703,266.695,,,,,,,,,,,,,,,,,,,,,,,,,,266.695,267.335,z,1,0.627,,267.335,267.336,,0,98,98,244,1,245,tazık,,,,,5,harmonic,1.7,nw,z,,,,,,,
,,,,2023-11-28_19h16.50.972,VH_v3,2023.2.3,iPad,55.55555556,,,,,,,,,,,,267.336,268.329,,,,,,,,,,,,,,,,,,,,,,,,,,268.329,269.038,z,1,0.693,,269.038,269.038,,0,99,99,231,1,232,çekir,,,,,5,harmonic,1.45,nw,z,,,,,,,
,,,,2023-11-28_19h16.50.972,VH_v3,2023.2.3,iPad,55.55555556,,,,,,,,,,,,269.039,270.03,,,,,,,,,,,,,,,,,,,,,,,,,,270.03,270.47,m,1,0.428,,270.47,270.471,,0,100,100,139,1,140,okul,2685,121.9958,2381,0.2603,4,harmonic,,word,m,,,,,,,
,,,,2023-11-28_19h16.50.972,VH_v3,2023.2.3,iPad,55.55555556,,,,,,,,,,,,270.472,271.464,,,,,,,,,,,,,,,,,,,,,,,,,,271.464,271.914,m,1,0.436,,271.914,271.914,,0,101,101,30,1,31,çevre,1662,75.5147,1409,0.154,5,harmonic,1.55,word,m,,,,,,,
,,,,2023-11-28_19h16.50.972,VH_v3,2023.2.3,iPad,55.55555556,,,,,,,,,,,,271.915,272.914,,,,,,,,,,,,,,,,,,,,,,,,,,272.914,273.331,m,1,0.403,,273.331,273.332,,0,102,102,0,1,1,sanat,3121,141.8059,2485,0.2717,5,harmonic,1.4,word,m,,,,,,,
,,,,2023-11-28_19h16.50.972,VH_v3,2023.2.3,iPad,55.55555556,,,,,,,,,,,,273.332,274.332,,,,,,,,,,,,,,,,,,,,,,,,,,274.332,274.888,z,1,0.543,,274.888,274.889,,0,103,103,259,1,260,üreyeş,,,,,6,harmonic,2.9,nw,z,,,,,,,
,,,,2023-11-28_19h16.50.972,VH_v3,2023.2.3,iPad,55.55555556,,,,,,,,,,,,274.889,275.882,,,,,,,,,,,,,,,,,,,,,,,,,,275.882,276.377,z,1,0.477,,276.377,276.378,,0,104,104,207,1,208,çallak,,,,,6,harmonic,1.75,nw,z,,,,,,,
,,,,2023-11-28_19h16.50.972,VH_v3,2023.2.3,iPad,55.55555556,,,,,,,,,,,,276.378,277.383,,,,,,,,,,,,,,,,,,,,,,,,,,277.383,277.933,m,1,0.538,,277.933,277.934,,0,105,105,60,1,61,doğu,2105,95.6429,1823,0.1993,4,harmonic,1.05,word,m,,,,,,,
,,,,2023-11-28_19h16.50.972,VH_v3,2023.2.3,iPad,55.55555556,,,,,,,,,,,,277.934,278.933,,,,,,,,,,,,,,,,,,,,,,,,,,278.934,279.44,m,1,0.494,,279.44,279.44,,0,106,106,109,1,110,dalga,1307,59.3849,1117,0.1221,5,harmonic,,word,m,,,,,,,
,,,,2023-11-28_19h16.50.972,VH_v3,2023.2.3,iPad,55.55555556,,,,,,,,,,,,279.441,280.434,,,,,,,,,,,,,,,,,,,,,,,,,,280.434,280.884,m,1,0.435,,280.884,280.885,,0,107,107,138,1,139,yazar,3175,144.2594,2877,0.3145,5,harmonic,,word,m,,,,,,,
,,,,2023-11-28_19h16.50.972,VH_v3,2023.2.3,iPad,55.55555556,,,,,,,,,,,,280.885,281.885,,,,,,,,,,,,,,,,,,,,,,,,,,281.885,282.452,z,1,0.552,,282.452,282.452,,0,108,108,303,1,304,hahir,,,,,5,notharmonic,1.55,nw,z,,,,,,,
,,,,2023-11-28_19h16.50.972,VH_v3,2023.2.3,iPad,55.55555556,,,,,,,,,,,,282.452,283.452,,,,,,,,,,,,,,,,,,,,,,,,,,283.452,284.052,z,1,0.586,,284.052,284.052,,0,109,109,278,1,279,camet,,,,,5,notharmonic,1.8,nw,z,,,,,,,
,,,,2023-11-28_19h16.50.972,VH_v3,2023.2.3,iPad,55.55555556,,,,,,,,,,,,284.053,285.053,,,,,,,,,,,,,,,,,,,,,,,,,,285.053,285.553,m,1,0.486,,285.553,285.553,,0,110,110,125,1,126,hızlı,4167,189.332,3688,0.4032,5,harmonic,,word,m,,,,,,,
,,,,2023-11-28_19h16.50.972,VH_v3,2023.2.3,iPad,55.55555556,,,,,,,,,,,,285.554,286.553,,,,,,,,,,,,,,,,,,,,,,,,,,286.554,287.009,m,1,0.443,,287.009,287.009,,0,111,111,162,1,163,destek,3328,151.2111,3065,0.3351,6,harmonic,,word,m,,,,,,,
,,,,2023-11-28_19h16.50.972,VH_v3,2023.2.3,iPad,55.55555556,,,,,,,,,,,,287.01,288.004,,,,,,,,,,,,,,,,,,,,,,,,,,288.004,288.437,m,1,0.418,,288.437,288.437,,0,112,112,108,1,109,sabah,8179,371.6213,7277,0.7955,5,harmonic,,word,m,,,,,,,
,,,,2023-11-28_19h16.50.972,VH_v3,2023.2.3,iPad,55.55555556,,,,,,,,,,,,288.438,289.438,,,,,,,,,,,,,,,,,,,,,,,,,,289.438,289.945,z,1,0.494,,289.946,289.946,,0,113,113,323,1,324,itkea,,,,,5,notharmonic,2.35,nw,z,,,,,,,
,,,,2023-11-28_19h16.50.972,VH_v3,2023.2.3,iPad,55.55555556,,,,,,,,,,,,289.946,290.938,,,,,,,,,,,,,,,,,,,,,,,,,,290.938,291.479,m,1,0.526,,291.48,291.48,,0,114,114,39,1,40,yaygın,1061,48.2076,1019,0.1114,6,harmonic,1.35,word,m,,,,,,,
,,,,2023-11-28_19h16.50.972,VH_v3,2023.2.3,iPad,55.55555556,,,,,,,,,,,,291.48,292.472,,,,,,,,,,,,,,,,,,,,,,,,,,292.472,293.113,z,1,0.629,,293.113,293.113,,0,115,115,199,1,200,repes,,,,,5,harmonic,2,nw,z,,,,,,,
,,,,2023-11-28_19h16.50.972,VH_v3,2023.2.3,iPad,55.55555556,,,,,,,,,,,,293.114,294.106,,,,,,,,,,,,,,,,,,,,,,,,,,294.106,294.707,z,1,0.586,,294.707,294.707,,0,116,116,186,1,187,yadal,,,,,5,harmonic,1.85,nw,z,,,,,,,
,,,,2023-11-28_19h16.50.972,VH_v3,2023.2.3,iPad,55.55555556,,,,,,,,,,,,294.708,295.707,,,,,,,,,,,,,,,,,,,,,,,,,,295.707,296.148,m,1,0.427,,296.148,296.148,,0,117,117,127,1,128,müzik,3999,181.6987,3340,0.3651,5,harmonic,,word,m,,,,,,,
,,,,2023-11-28_19h16.50.972,VH_v3,2023.2.3,iPad,55.55555556,,,,,,,,,,,,296.149,297.141,,,,,,,,,,,,,,,,,,,,,,,,,,297.145,297.691,m,1,0.531,,297.691,297.692,,0,118,118,114,1,115,türlü,7010,318.5066,6559,0.717,5,harmonic,,word,m,,,,,,,
,,,,2023-11-28_19h16.50.972,VH_v3,2023.2.3,iPad,55.55555556,,,,,,,,,,,,297.692,298.691,,,,,,,,,,,,,,,,,,,,,,,,,,298.691,299.233,z,1,0.528,,299.233,299.233,,0,119,119,314,1,315,betaş,,,,,5,notharmonic,1.9,nw,z,,,,,,,
,,,,2023-11-28_19h16.50.972,VH_v3,2023.2.3,iPad,55.55555556,,,,,,,,,,,,299.234,300.225,,,,,,,,,,,,,,,,,,,,,,,,,,300.225,300.765,m,1,0.527,,300.765,302.247,space,0,120,120,78,1,79,ulusal,1551,70.4713,1355,0.1481,6,harmonic,1.75,word,m,1.468,,,,,,
,,,,2023-11-28_19h16.50.972,VH_v3,2023.2.3,iPad,55.55555556,,,,,,,,,,,,302.248,303.243,,,,,,,,,,,,,,,,,,,,,,,,,,303.243,304.043,z,1,0.785,,304.043,304.044,,0,121,121,209,1,210,çirre,,,,,5,harmonic,2,nw,z,,,,,,,
,,,,2023-11-28_19h16.50.972,VH_v3,2023.2.3,iPad,55.55555556,,,,,,,,,,,,304.044,305.044,,,,,,,,,,,,,,,,,,,,,,,,,,305.044,305.8,z,1,0.744,,305.8,305.801,,0,122,122,325,1,326,icanat,,,,,6,notharmonic,2.25,nw,z,,,,,,,
,,,,2023-11-28_19h16.50.972,VH_v3,2023.2.3,iPad,55.55555556,,,,,,,,,,,,305.801,306.795,,,,,,,,,,,,,,,,,,,,,,,,,,306.795,307.345,z,1,0.536,,307.345,307.345,,0,123,123,306,1,307,napare,,,,,6,notharmonic,2.15,nw,z,,,,,,,
,,,,2023-11-28_19h16.50.972,VH_v3,2023.2.3,iPad,55.55555556,,,,,,,,,,,,307.346,308.345,,,,,,,,,,,,,,,,,,,,,,,,,,308.345,308.896,z,1,0.536,,308.896,308.896,,0,124,124,255,1,256,ubar,,,,,4,harmonic,1.7,nw,z,,,,,,,
,,,,2023-11-28_19h16.50.972,VH_v3,2023.2.3,iPad,55.55555556,,,,,,,,,,,,308.897,309.896,,,,,,,,,,,,,,,,,,,,,,,,,,309.896,310.496,z,1,0.585,,310.496,310.497,,0,125,125,291,1,292,kasge,,,,,5,notharmonic,2,nw,z,,,,,,,
,,,,2023-11-28_19h16.50.972,VH_v3,2023.2.3,iPad,55.55555556,,,,,,,,,,,,310.497,311.497,,,,,,,,,,,,,,,,,,,,,,,,,,311.497,312.287,z,1,0.777,,312.287,312.287,,0,126,126,241,1,242,sılman,,,,,6,harmonic,2,nw,z,,,,,,,
,,,,2023-11-28_19h16.50.972,VH_v3,2023.2.3,iPad,55.55555556,,,,,,,,,,,,312.288,313.28,,,,,,,,,,,,,,,,,,,,,,,,,,313.28,313.831,m,1,0.536,,313.831,313.831,,0,127,127,145,1,146,ilgi,2144,97.4149,2041,0.2231,4,harmonic,,word,m,,,,,,,
,,,,2023-11-28_19h16.50.972,VH_v3,2023.2.3,iPad,55.55555556,,,,,,,,,,,,313.832,314.831,,,,,,,,,,,,,,,,,,,,,,,,,,314.831,315.572,m,1,0.727,,315.572,315.572,,0,128,128,49,1,50,şeker,4708,213.9128,4170,0.4559,5,harmonic,1.6,word,m,,,,,,,
,,,,2023-11-28_19h16.50.972,VH_v3,2023.2.3,iPad,55.55555556,,,,,,,,,,,,315.573,316.565,,,,,,,,,,,,,,,,,,,,,,,,,,316.565,317.2,z,1,0.619,,317.2,317.2,,0,129,129,195,1,196,habaş,,,,,5,harmonic,1.95,nw,z,,,,,,,
,,,,2023-11-28_19h16.50.972,VH_v3,2023.2.3,iPad,55.55555556,,,,,,,,,,,,317.201,318.199,,,,,,,,,,,,,,,,,,,,,,,,,,318.199,318.706,m,1,0.493,,318.706,318.706,,0,130,130,7,1,8,hizmet,3023,137.3531,2689,0.294,6,harmonic,1.75,word,m,,,,,,,
,,,,2023-11-28_19h16.50.972,VH_v3,2023.2.3,iPad,55.55555556,,,,,,,,,,,,318.706,319.7,,,,,,,,,,,,,,,,,,,,,,,,,,319.7,320.233,z,1,0.519,,320.233,320.234,,0,131,131,191,1,192,unot,,,,,4,harmonic,1.85,nw,z,,,,,,,
,,,,2023-11-28_19h16.50.972,VH_v3,2023.2.3,iPad,55.55555556,,,,,,,,,,,,320.234,321.234,,,,,,,,,,,,,,,,,,,,,,,,,,321.234,321.784,z,1,0.535,,321.784,321.784,,0,132,132,271,1,272,icazi,,,,,5,notharmonic,1.95,nw,z,,,,,,,
,,,,2023-11-28_19h16.50.972,VH_v3,2023.2.3,iPad,55.55555556,,,,,,,,,,,,321.785,322.784,,,,,,,,,,,,,,,,,,,,,,,,,,322.784,323.275,m,1,0.477,,323.276,323.276,,0,133,133,84,1,85,ülke,3121,141.8059,2801,0.3062,4,harmonic,1.65,word,m,,,,,,,
,,,,2023-11-28_19h16.50.972,VH_v3,2023.2.3,iPad,55.55555556,,,,,,,,,,,,323.276,324.268,,,,,,,,,,,,,,,,,,,,,,,,,,324.268,324.759,z,1,0.478,,324.759,324.759,,0,134,134,340,1,341,zizon,,,,,5,notharmonic,1.85,nw,z,,,,,,,
,,,,2023-11-28_19h16.50.972,VH_v3,2023.2.3,iPad,55.55555556,,,,,,,,,,,,324.76,325.752,,,,,,,,,,,,,,,,,,,,,,,,,,325.752,326.209,m,1,0.444,,326.209,326.209,,0,135,135,4,1,5,metre,1156,52.5241,1015,0.111,5,harmonic,1.7,word,m,,,,,,,
,,,,2023-11-28_19h16.50.972,VH_v3,2023.2.3,iPad,55.55555556,,,,,,,,,,,,326.209,327.203,,,,,,,,,,,,,,,,,,,,,,,,,,327.203,327.71,m,1,0.493,,327.71,327.711,,0,136,136,11,1,12,umut,1988,90.3268,1818,0.1987,4,harmonic,1.55,word,m,,,,,,,
,,,,2023-11-28_19h16.50.972,VH_v3,2023.2.3,iPad,55.55555556,,,,,,,,,,,,327.711,328.703,,,,,,,,,,,,,,,,,,,,,,,,,,328.703,329.163,m,1,0.445,,329.163,329.163,,0,137,137,163,1,164,teknik,3297,149.8026,2798,0.3059,6,harmonic,,word,m,,,,,,,
,,,,2023-11-28_19h16.50.972,VH_v3,2023.2.3,iPad,55.55555556,,,,,,,,,,,,329.164,330.154,,,,,,,,,,,,,,,,,,,,,,,,,,330.154,330.711,z,1,0.544,,330.711,330.711,,0,138,138,347,1,348,şeylam,,,,,6,notharmonic,2.4,nw,z,,,,,,,
,,,,2023-11-28_19h16.50.972,VH_v3,2023.2.3,iPad,55.55555556,,,,,,,,,,,,330.712,331.704,,,,,,,,,,,,,,,,,,,,,,,,,,331.704,332.255,z,1,0.536,,332.255,332.255,,0,139,139,251,1,252,bellet,,,,,6,harmonic,1.8,nw,z,,,,,,,
,,,,2023-11-28_19h16.50.972,VH_v3,2023.2.3,iPad,55.55555556,,,,,,,,,,,,332.256,333.255,,,,,,,,,,,,,,,,,,,,,,,,,,333.255,333.855,z,1,0.586,,333.856,333.856,,0,140,140,304,1,305,irak,,,,,4,notharmonic,1.55,nw,z,,,,,,,
,,,,2023-11-28_19h16.50.972,VH_v3,2023.2.3,iPad,55.55555556,,,,,,,,,,,,333.856,334.856,,,,,,,,,,,,,,,,,,,,,,,,,,334.856,335.38,m,1,0.509,,335.38,335.38,,0,141,141,124,1,125,yarım,4177,189.7863,3852,0.4211,5,harmonic,,word,m,,,,,,,
,,,,2023-11-28_19h16.50.972,VH_v3,2023.2.3,iPad,55.55555556,,,,,,,,,,,,335.381,336.373,,,,,,,,,,,,,,,,,,,,,,,,,,336.373,336.864,m,1,0.477,,336.864,336.864,,0,142,142,79,1,80,durum,6783,308.1926,6431,0.703,5,harmonic,1.7,word,m,,,,,,,
,,,,2023-11-28_19h16.50.972,VH_v3,2023.2.3,iPad,55.55555556,,,,,,,,,,,,336.865,337.857,,,,,,,,,,,,,,,,,,,,,,,,,,337.857,338.364,m,1,0.493,,338.364,338.364,,0,143,143,134,1,135,hanım,3564,161.934,3151,0.3445,5,harmonic,,word,m,,,,,,,
,,,,2023-11-28_19h16.50.972,VH_v3,2023.2.3,iPad,55.55555556,,,,,,,,,,,,338.365,339.358,,,,,,,,,,,,,,,,,,,,,,,,,,339.358,339.999,z,1,0.626,,339.999,339.999,,0,144,144,243,1,244,şiker,,,,,5,harmonic,1.85,nw,z,,,,,,,
,,,,2023-11-28_19h16.50.972,VH_v3,2023.2.3,iPad,55.55555556,,,,,,,,,,,,340,340.992,,,,,,,,,,,,,,,,,,,,,,,,,,340.992,341.432,m,1,0.426,,341.432,341.433,,0,145,145,65,1,66,fikir,2552,115.9528,2413,0.2638,5,harmonic,1.9,word,m,,,,,,,
,,,,2023-11-28_19h16.50.972,VH_v3,2023.2.3,iPad,55.55555556,,,,,,,,,,,,341.434,342.425,,,,,,,,,,,,,,,,,,,,,,,,,,342.425,342.966,z,1,0.527,,342.966,342.966,,0,146,146,264,1,265,yerfek,,,,,6,harmonic,2,nw,z,,,,,,,
,,,,2023-11-28_19h16.50.972,VH_v3,2023.2.3,iPad,55.55555556,,,,,,,,,,,,342.967,343.959,,,,,,,,,,,,,,,,,,,,,,,,,,343.959,344.4,m,1,0.426,,344.4,344.4,,0,147,147,120,1,121,doğal,4821,219.0471,4328,0.4731,5,harmonic,,word,m,,,,,,,
,,,,2023-11-28_19h16.50.972,VH_v3,2023.2.3,iPad,55.55555556,,,,,,,,,,,,344.401,345.393,,,,,,,,,,,,,,,,,,,,,,,,,,345.393,346.017,m,1,0.613,,346.017,346.017,,0,148,148,96,1,97,mutlu,11447,520.1063,10279,1.1237,5,harmonic,,word,m,,,,,,,
,,,,2023-11-28_19h16.50.972,VH_v3,2023.2.3,iPad,55.55555556,,,,,,,,,,,,346.018,347.01,,,,,,,,,,,,,,,,,,,,,,,,,,347.011,347.469,m,1,0.442,,347.469,347.469,,0,149,149,24,1,25,yorgun,1153,52.3877,1108,0.1211,6,harmonic,1.55,word,m,,,,,,,
,,,,2023-11-28_19h16.50.972,VH_v3,2023.2.3,iPad,55.55555556,,,,,,,,,,,,347.47,348.461,,,,,,,,,,,,,,,,,,,,,,,,,,348.461,349.012,z,1,0.534,,349.012,349.013,,0,150,150,354,1,355,dizdat,,,,,6,notharmonic,2.4,nw,z,,,,,,,
,,,,2023-11-28_19h16.50.972,VH_v3,2023.2.3,iPad,55.55555556,,,,,,,,,,,,349.014,350.012,,,,,,,,,,,,,,,,,,,,,,,,,,350.012,350.562,z,1,0.536,,350.562,350.562,,0,151,151,327,1,328,zena,,,,,4,notharmonic,1.65,nw,z,,,,,,,
,,,,2023-11-28_19h16.50.972,VH_v3,2023.2.3,iPad,55.55555556,,,,,,,,,,,,350.563,351.562,,,,,,,,,,,,,,,,,,,,,,,,,,351.562,352.087,m,1,0.511,,352.087,352.087,,0,152,152,1,1,2,erkek,6188,281.1582,5195,0.5679,5,harmonic,1.65,word,m,,,,,,,
,,,,2023-11-28_19h16.50.972,VH_v3,2023.2.3,iPad,55.55555556,,,,,,,,,,,,352.088,353.08,,,,,,,,,,,,,,,,,,,,,,,,,,353.08,353.586,m,1,0.495,,353.586,353.586,,0,153,153,168,1,169,peynir,1421,64.5646,1248,0.1364,6,harmonic,,word,m,,,,,,,
,,,,2023-11-28_19h16.50.972,VH_v3,2023.2.3,iPad,55.55555556,,,,,,,,,,,,353.587,354.58,,,,,,,,,,,,,,,,,,,,,,,,,,354.58,355.031,m,1,0.437,,355.031,355.031,,0,154,154,150,1,151,ağır,4441,201.7814,3961,0.433,4,harmonic,,word,m,,,,,,,
,,,,2023-11-28_19h16.50.972,VH_v3,2023.2.3,iPad,55.55555556,,,,,,,,,,,,355.032,356.031,,,,,,,,,,,,,,,,,,,,,,,,,,356.031,356.554,z,1,0.511,,356.554,356.554,,0,155,155,336,1,337,zanit,,,,,5,notharmonic,1.85,nw,z,,,,,,,
,,,,2023-11-28_19h16.50.972,VH_v3,2023.2.3,iPad,55.55555556,,,,,,,,,,,,356.555,357.548,,,,,,,,,,,,,,,,,,,,,,,,,,357.548,358.065,m,1,0.502,,358.065,358.065,,0,156,156,23,1,24,kurum,986,44.7999,882,0.0964,5,harmonic,1.75,word,m,,,,,,,
,,,,2023-11-28_19h16.50.972,VH_v3,2023.2.3,iPad,55.55555556,,,,,,,,,,,,358.066,359.065,,,,,,,,,,,,,,,,,,,,,,,,,,359.066,359.607,z,1,0.529,,359.608,359.608,,0,157,157,318,1,319,sapel,,,,,5,notharmonic,1.9,nw,z,,,,,,,
,,,,2023-11-28_19h16.50.972,VH_v3,2023.2.3,iPad,55.55555556,,,,,,,,,,,,359.609,360.599,,,,,,,,,,,,,,,,,,,,,,,,,,360.599,361.183,m,1,0.568,,361.183,361.183,,0,158,158,18,1,19,normal,4154,188.7413,3788,0.4141,6,harmonic,1.75,word,m,,,,,,,
,,,,2023-11-28_19h16.50.972,VH_v3,2023.2.3,iPad,55.55555556,,,,,,,,,,,,361.184,362.183,,,,,,,,,,,,,,,,,,,,,,,,,,362.183,362.64,m,1,0.445,,362.64,362.641,,0,159,159,105,1,106,hafta,9257,420.6014,8254,0.9023,5,harmonic,,word,m,,,,,,,
,,,,2023-11-28_19h16.50.972,VH_v3,2023.2.3,iPad,55.55555556,,,,,,,,,,,,362.641,363.634,,,,,,,,,,,,,,,,,,,,,,,,,,363.634,364.225,z,1,0.577,,364.225,364.225,,0,160,160,261,1,262,kübün,,,,,5,harmonic,2,nw,z,,,,,,,
,,,,2023-11-28_19h16.50.972,VH_v3,2023.2.3,iPad,55.55555556,,,,,,,,,,,,364.226,365.218,,,,,,,,,,,,,,,,,,,,,,,,,,365.218,365.818,z,1,0.585,,365.818,365.818,,0,161,161,265,1,266,münrün,,,,,6,harmonic,2.75,nw,z,,,,,,,
,,,,2023-11-28_19h16.50.972,VH_v3,2023.2.3,iPad,55.55555556,,,,,,,,,,,,365.819,366.819,,,,,,,,,,,,,,,,,,,,,,,,,,366.819,367.385,m,1,0.552,,367.385,367.386,,0,162,162,144,1,145,şiir,2213,100.5499,1690,0.1848,4,harmonic,,word,m,,,,,,,
,,,,2023-11-28_19h16.50.972,VH_v3,2023.2.3,iPad,55.55555556,,,,,,,,,,,,367.386,368.386,,,,,,,,,,,,,,,,,,,,,,,,,,368.386,368.936,z,1,0.535,,368.936,368.936,,0,163,163,338,1,339,kunik,,,,,5,notharmonic,1.8,nw,z,,,,,,,
,,,,2023-11-28_19h16.50.972,VH_v3,2023.2.3,iPad,55.55555556,,,,,,,,,,,,368.937,369.936,,,,,,,,,,,,,,,,,,,,,,,,,,369.936,370.61,z,1,0.66,,370.61,370.61,,0,164,164,249,1,250,öldek,,,,,5,harmonic,1.85,nw,z,,,,,,,
,,,,2023-11-28_19h16.50.972,VH_v3,2023.2.3,iPad,55.55555556,,,,,,,,,,,,370.611,371.604,,,,,,,,,,,,,,,,,,,,,,,,,,371.604,372.271,z,1,0.653,,372.271,372.271,,0,165,165,217,1,218,dötim,,,,,5,harmonic,2,nw,z,,,,,,,
,,,,2023-11-28_19h16.50.972,VH_v3,2023.2.3,iPad,55.55555556,,,,,,,,,,,,372.272,373.271,,,,,,,,,,,,,,,,,,,,,,,,,,373.272,373.761,m,1,0.476,,373.761,373.761,,0,166,166,47,1,48,kaza,740,33.6227,679,0.0742,4,harmonic,1.85,word,m,,,,,,,
,,,,2023-11-28_19h16.50.972,VH_v3,2023.2.3,iPad,55.55555556,,,,,,,,,,,,373.762,374.755,,,,,,,,,,,,,,,,,,,,,,,,,,374.755,375.245,m,1,0.477,,375.245,375.245,,0,167,167,81,1,82,üretim,1593,72.3796,1283,0.1403,6,harmonic,1.6,word,m,,,,,,,
,,,,2023-11-28_19h16.50.972,VH_v3,2023.2.3,iPad,55.55555556,,,,,,,,,,,,375.246,376.239,,,,,,,,,,,,,,,,,,,,,,,,,,376.239,376.756,z,1,0.503,,376.756,376.756,,0,168,168,358,1,359,ksalik,,,,,6,notharmonic,,nw,z,,,,,,,
,,,,2023-11-28_19h16.50.972,VH_v3,2023.2.3,iPad,55.55555556,,,,,,,,,,,,376.757,377.756,,,,,,,,,,,,,,,,,,,,,,,,,,377.756,378.413,z,1,0.643,,378.413,378.413,,0,169,169,357,1,358,harim,,,,,5,notharmonic,,nw,z,,,,,,,
,,,,2023-11-28_19h16.50.972,VH_v3,2023.2.3,iPad,55.55555556,,,,,,,,,,,,378.413,379.407,,,,,,,,,,,,,,,,,,,,,,,,,,379.407,379.93,m,1,0.51,,379.93,379.93,,0,170,170,129,1,130,yorum,3801,172.7024,3473,0.3797,5,harmonic,,word,m,,,,,,,
,,,,2023-11-28_19h16.50.972,VH_v3,2023.2.3,iPad,55.55555556,,,,,,,,,,,,379.931,380.924,,,,,,,,,,,,,,,,,,,,,,,,,,380.924,381.547,m,1,0.61,,381.547,381.547,,0,171,171,157,1,158,eğitim,4784,217.366,3846,0.4204,6,harmonic,,word,m,,,,,,,
,,,,2023-11-28_19h16.50.972,VH_v3,2023.2.3,iPad,55.55555556,,,,,,,,,,,,381.548,382.541,,,,,,,,,,,,,,,,,,,,,,,,,,382.541,383.082,z,1,0.528,,383.082,383.082,,0,172,172,346,1,347,mamit,,,,,5,notharmonic,1.85,nw,z,,,,,,,
,,,,2023-11-28_19h16.50.972,VH_v3,2023.2.3,iPad,55.55555556,,,,,,,,,,,,383.083,384.075,,,,,,,,,,,,,,,,,,,,,,,,,,384.075,384.649,z,1,0.56,,384.649,384.649,,0,173,173,356,1,357,ated,,,,,4,notharmonic,,nw,z,,,,,,,
,,,,2023-11-28_19h16.50.972,VH_v3,2023.2.3,iPad,55.55555556,,,,,,,,,,,,384.65,385.643,,,,,,,,,,,,,,,,,,,,,,,,,,385.643,386.11,m,1,0.451,,386.11,386.11,,0,174,174,92,1,93,büyük,32406,1472.4001,28224,3.0855,5,harmonic,,word,m,,,,,,,
,,,,2023-11-28_19h16.50.972,VH_v3,2023.2.3,iPad,55.55555556,,,,,,,,,,,,386.11,387.11,,,,,,,,,,,,,,,,,,,,,,,,,,387.11,387.594,m,1,0.47,,387.594,387.594,,0,175,175,8,1,9,güven,1433,65.1098,1300,0.1421,5,harmonic,1.35,word,m,,,,,,,
,,,,2023-11-28_19h16.50.972,VH_v3,2023.2.3,iPad,55.55555556,,,,,,,,,,,,387.595,388.594,,,,,,,,,,,,,,,,,,,,,,,,,,388.594,389.145,m,1,0.537,,389.145,389.146,,0,176,176,61,1,62,yıldız,1775,80.649,1532,0.1675,6,harmonic,1.6,word,m,,,,,,,
,,,,2023-11-28_19h16.50.972,VH_v3,2023.2.3,iPad,55.55555556,,,,,,,,,,,,389.146,390.144,,,,,,,,,,,,,,,,,,,,,,,,,,390.144,390.718,z,1,0.56,,390.718,390.718,,0,177,177,302,1,303,desum,,,,,5,notharmonic,2,nw,z,,,,,,,
,,,,2023-11-28_19h16.50.972,VH_v3,2023.2.3,iPad,55.55555556,,,,,,,,,,,,390.719,391.712,,,,,,,,,,,,,,,,,,,,,,,,,,391.712,392.395,z,1,0.668,,392.395,392.395,,0,178,178,331,1,332,ilcaet,,,,,6,notharmonic,2.7,nw,z,,,,,,,
,,,,2023-11-28_19h16.50.972,VH_v3,2023.2.3,iPad,55.55555556,,,,,,,,,,,,392.396,393.396,,,,,,,,,,,,,,,,,,,,,,,,,,393.396,393.813,m,1,0.404,,393.813,393.813,,0,179,179,45,1,46,bilgi,5981,271.7529,5353,0.5852,5,harmonic,1.5,word,m,,,,,,,
,,,,2023-11-28_19h16.50.972,VH_v3,2023.2.3,iPad,55.55555556,,,,,,,,,,,,393.814,394.813,,,,,,,,,,,,,,,,,,,,,,,,,,394.813,395.38,z,1,0.552,,395.38,395.38,,0,180,180,225,1,226,sakam,,,,,5,harmonic,1.45,nw,z,,,,,,,
,,,,2023-11-28_19h16.50.972,VH_v3,2023.2.3,iPad,55.55555556,,,,,,,,,,,,395.381,396.381,,,,,,,,,,,,,,,,,,,,,,,,,,396.381,396.964,m,1,0.569,,396.964,396.964,,0,181,181,28,1,29,parlak,1142,51.888,1088,0.1189,6,harmonic,1.7,word,m,,,,,,,
,,,,2023-11-28_19h16.50.972,VH_v3,2023.2.3,iPad,55.55555556,,,,,,,,,,,,396.965,397.964,,,,,,,,,,,,,,,,,,,,,,,,,,397.964,398.514,z,1,0.536,,398.514,398.515,,0,182,182,198,1,199,ıdol,,,,,4,harmonic,1.9,nw,z,,,,,,,
,,,,2023-11-28_19h16.50.972,VH_v3,2023.2.3,iPad,55.55555556,,,,,,,,,,,,398.515,399.515,,,,,,,,,,,,,,,,,,,,,,,,,,399.515,400.198,z,1,0.67,,400.198,400.199,,0,183,183,189,1,190,kanak,,,,,5,harmonic,1.1,nw,z,,,,,,,
,,,,2023-11-28_19h16.50.972,VH_v3,2023.2.3,iPad,55.55555556,,,,,,,,,,,,400.2,401.199,,,,,,,,,,,,,,,,,,,,,,,,,,401.199,401.739,z,1,0.526,,401.739,401.74,,0,184,184,256,1,257,ulosız,,,,,6,harmonic,3,nw,z,,,,,,,
,,,,2023-11-28_19h16.50.972,VH_v3,2023.2.3,iPad,55.55555556,,,,,,,,,,,,401.74,402.733,,,,,,,,,,,,,,,,,,,,,,,,,,402.733,403.423,z,1,0.676,,403.423,403.423,,0,185,185,197,1,198,şortal,,,,,6,harmonic,1.95,nw,z,,,,,,,
,,,,2023-11-28_19h16.50.972,VH_v3,2023.2.3,iPad,55.55555556,,,,,,,,,,,,403.424,404.417,,,,,,,,,,,,,,,,,,,,,,,,,,404.417,404.968,m,1,0.539,,404.968,404.968,,0,186,186,16,1,17,yavaş,5087,231.1331,2886,0.3155,5,harmonic,1.6,word,m,,,,,,,
,,,,2023-11-28_19h16.50.972,VH_v3,2023.2.3,iPad,55.55555556,,,,,,,,,,,,404.969,405.967,,,,,,,,,,,,,,,,,,,,,,,,,,405.967,406.584,z,1,0.602,,406.584,406.584,,0,187,187,309,1,310,yanele,,,,,6,notharmonic,1.85,nw,z,,,,,,,
,,,,2023-11-28_19h16.50.972,VH_v3,2023.2.3,iPad,55.55555556,,,,,,,,,,,,406.585,407.585,,,,,,,,,,,,,,,,,,,,,,,,,,407.585,408.075,m,1,0.476,,408.075,408.075,,0,188,188,102,1,103,kaşık,1355,61.5658,1177,0.1287,5,harmonic,,word,m,,,,,,,
,,,,2023-11-28_19h16.50.972,VH_v3,2023.2.3,iPad,55.55555556,,,,,,,,,,,,408.075,409.069,,,,,,,,,,,,,,,,,,,,,,,,,,409.069,409.626,m,1,0.544,,409.626,409.626,,0,189,189,123,1,124,güneş,4371,198.6009,3610,0.3946,5,harmonic,,word,m,,,,,,,
,,,,2023-11-28_19h16.50.972,VH_v3,2023.2.3,iPad,55.55555556,,,,,,,,,,,,409.627,410.619,,,,,,,,,,,,,,,,,,,,,,,,,,410.619,411.276,z,1,0.644,,411.277,411.277,,0,190,190,349,1,350,mane,,,,,4,notharmonic,1.45,nw,z,,,,,,,
,,,,2023-11-28_19h16.50.972,VH_v3,2023.2.3,iPad,55.55555556,,,,,,,,,,,,411.277,412.27,,,,,,,,,,,,,,,,,,,,,,,,,,412.27,412.777,m,1,0.494,,412.777,412.778,,0,191,191,172,1,173,halka,1196,54.3415,1014,0.1109,6,harmonic,,word,m,,,,,,,
,,,,2023-11-28_19h16.50.972,VH_v3,2023.2.3,iPad,55.55555556,,,,,,,,,,,,412.778,413.77,,,,,,,,,,,,,,,,,,,,,,,,,,413.77,414.204,m,1,0.42,,414.205,414.205,,0,192,192,88,1,89,yalnız,5891,267.6637,5440,0.5947,6,harmonic,1.6,word,m,,,,,,,
,,,,2023-11-28_19h16.50.972,VH_v3,2023.2.3,iPad,55.55555556,,,,,,,,,,,,414.205,415.204,,,,,,,,,,,,,,,,,,,,,,,,,,415.204,415.638,m,1,0.419,,415.638,415.638,,0,193,193,51,1,52,ilginç,2803,127.3572,2690,0.2941,6,harmonic,1.8,word,m,,,,,,,
,,,,2023-11-28_19h16.50.972,VH_v3,2023.2.3,iPad,55.55555556,,,,,,,,,,,,415.639,416.638,,,,,,,,,,,,,,,,,,,,,,,,,,416.638,417.106,m,1,0.454,,417.106,417.106,,0,194,194,151,1,152,uzak,4809,218.5019,4564,0.4989,4,harmonic,,word,m,,,,,,,
,,,,2023-11-28_19h16.50.972,VH_v3,2023.2.3,iPad,55.55555556,,,,,,,,,,,,417.107,418.105,,,,,,,,,,,,,,,,,,,,,,,,,,418.106,418.747,z,1,0.628,,418.748,418.748,,0,195,195,190,1,191,banyak,,,,,6,harmonic,1.85,nw,z,,,,,,,
,,,,2023-11-28_19h16.50.972,VH_v3,2023.2.3,iPad,55.55555556,,,,,,,,,,,,418.748,419.74,,,,,,,,,,,,,,,,,,,,,,,,,,419.74,420.373,z,1,0.619,,420.373,420.373,,0,196,196,305,1,306,itba,,,,,4,notharmonic,1.85,nw,z,,,,,,,
,,,,2023-11-28_19h16.50.972,VH_v3,2023.2.3,iPad,55.55555556,,,,,,,,,,,,420.374,421.374,,,,,,,,,,,,,,,,,,,,,,,,,,421.374,421.941,z,1,0.555,,421.941,421.942,,0,197,197,274,1,275,rikal,,,,,5,notharmonic,1.85,nw,z,,,,,,,
,,,,2023-11-28_19h16.50.972,VH_v3,2023.2.3,iPad,55.55555556,,,,,,,,,,,,421.942,422.941,,,,,,,,,,,,,,,,,,,,,,,,,,422.941,423.48,z,1,0.528,,423.48,423.48,,0,198,198,235,1,236,mörüm,,,,,5,harmonic,1.9,nw,z,,,,,,,
,,,,2023-11-28_19h16.50.972,VH_v3,2023.2.3,iPad,55.55555556,,,,,,,,,,,,423.481,424.475,,,,,,,,,,,,,,,,,,,,,,,,,,424.475,425.058,m,1,0.569,,425.058,425.059,,0,199,199,68,1,69,ücret,734,33.35,634,0.0693,5,harmonic,1.85,word,m,,,,,,,
,,,,2023-11-28_19h16.50.972,VH_v3,2023.2.3,iPad,55.55555556,,,,,,,,,,,,425.059,426.059,,,,,,,,,,,,,,,,,,,,,,,,,,426.059,426.666,z,1,0.594,,426.666,426.666,,0,200,200,294,1,295,fiyan,,,,,5,notharmonic,1.65,nw,z,,,,,,,
,,,,2023-11-28_19h16.50.972,VH_v3,2023.2.3,iPad,55.55555556,,,,,,,,,,,,426.666,427.659,,,,,,,,,,,,,,,,,,,,,,,,,,427.659,428.166,z,1,0.494,,428.166,428.166,,0,201,201,280,1,281,düktan,,,,,6,notharmonic,2.35,nw,z,,,,,,,
,,,,2023-11-28_19h16.50.972,VH_v3,2023.2.3,iPad,55.55555556,,,,,,,,,,,,428.167,429.16,,,,,,,,,,,,,,,,,,,,,,,,,,429.16,429.8,z,1,0.626,,429.8,429.8,,0,202,202,290,1,291,nüda,,,,,4,notharmonic,1.9,nw,z,,,,,,,
,,,,2023-11-28_19h16.50.972,VH_v3,2023.2.3,iPad,55.55555556,,,,,,,,,,,,429.801,430.794,,,,,,,,,,,,,,,,,,,,,,,,,,430.794,431.495,z,1,0.686,,431.495,431.495,,0,203,203,242,1,243,ziye,,,,,4,harmonic,1.75,nw,z,,,,,,,
,,,,2023-11-28_19h16.50.972,VH_v3,2023.2.3,iPad,55.55555556,,,,,,,,,,,,431.496,432.495,,,,,,,,,,,,,,,,,,,,,,,,,,432.495,433.178,z,1,0.668,,433.178,433.178,,0,204,204,215,1,216,maflek,,,,,6,harmonic,2.15,nw,z,,,,,,,
,,,,2023-11-28_19h16.50.972,VH_v3,2023.2.3,iPad,55.55555556,,,,,,,,,,,,433.179,434.179,,,,,,,,,,,,,,,,,,,,,,,,,,434.179,434.729,m,1,0.536,,434.729,434.729,,0,205,205,169,1,170,düzgün,1384,62.8835,1310,0.1432,6,harmonic,,word,m,,,,,,,
,,,,2023-11-28_19h16.50.972,VH_v3,2023.2.3,iPad,55.55555556,,,,,,,,,,,,434.73,435.729,,,,,,,,,,,,,,,,,,,,,,,,,,435.729,436.963,m,0,1.217,,436.963,436.963,,0,206,206,287,1,288,beran,,,,,5,notharmonic,1.75,nw,z,,,,,,,
,,,,2023-11-28_19h16.50.972,VH_v3,2023.2.3,iPad,55.55555556,,,,,,,,,,,,436.963,437.963,,,,,,,,,,,,,,,,,,,,,,,,,,437.964,438.72,z,1,0.744,,438.72,438.72,,0,207,207,284,1,285,zebap,,,,,5,notharmonic,1.8,nw,z,,,,,,,
,,,,2023-11-28_19h16.50.972,VH_v3,2023.2.3,iPad,55.55555556,,,,,,,,,,,,438.721,439.714,,,,,,,,,,,,,,,,,,,,,,,,,,439.714,440.271,m,1,0.543,,440.271,440.271,,0,208,208,137,1,138,yoğun,3189,144.8955,3026,0.3308,5,harmonic,,word,m,,,,,,,
,,,,2023-11-28_19h16.50.972,VH_v3,2023.2.3,iPad,55.55555556,,,,,,,,,,,,440.272,441.265,,,,,,,,,,,,,,,,,,,,,,,,,,441.265,441.832,m,1,0.554,,441.832,441.833,,0,209,209,25,1,26,rapor,703,31.9415,617,0.0675,5,harmonic,1.8,word,m,,,,,,,
,,,,2023-11-28_19h16.50.972,VH_v3,2023.2.3,iPad,55.55555556,,,,,,,,,,,,441.833,442.832,,,,,,,,,,,,,,,,,,,,,,,,,,442.832,443.338,m,1,0.494,,443.338,443.339,,0,210,210,2,1,3,radyo,763,34.6677,636,0.0695,5,harmonic,1.85,word,m,,,,,,,
,,,,2023-11-28_19h16.50.972,VH_v3,2023.2.3,iPad,55.55555556,,,,,,,,,,,,443.339,444.333,,,,,,,,,,,,,,,,,,,,,,,,,,444.333,445.099,z,1,0.752,,445.1,445.1,,0,211,211,312,1,313,izmal,,,,,5,notharmonic,1.8,nw,z,,,,,,,
,,,,2023-11-28_19h16.50.972,VH_v3,2023.2.3,iPad,55.55555556,,,,,,,,,,,,445.1,446.1,,,,,,,,,,,,,,,,,,,,,,,,,,446.1,446.624,m,1,0.51,,446.624,446.624,,0,212,212,148,1,149,ışık,1814,82.421,1635,0.1787,4,harmonic,,word,m,,,,,,,
,,,,2023-11-28_19h16.50.972,VH_v3,2023.2.3,iPad,55.55555556,,,,,,,,,,,,446.625,447.617,,,,,,,,,,,,,,,,,,,,,,,,,,447.617,448.401,m,1,0.77,,448.401,448.401,,0,213,213,98,1,99,yerel,1399,63.565,1187,0.1298,5,harmonic,,word,m,,,,,,,
,,,,2023-11-28_19h16.50.972,VH_v3,2023.2.3,iPad,55.55555556,,,,,,,,,,,,448.402,449.401,,,,,,,,,,,,,,,,,,,,,,,,,,449.401,450.06,z,1,0.645,,450.06,450.06,,0,214,214,301,1,302,meyav,,,,,5,notharmonic,1.85,nw,z,,,,,,,
,,,,2023-11-28_19h16.50.972,VH_v3,2023.2.3,iPad,55.55555556,,,,,,,,,,,,450.061,451.052,,,,,,,,,,,,,,,,,,,,,,,,,,451.052,451.527,m,1,0.461,,451.527,451.527,,0,215,215,3,1,4,minik,2916,132.4915,2594,0.2836,5,harmonic,1.6,word,m,,,,,,,
,,,,2023-11-28_19h16.50.972,VH_v3,2023.2.3,iPad,55.55555556,,,,,,,,,,,,451.527,452.519,,,,,,,,,,,,,,,,,,,,,,,,,,452.519,452.992,m,1,0.46,,452.992,452.992,,0,216,216,94,1,95,bütün,18630,846.4733,16711,1.8269,5,harmonic,,word,m,,,,,,,
,,,,2023-11-28_19h16.50.972,VH_v3,2023.2.3,iPad,55.55555556,,,,,,,,,,,,452.993,453.986,,,,,,,,,,,,,,,,,,,,,,,,,,453.987,454.42,m,1,0.42,,454.421,454.421,,0,217,217,91,1,92,zaman,40307,1831.3902,33589,3.672,5,harmonic,,word,m,,,,,,,
,,,,2023-11-28_19h16.50.972,VH_v3,2023.2.3,iPad,55.55555556,,,,,,,,,,,,454.422,455.42,,,,,,,,,,,,,,,,,,,,,,,,,,455.421,455.994,z,1,0.56,,455.994,455.995,,0,218,218,263,1,264,geğniş,,,,,6,harmonic,2.35,nw,z,,,,,,,
,,,,2023-11-28_19h16.50.972,VH_v3,2023.2.3,iPad,55.55555556,,,,,,,,,,,,455.996,456.988,,,,,,,,,,,,,,,,,,,,,,,,,,456.988,457.605,z,1,0.603,,457.605,457.605,,0,219,219,292,1,293,semun,,,,,5,notharmonic,1.85,nw,z,,,,,,,
,,,,2023-11-28_19h16.50.972,VH_v3,2023.2.3,iPad,55.55555556,,,,,,,,,,,,457.606,458.605,,,,,,,,,,,,,,,,,,,,,,,,,,458.605,460.039,m,0,1.419,,460.039,460.039,,0,220,220,224,1,225,binci,,,,,5,harmonic,1.5,nw,z,,,,,,,
,,,,2023-11-28_19h16.50.972,VH_v3,2023.2.3,iPad,55.55555556,,,,,,,,,,,,460.04,461.039,,,,,,,,,,,,,,,,,,,,,,,,,,461.039,461.896,z,1,0.843,,461.896,461.896,,0,221,221,353,1,354,medrar,,,,,6,notharmonic,2.05,nw,z,,,,,,,
,,,,2023-11-28_19h16.50.972,VH_v3,2023.2.3,iPad,55.55555556,,,,,,,,,,,,461.897,462.89,,,,,,,,,,,,,,,,,,,,,,,,,,462.89,463.581,m,1,0.677,,463.581,463.581,,0,222,222,158,1,159,tercih,4577,207.9607,4282,0.4681,6,harmonic,,word,m,,,,,,,
,,,,2023-11-28_19h16.50.972,VH_v3,2023.2.3,iPad,55.55555556,,,,,,,,,,,,463.582,464.574,,,,,,,,,,,,,,,,,,,,,,,,,,464.574,465.181,z,1,0.594,,465.181,465.181,,0,223,223,324,1,325,başi,,,,,4,notharmonic,1.5,nw,z,,,,,,,
,,,,2023-11-28_19h16.50.972,VH_v3,2023.2.3,iPad,55.55555556,,,,,,,,,,,,465.182,466.175,,,,,,,,,,,,,,,,,,,,,,,,,,466.175,466.748,m,1,0.561,,466.748,466.748,,0,224,224,159,1,160,derece,4766,216.5481,4462,0.4878,6,harmonic,,word,m,,,,,,,
,,,,2023-11-28_19h16.50.972,VH_v3,2023.2.3,iPad,55.55555556,,,,,,,,,,,,466.749,467.742,,,,,,,,,,,,,,,,,,,,,,,,,,467.742,468.716,z,1,0.961,,468.716,468.716,,0,225,225,247,1,248,fonta,,,,,5,harmonic,1.75,nw,z,,,,,,,
,,,,2023-11-28_19h16.50.972,VH_v3,2023.2.3,iPad,55.55555556,,,,,,,,,,,,468.717,469.709,,,,,,,,,,,,,,,,,,,,,,,,,,469.709,470.183,m,1,0.461,,470.183,470.184,,0,226,226,44,1,45,kayıt,1234,56.0681,1058,0.1157,5,harmonic,1.35,word,m,,,,,,,
,,,,2023-11-28_19h16.50.972,VH_v3,2023.2.3,iPad,55.55555556,,,,,,,,,,,,470.185,471.177,,,,,,,,,,,,,,,,,,,,,,,,,,471.177,471.944,z,1,0.753,,471.944,471.945,,0,227,227,286,1,287,elsaf,,,,,5,notharmonic,1.9,nw,z,,,,,,,
,,,,2023-11-28_19h16.50.972,VH_v3,2023.2.3,iPad,55.55555556,,,,,,,,,,,,471.945,472.944,,,,,,,,,,,,,,,,,,,,,,,,,,472.944,474.051,m,0,1.094,,474.051,474.052,,0,228,228,193,1,194,şıkta,,,,,5,harmonic,2,nw,z,,,,,,,
,,,,2023-11-28_19h16.50.972,VH_v3,2023.2.3,iPad,55.55555556,,,,,,,,,,,,474.052,475.045,,,,,,,,,,,,,,,,,,,,,,,,,,475.045,475.762,z,1,0.704,,475.762,475.762,,0,229,229,254,1,255,ileşçe,,,,,6,harmonic,2.65,nw,z,,,,,,,
,,,,2023-11-28_19h16.50.972,VH_v3,2023.2.3,iPad,55.55555556,,,,,,,,,,,,475.763,476.762,,,,,,,,,,,,,,,,,,,,,,,,,,476.762,477.436,z,1,0.66,,477.436,477.436,,0,230,230,344,1,345,adalüt,,,,,6,notharmonic,,nw,z,,,,,,,
,,,,2023-11-28_19h16.50.972,VH_v3,2023.2.3,iPad,55.55555556,,,,,,,,,,,,477.437,478.43,,,,,,,,,,,,,,,,,,,,,,,,,,478.43,478.98,m,1,0.538,,478.98,478.981,,0,231,231,133,1,134,ortak,3666,166.5685,3331,0.3641,5,harmonic,,word,m,,,,,,,
,,,,2023-11-28_19h16.50.972,VH_v3,2023.2.3,iPad,55.55555556,,,,,,,,,,,,478.981,479.98,,,,,,,,,,,,,,,,,,,,,,,,,,479.98,480.464,m,1,0.469,,480.464,480.464,,0,232,232,67,1,68,bayram,1948,88.5094,1648,0.1802,6,harmonic,1.85,word,m,,,,,,,
,,,,2023-11-28_19h16.50.972,VH_v3,2023.2.3,iPad,55.55555556,,,,,,,,,,,,480.465,481.464,,,,,,,,,,,,,,,,,,,,,,,,,,481.464,482.288,z,1,0.811,,482.288,482.288,,0,233,233,332,1,333,makik,,,,,5,notharmonic,1.6,nw,z,,,,,,,
,,,,2023-11-28_19h16.50.972,VH_v3,2023.2.3,iPad,55.55555556,,,,,,,,,,,,482.288,483.281,,,,,,,,,,,,,,,,,,,,,,,,,,483.282,484.349,z,1,1.053,,484.349,484.349,,0,234,234,187,1,188,hücmet,,,,,6,harmonic,1.85,nw,z,,,,,,,
,,,,2023-11-28_19h16.50.972,VH_v3,2023.2.3,iPad,55.55555556,,,,,,,,,,,,484.35,485.349,,,,,,,,,,,,,,,,,,,,,,,,,,485.349,485.989,z,1,0.627,,485.989,485.989,,0,235,235,355,1,356,daneta,,,,,6,notharmonic,2.4,nw,z,,,,,,,
,,,,2023-11-28_19h16.50.972,VH_v3,2023.2.3,iPad,55.55555556,,,,,,,,,,,,485.989,486.983,,,,,,,,,,,,,,,,,,,,,,,,,,486.983,487.69,z,1,0.694,,487.69,487.69,,0,236,236,192,1,193,kusu,,,,,4,harmonic,1.5,nw,z,,,,,,,
,,,,2023-11-28_19h16.50.972,VH_v3,2023.2.3,iPad,55.55555556,,,,,,,,,,,,487.691,488.684,,,,,,,,,,,,,,,,,,,,,,,,,,488.684,489.3,m,1,0.602,,489.301,489.301,,0,237,237,54,1,55,yedek,825,37.4847,732,0.08,5,harmonic,1.65,word,m,,,,,,,
,,,,2023-11-28_19h16.50.972,VH_v3,2023.2.3,iPad,55.55555556,,,,,,,,,,,,489.301,490.301,,,,,,,,,,,,,,,,,,,,,,,,,,490.301,491.018,z,1,0.702,,491.018,491.018,,0,238,238,300,1,301,iştal,,,,,5,notharmonic,1.8,nw,z,,,,,,,
,,,,2023-11-28_19h16.50.972,VH_v3,2023.2.3,iPad,55.55555556,,,,,,,,,,,,491.019,492.018,,,,,,,,,,,,,,,,,,,,,,,,,,492.018,492.518,m,1,0.484,,492.519,492.519,,0,239,239,75,1,76,roman,1499,68.1086,1281,0.14,5,harmonic,1.6,word,m,,,,,,,
,,,,2023-11-28_19h16.50.972,VH_v3,2023.2.3,iPad,55.55555556,,,,,,,,,,,,492.519,493.519,,,,,,,,,,,,,,,,,,,,,,,,,,493.519,494.152,z,1,0.621,,494.153,495.808,space,0,240,240,282,1,283,edap,,,,,4,notharmonic,1.7,nw,z,1.647,,,,,,
,,,,2023-11-28_19h16.50.972,VH_v3,2023.2.3,iPad,55.55555556,,,,,,,,,,,,495.808,496.803,,,,,,,,,,,,,,,,,,,,,,,,,,496.804,497.254,m,1,0.436,,497.254,497.254,,0,241,241,128,1,129,güçlü,3924,178.291,3614,0.3951,5,harmonic,,word,m,,,,,,,
,,,,2023-11-28_19h16.50.972,VH_v3,2023.2.3,iPad,55.55555556,,,,,,,,,,,,497.255,498.254,,,,,,,,,,,,,,,,,,,,,,,,,,498.254,498.761,m,1,0.493,,498.761,498.761,,0,242,242,113,1,114,akşam,7480,339.8615,6833,0.747,5,harmonic,,word,m,,,,,,,
,,,,2023-11-28_19h16.50.972,VH_v3,2023.2.3,iPad,55.55555556,,,,,,,,,,,,498.762,499.755,,,,,,,,,,,,,,,,,,,,,,,,,,499.755,500.222,m,1,0.452,,500.222,500.222,,0,243,243,121,1,122,şeker,4708,213.9128,4170,0.4559,5,harmonic,,word,m,,,,,,,
,,,,2023-11-28_19h16.50.972,VH_v3,2023.2.3,iPad,55.55555556,,,,,,,,,,,,500.223,501.222,,,,,,,,,,,,,,,,,,,,,,,,,,501.222,502.096,z,1,0.86,,502.096,502.096,,0,244,244,330,1,331,tevaze,,,,,6,notharmonic,2.05,nw,z,,,,,,,
,,,,2023-11-28_19h16.50.972,VH_v3,2023.2.3,iPad,55.55555556,,,,,,,,,,,,502.097,503.089,,,,,,,,,,,,,,,,,,,,,,,,,,503.089,503.723,z,1,0.619,,503.723,503.723,,0,245,245,239,1,240,yulçız,,,,,6,harmonic,2.75,nw,z,,,,,,,
,,,,2023-11-28_19h16.50.972,VH_v3,2023.2.3,iPad,55.55555556,,,,,,,,,,,,503.724,504.723,,,,,,,,,,,,,,,,,,,,,,,,,,504.723,505.264,z,1,0.528,,505.264,505.264,,0,246,246,268,1,269,hayot,,,,,5,harmonic,,nw,z,,,,,,,
,,,,2023-11-28_19h16.50.972,VH_v3,2023.2.3,iPad,55.55555556,,,,,,,,,,,,505.265,506.257,,,,,,,,,,,,,,,,,,,,,,,,,,506.257,506.931,m,1,0.66,,506.931,506.931,,0,247,247,118,1,119,deniz,5006,227.4528,4256,0.4653,5,harmonic,,word,m,,,,,,,
,,,,2023-11-28_19h16.50.972,VH_v3,2023.2.3,iPad,55.55555556,,,,,,,,,,,,506.932,507.924,,,,,,,,,,,,,,,,,,,,,,,,,,507.925,508.515,m,1,0.577,,508.515,508.516,,0,248,248,147,1,148,dizi,1995,90.6449,1689,0.1846,4,harmonic,,word,m,,,,,,,
,,,,2023-11-28_19h16.50.972,VH_v3,2023.2.3,iPad,55.55555556,,,,,,,,,,,,508.517,509.509,,,,,,,,,,,,,,,,,,,,,,,,,,509.509,510.067,z,1,0.544,,510.067,510.067,,0,249,249,334,1,335,mecda,,,,,5,notharmonic,1.95,nw,z,,,,,,,
,,,,2023-11-28_19h16.50.972,VH_v3,2023.2.3,iPad,55.55555556,,,,,,,,,,,,510.068,511.059,,,,,,,,,,,,,,,,,,,,,,,,,,511.059,511.593,m,1,0.519,,511.593,511.593,,0,250,250,22,1,23,anlam,1730,78.6043,1617,0.1768,5,harmonic,1.25,word,m,,,,,,,
,,,,2023-11-28_19h16.50.972,VH_v3,2023.2.3,iPad,55.55555556,,,,,,,,,,,,511.594,512.593,,,,,,,,,,,,,,,,,,,,,,,,,,512.593,513.05,m,1,0.443,,513.05,513.05,,0,251,251,165,1,166,fırsat,1952,88.6911,1863,0.2037,6,harmonic,,word,m,,,,,,,
,,,,2023-11-28_19h16.50.972,VH_v3,2023.2.3,iPad,55.55555556,,,,,,,,,,,,513.051,514.044,,,,,,,,,,,,,,,,,,,,,,,,,,514.044,514.567,z,1,0.509,,514.568,514.568,,0,252,252,252,1,253,savanı,,,,,6,harmonic,1.85,nw,z,,,,,,,
,,,,2023-11-28_19h16.50.972,VH_v3,2023.2.3,iPad,55.55555556,,,,,,,,,,,,514.569,515.561,,,,,,,,,,,,,,,,,,,,,,,,,,515.561,516.152,z,1,0.577,,516.152,516.152,,0,253,253,219,1,220,tefsi,,,,,5,harmonic,1.8,nw,z,,,,,,,
,,,,2023-11-28_19h16.50.972,VH_v3,2023.2.3,iPad,55.55555556,,,,,,,,,,,,516.153,517.145,,,,,,,,,,,,,,,,,,,,,,,,,,517.145,517.635,m,1,0.479,,517.635,517.636,,0,254,254,164,1,165,toprak,1989,90.3723,1762,0.1926,6,harmonic,,word,m,,,,,,,
,,,,2023-11-28_19h16.50.972,VH_v3,2023.2.3,iPad,55.55555556,,,,,,,,,,,,517.636,518.629,,,,,,,,,,,,,,,,,,,,,,,,,,518.629,519.096,m,1,0.453,,519.096,519.096,,0,255,255,12,1,13,konu,5400,245.3546,5110,0.5586,4,harmonic,1,word,m,,,,,,,
,,,,2023-11-28_19h16.50.972,VH_v3,2023.2.3,iPad,55.55555556,,,,,,,,,,,,519.097,520.096,,,,,,,,,,,,,,,,,,,,,,,,,,520.096,520.653,z,1,0.543,,520.653,520.653,,0,256,256,205,1,206,sefbe,,,,,5,harmonic,2,nw,z,,,,,,,
,,,,2023-11-28_19h16.50.972,VH_v3,2023.2.3,iPad,55.55555556,,,,,,,,,,,,520.654,521.647,,,,,,,,,,,,,,,,,,,,,,,,,,521.647,522.164,m,1,0.504,,522.164,522.164,,0,257,257,141,1,142,kuru,2669,121.2688,2372,0.2593,4,harmonic,,word,m,,,,,,,
,,,,2023-11-28_19h16.50.972,VH_v3,2023.2.3,iPad,55.55555556,,,,,,,,,,,,522.165,523.164,,,,,,,,,,,,,,,,,,,,,,,,,,523.164,523.687,m,1,0.511,,523.687,523.687,,0,258,258,126,1,127,ciddi,4147,188.4232,3686,0.403,5,harmonic,,word,m,,,,,,,
,,,,2023-11-28_19h16.50.972,VH_v3,2023.2.3,iPad,55.55555556,,,,,,,,,,,,523.688,524.681,,,,,,,,,,,,,,,,,,,,,,,,,,524.681,525.238,z,1,0.543,,525.238,525.238,,0,259,259,341,1,342,sizika,,,,,6,notharmonic,2.45,nw,z,,,,,,,
,,,,2023-11-28_19h16.50.972,VH_v3,2023.2.3,iPad,55.55555556,,,,,,,,,,,,525.239,526.232,,,,,,,,,,,,,,,,,,,,,,,,,,526.232,526.706,m,1,0.461,,526.706,526.706,,0,260,260,166,1,167,tespit,1929,87.6461,1745,0.1908,6,harmonic,,word,m,,,,,,,
,,,,2023-11-28_19h16.50.972,VH_v3,2023.2.3,iPad,55.55555556,,,,,,,,,,,,526.707,527.699,,,,,,,,,,,,,,,,,,,,,,,,,,527.699,528.349,m,0,0.636,,528.35,528.35,,0,261,261,183,1,184,titik,,,,,5,harmonic,1.7,nw,z,,,,,,,
,,,,2023-11-28_19h16.50.972,VH_v3,2023.2.3,iPad,55.55555556,,,,,,,,,,,,528.35,529.35,,,,,,,,,,,,,,,,,,,,,,,,,,529.35,530.074,z,1,0.711,,530.074,530.074,,0,262,262,230,1,231,redem,,,,,5,harmonic,2,nw,z,,,,,,,
,,,,2023-11-28_19h16.50.972,VH_v3,2023.2.3,iPad,55.55555556,,,,,,,,,,,,530.075,531.067,,,,,,,,,,,,,,,,,,,,,,,,,,531.067,531.791,z,1,0.711,,531.791,531.791,,0,263,263,210,1,211,şatla,,,,,5,harmonic,1.5,nw,z,,,,,,,
,,,,2023-11-28_19h16.50.972,VH_v3,2023.2.3,iPad,55.55555556,,,,,,,,,,,,531.791,532.784,,,,,,,,,,,,,,,,,,,,,,,,,,532.785,533.324,m,1,0.527,,533.325,533.325,,0,264,264,19,1,20,ödül,1063,48.2985,926,0.1012,4,harmonic,1.7,word,m,,,,,,,
,,,,2023-11-28_19h16.50.972,VH_v3,2023.2.3,iPad,55.55555556,,,,,,,,,,,,533.326,534.318,,,,,,,,,,,,,,,,,,,,,,,,,,534.318,534.869,m,1,0.537,,534.869,534.869,,0,265,265,33,1,34,moda,1381,62.7472,1231,0.1346,4,harmonic,1.55,word,m,,,,,,,
,,,,2023-11-28_19h16.50.972,VH_v3,2023.2.3,iPad,55.55555556,,,,,,,,,,,,534.869,535.869,,,,,,,,,,,,,,,,,,,,,,,,,,535.869,536.41,m,1,0.527,,536.41,536.41,,0,266,266,156,1,157,sosyal,5290,240.3566,4372,0.4779,6,harmonic,,word,m,,,,,,,
,,,,2023-11-28_19h16.50.972,VH_v3,2023.2.3,iPad,55.55555556,,,,,,,,,,,,536.412,537.403,,,,,,,,,,,,,,,,,,,,,,,,,,537.403,537.943,m,1,0.526,,537.944,537.944,,0,267,267,87,1,88,mümkün,6604,300.0596,6264,0.6848,6,harmonic,1.9,word,m,,,,,,,
,,,,2023-11-28_19h16.50.972,VH_v3,2023.2.3,iPad,55.55555556,,,,,,,,,,,,537.945,538.937,,,,,,,,,,,,,,,,,,,,,,,,,,538.937,539.545,z,1,0.594,,539.545,539.546,,0,268,268,326,1,327,melaş,,,,,5,notharmonic,1.8,nw,z,,,,,,,
,,,,2023-11-28_19h16.50.972,VH_v3,2023.2.3,iPad,55.55555556,,,,,,,,,,,,539.546,540.538,,,,,,,,,,,,,,,,,,,,,,,,,,540.538,541.045,m,1,0.494,,541.045,541.045,,0,269,269,41,1,42,zengin,2193,99.6412,2015,0.2203,6,harmonic,1.65,word,m,,,,,,,
,,,,2023-11-28_19h16.50.972,VH_v3,2023.2.3,iPad,55.55555556,,,,,,,,,,,,541.046,542.038,,,,,,,,,,,,,,,,,,,,,,,,,,542.038,542.605,z,1,0.552,,542.605,542.606,,0,270,270,185,1,186,bebin,,,,,5,harmonic,1.7,nw,z,,,,,,,
,,,,2023-11-28_19h16.50.972,VH_v3,2023.2.3,iPad,55.55555556,,,,,,,,,,,,542.606,543.605,,,,,,,,,,,,,,,,,,,,,,,,,,543.606,544.29,z,1,0.668,,544.29,544.29,,0,271,271,211,1,212,metel,,,,,5,harmonic,1.75,nw,z,,,,,,,
,,,,2023-11-28_19h16.50.972,VH_v3,2023.2.3,iPad,55.55555556,,,,,,,,,,,,544.291,545.289,,,,,,,,,,,,,,,,,,,,,,,,,,545.289,545.856,z,1,0.553,,545.856,545.857,,0,272,272,313,1,314,hahih,,,,,5,notharmonic,1.95,nw,z,,,,,,,
,,,,2023-11-28_19h16.50.972,VH_v3,2023.2.3,iPad,55.55555556,,,,,,,,,,,,545.857,546.857,,,,,,,,,,,,,,,,,,,,,,,,,,546.857,547.365,m,1,0.495,,547.365,547.365,,0,273,273,72,1,73,çorba,1674,76.0599,1513,0.1654,5,harmonic,1.75,word,m,,,,,,,
,,,,2023-11-28_19h16.50.972,VH_v3,2023.2.3,iPad,55.55555556,,,,,,,,,,,,547.366,548.357,,,,,,,,,,,,,,,,,,,,,,,,,,548.357,548.998,z,1,0.627,,548.998,548.998,,0,274,274,359,1,360,hisaye,,,,,6,notharmonic,,nw,z,,,,,,,
,,,,2023-11-28_19h16.50.972,VH_v3,2023.2.3,iPad,55.55555556,,,,,,,,,,,,548.999,549.991,,,,,,,,,,,,,,,,,,,,,,,,,,549.991,550.599,z,1,0.593,,550.599,550.6,,0,275,275,194,1,195,yabum,,,,,5,harmonic,2,nw,z,,,,,,,
,,,,2023-11-28_19h16.50.972,VH_v3,2023.2.3,iPad,55.55555556,,,,,,,,,,,,550.601,551.592,,,,,,,,,,,,,,,,,,,,,,,,,,551.592,552.109,m,1,0.503,,552.109,552.11,,0,276,276,103,1,104,yemek,9626,437.3673,8311,0.9086,5,harmonic,,word,m,,,,,,,
,,,,2023-11-28_19h16.50.972,VH_v3,2023.2.3,iPad,55.55555556,,,,,,,,,,,,552.11,553.109,,,,,,,,,,,,,,,,,,,,,,,,,,553.109,553.627,m,1,0.504,,553.627,553.627,,0,277,277,42,1,43,ürün,2268,103.0489,1954,0.2136,4,harmonic,1.1,word,m,,,,,,,
,,,,2023-11-28_19h16.50.972,VH_v3,2023.2.3,iPad,55.55555556,,,,,,,,,,,,553.627,554.627,,,,,,,,,,,,,,,,,,,,,,,,,,554.627,555.31,z,1,0.669,,555.31,555.31,,0,278,278,226,1,227,mara,,,,,4,harmonic,1,nw,z,,,,,,,
,,,,2023-11-28_19h16.50.972,VH_v3,2023.2.3,iPad,55.55555556,,,,,,,,,,,,555.311,556.311,,,,,,,,,,,,,,,,,,,,,,,,,,556.311,556.984,z,1,0.658,,556.984,556.984,,0,279,279,245,1,246,mahram,,,,,6,harmonic,1.85,nw,z,,,,,,,
,,,,2023-11-28_19h16.50.972,VH_v3,2023.2.3,iPad,55.55555556,,,,,,,,,,,,556.985,557.978,,,,,,,,,,,,,,,,,,,,,,,,,,557.978,558.479,m,1,0.486,,558.479,558.479,,0,280,280,131,1,132,derin,3689,167.6135,3328,0.3638,5,harmonic,,word,m,,,,,,,
,,,,2023-11-28_19h16.50.972,VH_v3,2023.2.3,iPad,55.55555556,,,,,,,,,,,,558.48,559.479,,,,,,,,,,,,,,,,,,,,,,,,,,559.479,560.302,z,1,0.811,,560.302,560.303,,0,281,281,238,1,239,bodu,,,,,4,harmonic,1.85,nw,z,,,,,,,
,,,,2023-11-28_19h16.50.972,VH_v3,2023.2.3,iPad,55.55555556,,,,,,,,,,,,560.303,561.296,,,,,,,,,,,,,,,,,,,,,,,,,,561.296,561.83,m,1,0.519,,561.83,561.83,,0,282,282,58,1,59,ayak,2143,97.3694,1931,0.2111,4,harmonic,1,word,m,,,,,,,
,,,,2023-11-28_19h16.50.972,VH_v3,2023.2.3,iPad,55.55555556,,,,,,,,,,,,561.831,562.83,,,,,,,,,,,,,,,,,,,,,,,,,,562.83,563.43,z,1,0.586,,563.43,563.43,,0,283,283,293,1,294,mosil,,,,,5,notharmonic,1.85,nw,z,,,,,,,
,,,,2023-11-28_19h16.50.972,VH_v3,2023.2.3,iPad,55.55555556,,,,,,,,,,,,563.431,564.43,,,,,,,,,,,,,,,,,,,,,,,,,,564.43,564.865,m,1,0.42,,564.865,564.865,,0,284,284,154,1,155,oyun,4926,223.8179,3995,0.4367,4,harmonic,,word,m,,,,,,,
,,,,2023-11-28_19h16.50.972,VH_v3,2023.2.3,iPad,55.55555556,,,,,,,,,,,,564.866,565.864,,,,,,,,,,,,,,,,,,,,,,,,,,565.864,566.365,z,1,0.487,,566.365,566.365,,0,285,285,275,1,276,makis,,,,,5,notharmonic,1.8,nw,z,,,,,,,
,,,,2023-11-28_19h16.50.972,VH_v3,2023.2.3,iPad,55.55555556,,,,,,,,,,,,566.366,567.365,,,,,,,,,,,,,,,,,,,,,,,,,,567.365,568.199,m,0,0.82,,568.199,568.199,,0,286,286,339,1,340,halip,,,,,5,notharmonic,1.5,nw,z,,,,,,,
,,,,2023-11-28_19h16.50.972,VH_v3,2023.2.3,iPad,55.55555556,,,,,,,,,,,,568.199,569.199,,,,,,,,,,,,,,,,,,,,,,,,,,569.199,570.191,z,1,0.978,,570.191,570.191,,0,287,287,348,1,349,minsar,,,,,6,notharmonic,2,nw,z,,,,,,,
,,,,2023-11-28_19h16.50.972,VH_v3,2023.2.3,iPad,55.55555556,,,,,,,,,,,,570.192,571.183,,,,,,,,,,,,,,,,,,,,,,,,,,571.183,571.667,m,1,0.47,,571.667,571.667,,0,288,288,62,1,63,cümle,1911,86.8283,1765,0.193,5,harmonic,1.85,word,m,,,,,,,
,,,,2023-11-28_19h16.50.972,VH_v3,2023.2.3,iPad,55.55555556,,,,,,,,,,,,571.668,572.667,,,,,,,,,,,,,,,,,,,,,,,,,,572.667,573.501,m,0,0.82,,573.501,573.502,,0,289,289,233,1,234,alıt,,,,,4,harmonic,1.15,nw,z,,,,,,,
,,,,2023-11-28_19h16.50.972,VH_v3,2023.2.3,iPad,55.55555556,,,,,,,,,,,,573.502,574.501,,,,,,,,,,,,,,,,,,,,,,,,,,574.501,575.185,z,1,0.672,,575.185,575.185,,0,290,290,181,1,182,erben,,,,,5,harmonic,1.8,nw,z,,,,,,,
,,,,2023-11-28_19h16.50.972,VH_v3,2023.2.3,iPad,55.55555556,,,,,,,,,,,,575.186,576.185,,,,,,,,,,,,,,,,,,,,,,,,,,576.185,576.842,z,1,0.643,,576.842,576.842,,0,291,291,250,1,251,çonsa,,,,,5,harmonic,1.9,nw,z,,,,,,,
,,,,2023-11-28_19h16.50.972,VH_v3,2023.2.3,iPad,55.55555556,,,,,,,,,,,,576.843,577.836,,,,,,,,,,,,,,,,,,,,,,,,,,577.836,578.369,m,1,0.521,,578.369,578.37,,0,292,292,5,1,6,bebek,3301,149.9843,2794,0.3054,5,harmonic,1.6,word,m,,,,,,,
,,,,2023-11-28_19h16.50.972,VH_v3,2023.2.3,iPad,55.55555556,,,,,,,,,,,,578.37,579.37,,,,,,,,,,,,,,,,,,,,,,,,,,579.37,579.953,z,1,0.569,,579.953,579.953,,0,293,293,182,1,183,rafto,,,,,5,harmonic,2,nw,z,,,,,,,
,,,,2023-11-28_19h16.50.972,VH_v3,2023.2.3,iPad,55.55555556,,,,,,,,,,,,579.954,580.954,,,,,,,,,,,,,,,,,,,,,,,,,,580.954,581.71,z,1,0.744,,581.711,581.711,,0,294,294,206,1,207,bülse,,,,,5,harmonic,2,nw,z,,,,,,,
,,,,2023-11-28_19h16.50.972,VH_v3,2023.2.3,iPad,55.55555556,,,,,,,,,,,,581.711,582.704,,,,,,,,,,,,,,,,,,,,,,,,,,582.704,583.588,z,1,0.869,,583.588,583.589,,0,295,295,342,1,343,çaneke,,,,,6,notharmonic,2.6,nw,z,,,,,,,
,,,,2023-11-28_19h16.50.972,VH_v3,2023.2.3,iPad,55.55555556,,,,,,,,,,,,583.589,584.588,,,,,,,,,,,,,,,,,,,,,,,,,,584.588,585.273,z,1,0.671,,585.273,585.273,,0,296,296,188,1,189,hüyen,,,,,5,harmonic,2,nw,z,,,,,,,
,,,,2023-11-28_19h16.50.972,VH_v3,2023.2.3,iPad,55.55555556,,,,,,,,,,,,585.274,586.272,,,,,,,,,,,,,,,,,,,,,,,,,,586.272,586.807,m,1,0.52,,586.807,586.807,,0,297,297,71,1,72,örnek,3463,157.345,3266,0.357,5,harmonic,1.85,word,m,,,,,,,
,,,,2023-11-28_19h16.50.972,VH_v3,2023.2.3,iPad,55.55555556,,,,,,,,,,,,586.808,587.806,,,,,,,,,,,,,,,,,,,,,,,,,,587.806,588.307,m,1,0.487,,588.308,588.308,,0,298,298,73,1,74,millet,1658,75.3329,1508,0.1649,6,harmonic,1.7,word,m,,,,,,,
,,,,2023-11-28_19h16.50.972,VH_v3,2023.2.3,iPad,55.55555556,,,,,,,,,,,,588.308,589.307,,,,,,,,,,,,,,,,,,,,,,,,,,589.307,589.825,m,1,0.504,,589.825,589.825,,0,299,299,112,1,113,genel,7752,352.2201,6893,0.7535,5,harmonic,,word,m,,,,,,,
,,,,2023-11-28_19h16.50.972,VH_v3,2023.2.3,iPad,55.55555556,,,,,,,,,,,,589.826,590.824,,,,,,,,,,,,,,,,,,,,,,,,,,590.824,591.298,m,1,0.462,,591.298,591.299,,0,300,300,77,1,78,ufak,3252,147.758,2980,0.3258,4,harmonic,1.5,word,m,,,,,,,
,,,,2023-11-28_19h16.50.972,VH_v3,2023.2.3,iPad,55.55555556,,,,,,,,,,,,591.299,592.292,,,,,,,,,,,,,,,,,,,,,,,,,,592.292,592.733,m,1,0.427,,592.733,592.733,,0,301,301,101,1,102,kabul,10003,454.4967,9014,0.9854,5,harmonic,,word,m,,,,,,,
,,,,2023-11-28_19h16.50.972,VH_v3,2023.2.3,iPad,55.55555556,,,,,,,,,,,,592.734,593.725,,,,,,,,,,,,,,,,,,,,,,,,,,593.726,594.582,m,1,0.844,,594.582,594.583,,0,302,302,107,1,108,sivil,1334,60.6117,1151,0.1258,5,harmonic,,word,m,,,,,,,
,,,,2023-11-28_19h16.50.972,VH_v3,2023.2.3,iPad,55.55555556,,,,,,,,,,,,594.583,595.576,,,,,,,,,,,,,,,,,,,,,,,,,,595.576,596.193,m,1,0.604,,596.194,596.194,,0,303,303,13,1,14,nokta,2085,94.7341,1939,0.212,5,harmonic,1.5,word,m,,,,,,,
,,,,2023-11-28_19h16.50.972,VH_v3,2023.2.3,iPad,55.55555556,,,,,,,,,,,,596.195,597.193,,,,,,,,,,,,,,,,,,,,,,,,,,597.193,597.768,z,1,0.562,,597.768,597.768,,0,304,304,201,1,202,azlaş,,,,,5,harmonic,1.8,nw,z,,,,,,,
,,,,2023-11-28_19h16.50.972,VH_v3,2023.2.3,iPad,55.55555556,,,,,,,,,,,,597.769,598.761,,,,,,,,,,,,,,,,,,,,,,,,,,598.761,599.252,m,1,0.478,,599.252,599.252,,0,305,305,21,1,22,duygu,1877,85.2834,1760,0.1924,5,harmonic,1.8,word,m,,,,,,,
,,,,2023-11-28_19h16.50.972,VH_v3,2023.2.3,iPad,55.55555556,,,,,,,,,,,,599.253,600.245,,,,,,,,,,,,,,,,,,,,,,,,,,600.245,600.795,m,1,0.536,,600.795,600.795,,0,306,306,15,1,16,hayat,7922,359.9443,7314,0.7996,5,harmonic,1.9,word,m,,,,,,,
,,,,2023-11-28_19h16.50.972,VH_v3,2023.2.3,iPad,55.55555556,,,,,,,,,,,,600.796,601.795,,,,,,,,,,,,,,,,,,,,,,,,,,601.795,602.302,m,1,0.495,,602.302,602.302,,0,307,307,175,1,176,gündüz,1167,53.0239,1088,0.1189,6,harmonic,,word,m,,,,,,,
,,,,2023-11-28_19h16.50.972,VH_v3,2023.2.3,iPad,55.55555556,,,,,,,,,,,,602.302,603.296,,,,,,,,,,,,,,,,,,,,,,,,,,603.296,603.903,z,1,0.594,,603.903,603.903,,0,308,308,237,1,238,küyek,,,,,5,harmonic,1.8,nw,z,,,,,,,
,,,,2023-11-28_19h16.50.972,VH_v3,2023.2.3,iPad,55.55555556,,,,,,,,,,,,603.904,604.897,,,,,,,,,,,,,,,,,,,,,,,,,,604.897,605.52,z,1,0.61,,605.52,605.52,,0,309,309,246,1,247,ülmet,,,,,5,harmonic,1.9,nw,z,,,,,,,
,,,,2023-11-28_19h16.50.972,VH_v3,2023.2.3,iPad,55.55555556,,,,,,,,,,,,605.521,606.514,,,,,,,,,,,,,,,,,,,,,,,,,,606.514,607.187,z,1,0.662,,607.187,607.187,,0,310,310,221,1,222,ülük,,,,,4,harmonic,1.55,nw,z,,,,,,,
,,,,2023-11-28_19h16.50.972,VH_v3,2023.2.3,iPad,55.55555556,,,,,,,,,,,,607.188,608.181,,,,,,,,,,,,,,,,,,,,,,,,,,608.181,608.671,m,1,0.477,,608.671,608.671,,0,311,311,27,1,28,bölge,1283,58.2944,1123,0.1228,5,harmonic,1.65,word,m,,,,,,,
,,,,2023-11-28_19h16.50.972,VH_v3,2023.2.3,iPad,55.55555556,,,,,,,,,,,,608.672,609.665,,,,,,,,,,,,,,,,,,,,,,,,,,609.665,610.289,z,1,0.611,,610.289,610.289,,0,312,312,203,1,204,yırdun,,,,,6,harmonic,2.8,nw,z,,,,,,,
,,,,2023-11-28_19h16.50.972,VH_v3,2023.2.3,iPad,55.55555556,,,,,,,,,,,,610.29,611.282,,,,,,,,,,,,,,,,,,,,,,,,,,611.282,611.916,m,1,0.62,,611.916,611.916,,0,313,313,111,1,112,soğan,1315,59.7484,1202,0.1314,5,harmonic,,word,m,,,,,,,
,,,,2023-11-28_19h16.50.972,VH_v3,2023.2.3,iPad,55.55555556,,,,,,,,,,,,611.917,612.916,,,,,,,,,,,,,,,,,,,,,,,,,,612.916,613.4,m,1,0.469,,613.4,613.4,,0,314,314,149,1,150,ince,4045,183.7888,3429,0.3749,4,harmonic,,word,m,,,,,,,
,,,,2023-11-28_19h16.50.972,VH_v3,2023.2.3,iPad,55.55555556,,,,,,,,,,,,613.401,614.4,,,,,,,,,,,,,,,,,,,,,,,,,,614.4,614.84,m,1,0.427,,614.84,614.841,,0,315,315,74,1,75,başarı,1398,63.5196,1300,0.1421,6,harmonic,1.2,word,m,,,,,,,
,,,,2023-11-28_19h16.50.972,VH_v3,2023.2.3,iPad,55.55555556,,,,,,,,,,,,614.841,615.834,,,,,,,,,,,,,,,,,,,,,,,,,,615.834,616.251,m,1,0.404,,616.251,616.251,,0,316,316,55,1,56,akıl,2208,100.3228,2004,0.2191,4,harmonic,1,word,m,,,,,,,
,,,,2023-11-28_19h16.50.972,VH_v3,2023.2.3,iPad,55.55555556,,,,,,,,,,,,616.252,617.252,,,,,,,,,,,,,,,,,,,,,,,,,,617.252,617.692,m,1,0.427,,617.692,617.692,,0,317,317,146,1,147,sarı,2072,94.1435,1838,0.2009,4,harmonic,,word,m,,,,,,,
,,,,2023-11-28_19h16.50.972,VH_v3,2023.2.3,iPad,55.55555556,,,,,,,,,,,,617.693,618.685,,,,,,,,,,,,,,,,,,,,,,,,,,618.685,619.12,m,1,0.42,,619.12,619.12,,0,318,318,119,1,120,rahat,4833,219.5924,4316,0.4718,5,harmonic,,word,m,,,,,,,
,,,,2023-11-28_19h16.50.972,VH_v3,2023.2.3,iPad,55.55555556,,,,,,,,,,,,619.121,620.119,,,,,,,,,,,,,,,,,,,,,,,,,,620.119,620.503,m,1,0.37,,620.503,620.503,,0,319,319,115,1,116,uygun,6757,307.0113,6297,0.6884,5,harmonic,,word,m,,,,,,,
,,,,2023-11-28_19h16.50.972,VH_v3,2023.2.3,iPad,55.55555556,,,,,,,,,,,,620.503,621.503,,,,,,,,,,,,,,,,,,,,,,,,,,621.503,622.087,z,1,0.57,,622.087,622.087,,0,320,320,320,1,321,sivaka,,,,,6,notharmonic,2.3,nw,z,,,,,,,
,,,,2023-11-28_19h16.50.972,VH_v3,2023.2.3,iPad,55.55555556,,,,,,,,,,,,622.087,623.087,,,,,,,,,,,,,,,,,,,,,,,,,,623.087,623.821,z,1,0.72,,623.821,623.821,,0,321,321,297,1,298,şasep,,,,,5,notharmonic,1.9,nw,z,,,,,,,
,,,,2023-11-28_19h16.50.972,VH_v3,2023.2.3,iPad,55.55555556,,,,,,,,,,,,623.822,624.821,,,,,,,,,,,,,,,,,,,,,,,,,,624.821,625.371,m,1,0.536,,625.371,625.372,,0,322,322,106,1,107,sağlık,8866,402.8359,8289,0.9062,5,harmonic,,word,m,,,,,,,
,,,,2023-11-28_19h16.50.972,VH_v3,2023.2.3,iPad,55.55555556,,,,,,,,,,,,625.372,626.372,,,,,,,,,,,,,,,,,,,,,,,,,,626.372,626.946,z,1,0.56,,626.946,626.946,,0,323,323,204,1,205,cabor,,,,,5,harmonic,2.1,nw,z,,,,,,,
,,,,2023-11-28_19h16.50.972,VH_v3,2023.2.3,iPad,55.55555556,,,,,,,,,,,,626.947,627.939,,,,,,,,,,,,,,,,,,,,,,,,,,627.939,628.613,m,1,0.661,,628.613,628.613,,0,324,324,48,1,49,teşvik,932,42.3464,867,0.0948,6,harmonic,1.8,word,m,,,,,,,
,,,,2023-11-28_19h16.50.972,VH_v3,2023.2.3,iPad,55.55555556,,,,,,,,,,,,628.613,629.606,,,,,,,,,,,,,,,,,,,,,,,,,,629.606,630.065,m,1,0.446,,630.065,630.065,,0,325,325,130,1,131,sonuç,3768,171.203,3626,0.3964,5,harmonic,,word,m,,,,,,,
,,,,2023-11-28_19h16.50.972,VH_v3,2023.2.3,iPad,55.55555556,,,,,,,,,,,,630.066,631.057,,,,,,,,,,,,,,,,,,,,,,,,,,631.057,631.48,m,1,0.411,,631.48,631.48,,0,326,326,70,1,71,yarın,3440,156.3,3222,0.3522,5,harmonic,1.85,word,m,,,,,,,
,,,,2023-11-28_19h16.50.972,VH_v3,2023.2.3,iPad,55.55555556,,,,,,,,,,,,631.481,632.474,,,,,,,,,,,,,,,,,,,,,,,,,,632.474,632.964,z,1,0.477,,632.964,632.964,,0,327,327,212,1,213,toya,,,,,4,harmonic,1.6,nw,z,,,,,,,
,,,,2023-11-28_19h16.50.972,VH_v3,2023.2.3,iPad,55.55555556,,,,,,,,,,,,632.965,633.958,,,,,,,,,,,,,,,,,,,,,,,,,,633.958,634.492,z,1,0.52,,634.492,634.492,,0,328,328,220,1,221,lingin,,,,,6,harmonic,1.85,nw,z,,,,,,,
,,,,2023-11-28_19h16.50.972,VH_v3,2023.2.3,iPad,55.55555556,,,,,,,,,,,,634.492,635.492,,,,,,,,,,,,,,,,,,,,,,,,,,635.492,635.999,m,1,0.495,,635.999,635.999,,0,329,329,135,1,136,değer,3333,151.4383,3084,0.3371,5,harmonic,,word,m,,,,,,,
,,,,2023-11-28_19h16.50.972,VH_v3,2023.2.3,iPad,55.55555556,,,,,,,,,,,,636,636.992,,,,,,,,,,,,,,,,,,,,,,,,,,636.993,637.443,m,1,0.436,,637.443,637.443,,0,330,330,90,1,91,güzel,42841,1946.5251,37209,4.0677,5,harmonic,,word,m,,,,,,,
,,,,2023-11-28_19h16.50.972,VH_v3,2023.2.3,iPad,55.55555556,,,,,,,,,,,,637.444,638.443,,,,,,,,,,,,,,,,,,,,,,,,,,638.443,638.967,z,1,0.511,,638.967,638.967,,0,331,331,260,1,261,abaf,,,,,4,harmonic,1.85,nw,z,,,,,,,
,,,,2023-11-28_19h16.50.972,VH_v3,2023.2.3,iPad,55.55555556,,,,,,,,,,,,638.967,639.96,,,,,,,,,,,,,,,,,,,,,,,,,,639.961,640.434,m,1,0.463,,640.434,640.434,,0,332,332,143,1,144,isim,2366,107.5017,2163,0.2365,4,harmonic,,word,m,,,,,,,
,,,,2023-11-28_19h16.50.972,VH_v3,2023.2.3,iPad,55.55555556,,,,,,,,,,,,640.435,641.428,,,,,,,,,,,,,,,,,,,,,,,,,,641.428,641.995,z,1,0.552,,641.995,641.995,,0,333,333,285,1,286,safiç,,,,,5,notharmonic,1.9,nw,z,,,,,,,
,,,,2023-11-28_19h16.50.972,VH_v3,2023.2.3,iPad,55.55555556,,,,,,,,,,,,641.996,642.995,,,,,,,,,,,,,,,,,,,,,,,,,,642.995,643.602,z,1,0.594,,643.602,643.602,,0,334,334,299,1,300,kurüs,,,,,5,notharmonic,1.95,nw,z,,,,,,,
,,,,2023-11-28_19h16.50.972,VH_v3,2023.2.3,iPad,55.55555556,,,,,,,,,,,,643.602,644.596,,,,,,,,,,,,,,,,,,,,,,,,,,644.596,645.136,z,1,0.527,,645.136,645.136,,0,335,335,223,1,224,kamut,,,,,5,harmonic,1.5,nw,z,,,,,,,
,,,,2023-11-28_19h16.50.972,VH_v3,2023.2.3,iPad,55.55555556,,,,,,,,,,,,645.136,646.13,,,,,,,,,,,,,,,,,,,,,,,,,,646.13,646.831,z,1,0.687,,646.831,646.831,,0,336,336,310,1,311,moderp,,,,,6,notharmonic,,nw,z,,,,,,,
,,,,2023-11-28_19h16.50.972,VH_v3,2023.2.3,iPad,55.55555556,,,,,,,,,,,,646.832,647.83,,,,,,,,,,,,,,,,,,,,,,,,,,647.83,648.298,m,1,0.451,,648.298,648.298,,0,337,337,43,1,44,geniş,3380,153.5738,3185,0.3482,5,harmonic,1.35,word,m,,,,,,,
,,,,2023-11-28_19h16.50.972,VH_v3,2023.2.3,iPad,55.55555556,,,,,,,,,,,,648.299,649.297,,,,,,,,,,,,,,,,,,,,,,,,,,649.298,649.738,m,1,0.427,,649.738,649.738,,0,338,338,132,1,133,soğuk,3676,167.0229,3359,0.3672,5,harmonic,,word,m,,,,,,,
,,,,2023-11-28_19h16.50.972,VH_v3,2023.2.3,iPad,55.55555556,,,,,,,,,,,,649.739,650.731,,,,,,,,,,,,,,,,,,,,,,,,,,650.731,651.249,z,1,0.503,,651.249,651.249,,0,339,339,279,1,280,ikaza,,,,,5,notharmonic,1.9,nw,z,,,,,,,
,,,,2023-11-28_19h16.50.972,VH_v3,2023.2.3,iPad,55.55555556,,,,,,,,,,,,651.25,652.249,,,,,,,,,,,,,,,,,,,,,,,,,,652.249,652.906,z,1,0.644,,652.906,652.906,,0,340,340,343,1,344,tazen,,,,,5,notharmonic,1.8,nw,z,,,,,,,
,,,,2023-11-28_19h16.50.972,VH_v3,2023.2.3,iPad,55.55555556,,,,,,,,,,,,652.907,653.899,,,,,,,,,,,,,,,,,,,,,,,,,,653.899,654.4,z,1,0.486,,654.4,654.4,,0,341,341,351,1,352,eula,,,,,4,notharmonic,1.65,nw,z,,,,,,,
,,,,2023-11-28_19h16.50.972,VH_v3,2023.2.3,iPad,55.55555556,,,,,,,,,,,,654.401,655.4,,,,,,,,,,,,,,,,,,,,,,,,,,655.4,656.123,z,1,0.71,,656.124,656.124,,0,342,342,253,1,254,notan,,,,,5,harmonic,1.85,nw,z,,,,,,,
,,,,2023-11-28_19h16.50.972,VH_v3,2023.2.3,iPad,55.55555556,,,,,,,,,,,,656.124,657.117,,,,,,,,,,,,,,,,,,,,,,,,,,657.117,657.717,m,1,0.586,,657.718,657.718,,0,343,343,63,1,64,sultan,1756,79.7857,1368,0.1496,6,harmonic,1.55,word,m,,,,,,,
,,,,2023-11-28_19h16.50.972,VH_v3,2023.2.3,iPad,55.55555556,,,,,,,,,,,,657.718,658.718,,,,,,,,,,,,,,,,,,,,,,,,,,658.718,659.16,m,1,0.429,,659.16,659.16,,0,344,344,57,1,58,bölüm,1910,86.7828,1605,0.1755,5,harmonic,1.45,word,m,,,,,,,
,,,,2023-11-28_19h16.50.972,VH_v3,2023.2.3,iPad,55.55555556,,,,,,,,,,,,659.161,660.152,,,,,,,,,,,,,,,,,,,,,,,,,,660.152,660.66,m,1,0.495,,660.66,660.66,,0,345,345,40,1,41,tepki,1695,77.0141,1578,0.1725,5,harmonic,1.55,word,m,,,,,,,
,,,,2023-11-28_19h16.50.972,VH_v3,2023.2.3,iPad,55.55555556,,,,,,,,,,,,660.662,661.653,,,,,,,,,,,,,,,,,,,,,,,,,,661.653,662.276,z,1,0.609,,662.276,662.276,,0,346,346,345,1,346,kiru,,,,,4,notharmonic,1.8,nw,z,,,,,,,
,,,,2023-11-28_19h16.50.972,VH_v3,2023.2.3,iPad,55.55555556,,,,,,,,,,,,662.277,663.27,,,,,,,,,,,,,,,,,,,,,,,,,,663.27,664.227,z,1,0.943,,664.227,664.227,,0,347,347,298,1,299,memzur,,,,,6,notharmonic,1.95,nw,z,,,,,,,
,,,,2023-11-28_19h16.50.972,VH_v3,2023.2.3,iPad,55.55555556,,,,,,,,,,,,664.228,665.22,,,,,,,,,,,,,,,,,,,,,,,,,,665.22,665.837,z,1,0.607,,665.838,665.838,,0,348,348,311,1,312,mase,,,,,4,notharmonic,1.75,nw,z,,,,,,,
,,,,2023-11-28_19h16.50.972,VH_v3,2023.2.3,iPad,55.55555556,,,,,,,,,,,,665.838,666.838,,,,,,,,,,,,,,,,,,,,,,,,,,666.838,667.388,z,1,0.536,,667.388,667.388,,0,349,349,319,1,320,mafke,,,,,5,notharmonic,1.9,nw,z,,,,,,,
,,,,2023-11-28_19h16.50.972,VH_v3,2023.2.3,iPad,55.55555556,,,,,,,,,,,,667.389,668.388,,,,,,,,,,,,,,,,,,,,,,,,,,668.388,668.906,m,1,0.504,,668.906,668.906,,0,350,350,59,1,60,köpek,1044,47.4352,901,0.0985,5,harmonic,1.75,word,m,,,,,,,
,,,,2023-11-28_19h16.50.972,VH_v3,2023.2.3,iPad,55.55555556,,,,,,,,,,,,668.907,669.906,,,,,,,,,,,,,,,,,,,,,,,,,,669.906,670.579,z,1,0.661,,670.579,670.579,,0,351,351,321,1,322,kibas,,,,,5,notharmonic,1.9,nw,z,,,,,,,
,,,,2023-11-28_19h16.50.972,VH_v3,2023.2.3,iPad,55.55555556,,,,,,,,,,,,670.58,671.573,,,,,,,,,,,,,,,,,,,,,,,,,,671.573,672.073,m,1,0.486,,672.073,672.073,,0,352,352,116,1,117,tatlı,5515,250.5797,4949,0.541,5,harmonic,,word,m,,,,,,,
,,,,2023-11-28_19h16.50.972,VH_v3,2023.2.3,iPad,55.55555556,,,,,,,,,,,,672.074,673.074,,,,,,,,,,,,,,,,,,,,,,,,,,673.074,673.54,m,1,0.453,,673.541,673.541,,0,353,353,167,1,168,yoğurt,1484,67.4271,1359,0.1486,6,harmonic,,word,m,,,,,,,
,,,,2023-11-28_19h16.50.972,VH_v3,2023.2.3,iPad,55.55555556,,,,,,,,,,,,673.541,674.541,,,,,,,,,,,,,,,,,,,,,,,,,,674.541,675.014,m,1,0.461,,675.014,675.015,,0,354,354,46,1,47,takım,4370,198.5555,3726,0.4073,5,harmonic,1.7,word,m,,,,,,,
,,,,2023-11-28_19h16.50.972,VH_v3,2023.2.3,iPad,55.55555556,,,,,,,,,,,,675.015,676.008,,,,,,,,,,,,,,,,,,,,,,,,,,676.008,676.465,m,1,0.446,,676.465,676.465,,0,355,355,80,1,81,merkez,1445,65.6551,1255,0.1372,6,harmonic,1.8,word,m,,,,,,,
,,,,2023-11-28_19h16.50.972,VH_v3,2023.2.3,iPad,55.55555556,,,,,,,,,,,,676.466,677.459,,,,,,,,,,,,,,,,,,,,,,,,,,677.459,677.982,m,1,0.511,,677.982,677.983,,0,356,356,179,1,180,mesele,995,45.2089,929,0.1016,6,harmonic,,word,m,,,,,,,
,,,,2023-11-28_19h16.50.972,VH_v3,2023.2.3,iPad,55.55555556,,,,,,,,,,,,677.983,678.976,,,,,,,,,,,,,,,,,,,,,,,,,,678.976,679.459,m,1,0.47,,679.459,679.46,,0,357,357,29,1,30,huzur,1911,86.8283,1799,0.1967,5,harmonic,1.8,word,m,,,,,,,
,,,,2023-11-28_19h16.50.972,VH_v3,2023.2.3,iPad,55.55555556,,,,,,,,,,,,679.46,680.46,,,,,,,,,,,,,,,,,,,,,,,,,,680.46,681.027,m,1,0.553,,681.027,681.027,,0,358,358,50,1,51,kanun,1198,54.4324,1010,0.1104,5,harmonic,1.6,word,m,,,,,,,
,,,,2023-11-28_19h16.50.972,VH_v3,2023.2.3,iPad,55.55555556,,,,,,,,,,,,681.028,682.027,,,,,,,,,,,,,,,,,,,,,,,,,,682.027,682.445,m,1,0.403,,682.445,682.445,,0,359,359,136,1,137,süper,3256,147.9397,2989,0.3268,5,harmonic,,word,m,,,,,,,
,,,,2023-11-28_19h16.50.972,VH_v3,2023.2.3,iPad,55.55555556,,,,,,,,,,,,,,,,,,,,,,,,,,,,,,,,,,,,,,,,,,,,,,,,,,,,,,,,,,,,,,,,,,682.446,684,space,1.54,