anket.started,anket.stopped,participant,session,date,expName,psychopyVersion,OS,frameRate,Welcome_screen.started,Welcome_screen.stopped,key_respwelcome.keys,key_respwelcome.rt,key_respwelcome.duration,intro_x.thisRepN,intro_x.thisTrialN,intro_x.thisN,intro_x.thisIndex,intro_x.ran,Introduction,Fixation.started,Fixation.stopped,Studypractice.started,Studypractice.stopped,key_respstudy.keys,key_respstudy.corr,key_respstudy.rt,key_respstudy.duration,rt,corr,Feedback.started,Feedback.stopped,practice_loop.thisRepN,practice_loop.thisTrialN,practice_loop.thisN,practice_loop.thisIndex,practice_loop.ran,item_nr_p,target_p,isHarmonic_p,target_cond_p,CorrAns_p,Instraction.started,Instraction.stopped,key_respınstraction.keys,key_respınstraction.rt,key_respınstraction.duration,TestTrial.started,TestTrial.stopped,key_respTest.keys,key_respTest.corr,key_respTest.rt,key_respTest.duration,Pause.started,Pause.stopped,key_resp_xx.keys,test_loop.thisRepN,test_loop.thisTrialN,test_loop.thisN,test_loop.thisIndex,test_loop.ran,item_nr,target,BlogFreq_A1,BlogFreqpm_A1,BlogCD_A1,BlogCDPc_A1,WordLength_A1,isHarmonic_A1,old20,target_cond,CorrAns,key_resp_xx.rt,key_resp_xx.duration,Goodbye_screen.started,Goodbye_screen.stopped,key_respgoodbye.keys,key_respgoodbye.rt,key_respgoodbye.duration
0.0002,0.0005,,,2023-11-28_12h55.09.084,VH_v3,2023.2.3,Win32,59.93766483,,,,,,,,,,,,,,,,,,,,,,,,,,,,,,,,,,,,,,,,,,,,,,,,,,,,,,,,,,,,,,,,,,,,,,
,,,,2023-11-28_12h55.09.084,VH_v3,2023.2.3,Win32,59.93766483,0.0139,4.6497,space,4.6252,,0,0,0,0,1,"Deneye hoş geldiniz,

Devam etmek için BOŞLUK tuşuna basınız.",,,,,,,,,,,,,,,,,,,,,,,,,,,,,,,,,,,,,,,,,,,,,,,,,,,,,,,,,,,
,,,,2023-11-28_12h55.09.084,VH_v3,2023.2.3,Win32,59.93766483,4.6501,19.8178,space,15.1473,,0,1,1,1,1,"Bu çalışma Valencia Üniversitesi kapsamında yürütülmektedir. Deneydeki göreviniz, ekrana çıkacak Türkçe sözcüklerin kelime olup olmadığını belirlemenizdir. Eğer sözcük gerçek bir kelime ise ""m"" tuşuna, değil ise ""z"" tuşuna basınız.   

Devam etmek için BOŞLUK tuşuna basınız.",,,,,,,,,,,,,,,,,,,,,,,,,,,,,,,,,,,,,,,,,,,,,,,,,,,,,,,,,,,
,,,,2023-11-28_12h55.09.084,VH_v3,2023.2.3,Win32,59.93766483,19.8321,25.7724,space,5.9235,,0,2,2,2,1,"Her sözcük için en fazla iki saniyede cevap vermeniz beklenmektedir. Aksi takdirde deney bir sonraki sözcük ile devam eder. 
Bu çalışmada oldukça hızlı ve doğru cevaplama yapmanız beklenmektedir.

Devam etmek için BOŞLUK tuşuna basınız.",,,,,,,,,,,,,,,,,,,,,,,,,,,,,,,,,,,,,,,,,,,,,,,,,,,,,,,,,,,
,,,,2023-11-28_12h55.09.084,VH_v3,2023.2.3,Win32,59.93766483,25.7857,29.2418,space,3.4378,,0,3,3,3,1,"Çalışmaya başlamadan önce ufak bir pratik yer almaktadır.
Kelimedir: ""m""
Kelime değildir: ""z""

Pratik teste başlamak için BOŞLUK tuşuna basınız. ",,,,,,,,,,,,,,,,,,,,,,,,,,,,,,,,,,,,,,,,,,,,,,,,,,,,,,,,,,,
,,,,2023-11-28_12h55.09.084,VH_v3,2023.2.3,Win32,59.93766483,,,,,,,,,,,,29.2683,30.2431,30.2433,31.4444,z,0,1.1694,,1.1694,0,31.4449,32.9454,0,0,0,6,1,7,sebep,harmonic,word,m,,,,,,,,,,,,,,,,,,,,,,,,,,,,,,,,,,,,,
,,,,2023-11-28_12h55.09.084,VH_v3,2023.2.3,Win32,59.93766483,,,,,,,,,,,,32.948,33.9459,33.946,34.6132,m,1,0.6444,,0.6444,1,34.6132,36.114,0,1,1,2,1,3,yardım,harmonic,word,m,,,,,,,,,,,,,,,,,,,,,,,,,,,,,,,,,,,,,
,,,,2023-11-28_12h55.09.084,VH_v3,2023.2.3,Win32,59.93766483,,,,,,,,,,,,36.1146,37.1152,37.1153,37.7324,z,1,0.5993,,0.5993,1,37.7325,39.2331,0,2,2,22,1,23,gizım,notharmonic,nw,z,,,,,,,,,,,,,,,,,,,,,,,,,,,,,,,,,,,,,
,,,,2023-11-28_12h55.09.084,VH_v3,2023.2.3,Win32,59.93766483,,,,,,,,,,,,39.2336,40.2345,40.2346,40.9183,m,1,0.6632,,0.6632,1,40.9183,42.4195,0,3,3,1,1,2,veri,harmonic,word,m,,,,,,,,,,,,,,,,,,,,,,,,,,,,,,,,,,,,,
,,,,2023-11-28_12h55.09.084,VH_v3,2023.2.3,Win32,59.93766483,,,,,,,,,,,,42.4201,43.4207,43.4207,43.9538,m,1,0.5182,,0.5182,1,43.9539,45.4553,0,4,4,11,1,12,teslim,harmonic,word,m,,,,,,,,,,,,,,,,,,,,,,,,,,,,,,,,,,,,,
,,,,2023-11-28_12h55.09.084,VH_v3,2023.2.3,Win32,59.93766483,,,,,,,,,,,,45.4558,46.4564,46.4566,46.9732,m,1,0.4942,,0.4942,1,46.9733,48.4745,0,5,5,4,1,5,soğuk,harmonic,word,m,,,,,,,,,,,,,,,,,,,,,,,,,,,,,,,,,,,,,
,,,,2023-11-28_12h55.09.084,VH_v3,2023.2.3,Win32,59.93766483,,,,,,,,,,,,48.4751,49.4756,49.4757,49.9588,m,1,0.4662,,0.4662,1,49.9589,51.4603,0,6,6,0,1,1,hazır,harmonic,word,m,,,,,,,,,,,,,,,,,,,,,,,,,,,,,,,,,,,,,
,,,,2023-11-28_12h55.09.084,VH_v3,2023.2.3,Win32,59.93766483,,,,,,,,,,,,51.461,52.4609,52.461,52.9616,m,1,0.4791,,0.4791,1,52.9617,54.4628,0,7,7,10,1,11,nefret,harmonic,word,m,,,,,,,,,,,,,,,,,,,,,,,,,,,,,,,,,,,,,
,,,,2023-11-28_12h55.09.084,VH_v3,2023.2.3,Win32,59.93766483,,,,,,,,,,,,54.4633,55.4638,55.4638,55.8635,m,1,0.3895,,0.3895,1,55.8635,57.3654,0,8,8,5,1,6,gizli,harmonic,word,m,,,,,,,,,,,,,,,,,,,,,,,,,,,,,,,,,,,,,
,,,,2023-11-28_12h55.09.084,VH_v3,2023.2.3,Win32,59.93766483,,,,,,,,,,,,57.3657,58.3656,58.3656,58.7992,m,0,0.4227,,0.4227,0,58.7992,60.3009,0,9,9,12,1,13,tahip,notharmonic,nw,z,,,,,,,,,,,,,,,,,,,,,,,,,,,,,,,,,,,,,
,,,,2023-11-28_12h55.09.084,VH_v3,2023.2.3,Win32,59.93766483,,,,,,,,,,,,60.3016,61.3018,61.3019,61.8522,m,0,0.5315,,0.5315,0,61.8523,63.3534,0,10,10,19,1,20,mımal,harmonic,nw,z,,,,,,,,,,,,,,,,,,,,,,,,,,,,,,,,,,,,,
,,,,2023-11-28_12h55.09.084,VH_v3,2023.2.3,Win32,59.93766483,,,,,,,,,,,,63.3539,64.3539,64.354,64.9047,z,1,0.5321,,0.5321,1,64.9047,66.4063,0,11,11,16,1,17,ihlot,notharmonic,nw,z,,,,,,,,,,,,,,,,,,,,,,,,,,,,,,,,,,,,,
,,,,2023-11-28_12h55.09.084,VH_v3,2023.2.3,Win32,59.93766483,,,,,,,,,,,,66.4067,67.4067,67.4067,68.0236,z,1,0.603,,0.603,1,68.0237,69.5248,0,12,12,21,1,22,güçli,harmonic,nw,z,,,,,,,,,,,,,,,,,,,,,,,,,,,,,,,,,,,,,
,,,,2023-11-28_12h55.09.084,VH_v3,2023.2.3,Win32,59.93766483,,,,,,,,,,,,69.5253,70.526,70.5261,71.1596,z,1,0.6197,,0.6197,1,71.1596,72.6615,0,13,13,23,1,24,zarim,notharmonic,nw,z,,,,,,,,,,,,,,,,,,,,,,,,,,,,,,,,,,,,,
,,,,2023-11-28_12h55.09.084,VH_v3,2023.2.3,Win32,59.93766483,,,,,,,,,,,,72.6619,73.662,73.662,74.4455,z,1,0.765,,0.765,1,74.4455,75.9473,0,14,14,20,1,21,yoğuk,harmonic,nw,z,,,,,,,,,,,,,,,,,,,,,,,,,,,,,,,,,,,,,
,,,,2023-11-28_12h55.09.084,VH_v3,2023.2.3,Win32,59.93766483,,,,,,,,,,,,75.9478,76.948,76.9481,77.6314,z,1,0.673,,0.673,1,77.6314,79.1332,0,15,15,17,1,18,pilar,notharmonic,nw,z,,,,,,,,,,,,,,,,,,,,,,,,,,,,,,,,,,,,,
,,,,2023-11-28_12h55.09.084,VH_v3,2023.2.3,Win32,59.93766483,,,,,,,,,,,,79.1337,80.1343,80.1343,80.668,m,1,0.5131,,0.5131,1,80.6681,82.1689,0,16,16,8,1,9,bilim,harmonic,word,m,,,,,,,,,,,,,,,,,,,,,,,,,,,,,,,,,,,,,
,,,,2023-11-28_12h55.09.084,VH_v3,2023.2.3,Win32,59.93766483,,,,,,,,,,,,82.1693,83.1702,83.1702,83.6703,z,1,0.481,,0.481,1,83.6704,85.1717,0,17,17,18,1,19,pimer,harmonic,nw,z,,,,,,,,,,,,,,,,,,,,,,,,,,,,,,,,,,,,,
,,,,2023-11-28_12h55.09.084,VH_v3,2023.2.3,Win32,59.93766483,,,,,,,,,,,,85.1723,86.1729,86.1729,86.7729,z,1,0.5792,,0.5792,1,86.773,88.2741,0,18,18,13,1,14,orat,harmonic,nw,z,,,,,,,,,,,,,,,,,,,,,,,,,,,,,,,,,,,,,
,,,,2023-11-28_12h55.09.084,VH_v3,2023.2.3,Win32,59.93766483,,,,,,,,,,,,88.2746,89.2748,89.2749,89.8419,m,1,0.5494,,0.5494,1,89.8419,91.3433,0,19,19,9,1,10,zarar,harmonic,word,m,,,,,,,,,,,,,,,,,,,,,,,,,,,,,,,,,,,,,
,,,,2023-11-28_12h55.09.084,VH_v3,2023.2.3,Win32,59.93766483,,,,,,,,,,,,91.3438,92.3438,92.3439,92.911,z,1,0.547,,0.547,1,92.911,94.4122,0,20,20,14,1,15,mahne,notharmonic,nw,z,,,,,,,,,,,,,,,,,,,,,,,,,,,,,,,,,,,,,
,,,,2023-11-28_12h55.09.084,VH_v3,2023.2.3,Win32,59.93766483,,,,,,,,,,,,94.4128,95.4133,95.4133,95.9468,m,1,0.5136,,0.5136,1,95.9469,97.4477,0,21,21,7,1,8,oran,harmonic,word,m,,,,,,,,,,,,,,,,,,,,,,,,,,,,,,,,,,,,,
,,,,2023-11-28_12h55.09.084,VH_v3,2023.2.3,Win32,59.93766483,,,,,,,,,,,,97.448,98.4488,98.4488,99.0997,z,1,0.6314,,0.6314,1,99.0998,100.6011,0,22,22,15,1,16,geki,harmonic,nw,z,,,,,,,,,,,,,,,,,,,,,,,,,,,,,,,,,,,,,
,,,,2023-11-28_12h55.09.084,VH_v3,2023.2.3,Win32,59.93766483,,,,,,,,,,,,100.6016,101.6018,101.6018,102.0518,m,1,0.4307,,0.4307,1,102.0519,103.5532,0,23,23,3,1,4,sevgi,harmonic,word,m,,,,,,,,,,,,,,,,,,,,,,,,,,,,,,,,,,,,,
,,,,2023-11-28_12h55.09.084,VH_v3,2023.2.3,Win32,59.93766483,,,,,,,,,,,,,,,,,,,,,,,,,,,,,,,,,,103.5545,109.3917,space,5.8231,,,,,,,,,,,,,,,,,,,,,,,,,,,,,,,,,
,,,,2023-11-28_12h55.09.084,VH_v3,2023.2.3,Win32,59.93766483,,,,,,,,,,,,109.4281,110.3927,,,,,,,,,,,,,,,,,,,,,,,,,,110.393,111.3771,m,1,0.9651,,111.3773,111.379,,0,0,0,179,1,180,mesele,995,45.2089,929,0.1016,6,harmonic,,word,m,,,,,,,
,,,,2023-11-28_12h55.09.084,VH_v3,2023.2.3,Win32,59.93766483,,,,,,,,,,,,111.3795,112.3777,,,,,,,,,,,,,,,,,,,,,,,,,,112.3777,112.7944,m,1,0.3961,,112.7944,112.7944,,0,1,1,32,1,33,temel,4231,192.2399,3851,0.421,5,harmonic,1.55,word,m,,,,,,,
,,,,2023-11-28_12h55.09.084,VH_v3,2023.2.3,Win32,59.93766483,,,,,,,,,,,,112.7947,113.7952,,,,,,,,,,,,,,,,,,,,,,,,,,113.7954,114.2289,m,1,0.4139,,114.229,114.2291,,0,2,2,135,1,136,değer,3333,151.4383,3084,0.3371,5,harmonic,,word,m,,,,,,,
,,,,2023-11-28_12h55.09.084,VH_v3,2023.2.3,Win32,59.93766483,,,,,,,,,,,,114.2296,115.2295,,,,,,,,,,,,,,,,,,,,,,,,,,115.2296,115.9467,m,1,0.701,,115.9468,115.9468,,0,3,3,118,1,119,deniz,5006,227.4528,4256,0.4653,5,harmonic,,word,m,,,,,,,
,,,,2023-11-28_12h55.09.084,VH_v3,2023.2.3,Win32,59.93766483,,,,,,,,,,,,115.9472,116.9476,,,,,,,,,,,,,,,,,,,,,,,,,,116.9477,117.3478,m,1,0.3848,,117.3479,117.348,,0,4,4,126,1,127,ciddi,4147,188.4232,3686,0.403,5,harmonic,,word,m,,,,,,,
,,,,2023-11-28_12h55.09.084,VH_v3,2023.2.3,Win32,59.93766483,,,,,,,,,,,,117.3484,118.3489,,,,,,,,,,,,,,,,,,,,,,,,,,118.3491,118.899,z,1,0.5377,,118.8993,118.8993,,0,5,5,271,1,272,icazi,,,,,5,notharmonic,1.95,nw,z,,,,,,,
,,,,2023-11-28_12h55.09.084,VH_v3,2023.2.3,Win32,59.93766483,,,,,,,,,,,,118.8997,119.9001,,,,,,,,,,,,,,,,,,,,,,,,,,119.9002,120.3838,z,1,0.4713,,120.3838,120.3839,,0,6,6,185,1,186,bebin,,,,,5,harmonic,1.7,nw,z,,,,,,,
,,,,2023-11-28_12h55.09.084,VH_v3,2023.2.3,Win32,59.93766483,,,,,,,,,,,,120.3844,121.3851,,,,,,,,,,,,,,,,,,,,,,,,,,121.3852,121.8348,z,1,0.4391,,121.8348,121.835,,0,7,7,282,1,283,edap,,,,,4,notharmonic,1.7,nw,z,,,,,,,
,,,,2023-11-28_12h55.09.084,VH_v3,2023.2.3,Win32,59.93766483,,,,,,,,,,,,121.8353,122.8357,,,,,,,,,,,,,,,,,,,,,,,,,,122.8358,123.3526,z,1,0.5008,,123.3527,123.3528,,0,8,8,261,1,262,kübün,,,,,5,harmonic,2,nw,z,,,,,,,
,,,,2023-11-28_12h55.09.084,VH_v3,2023.2.3,Win32,59.93766483,,,,,,,,,,,,123.3532,124.3538,,,,,,,,,,,,,,,,,,,,,,,,,,124.3539,124.8371,m,1,0.4715,,124.8371,124.8372,,0,9,9,55,1,56,akıl,2208,100.3228,2004,0.2191,4,harmonic,1,word,m,,,,,,,
,,,,2023-11-28_12h55.09.084,VH_v3,2023.2.3,Win32,59.93766483,,,,,,,,,,,,124.8375,125.8378,,,,,,,,,,,,,,,,,,,,,,,,,,125.8379,126.2888,m,1,0.4315,,126.2889,126.289,,0,10,10,89,1,90,etki,1234,56.0681,1169,0.1278,4,harmonic,1.4,word,m,,,,,,,
,,,,2023-11-28_12h55.09.084,VH_v3,2023.2.3,Win32,59.93766483,,,,,,,,,,,,126.2894,127.29,,,,,,,,,,,,,,,,,,,,,,,,,,127.2901,127.673,m,1,0.3692,,127.673,127.6733,,0,11,11,159,1,160,derece,4766,216.5481,4462,0.4878,6,harmonic,,word,m,,,,,,,
,,,,2023-11-28_12h55.09.084,VH_v3,2023.2.3,Win32,59.93766483,,,,,,,,,,,,127.6737,128.6738,,,,,,,,,,,,,,,,,,,,,,,,,,128.6738,129.0577,m,1,0.3716,,129.0577,129.0578,,0,12,12,45,1,46,bilgi,5981,271.7529,5353,0.5852,5,harmonic,1.5,word,m,,,,,,,
,,,,2023-11-28_12h55.09.084,VH_v3,2023.2.3,Win32,59.93766483,,,,,,,,,,,,129.0583,130.0585,,,,,,,,,,,,,,,,,,,,,,,,,,130.0585,130.5761,m,1,0.4985,,130.5761,130.5762,,0,13,13,119,1,120,rahat,4833,219.5924,4316,0.4718,5,harmonic,,word,m,,,,,,,
,,,,2023-11-28_12h55.09.084,VH_v3,2023.2.3,Win32,59.93766483,,,,,,,,,,,,130.5767,131.5767,,,,,,,,,,,,,,,,,,,,,,,,,,131.5768,132.0603,z,1,0.4674,,132.0603,132.0605,,0,14,14,323,1,324,itkea,,,,,5,notharmonic,2.35,nw,z,,,,,,,
,,,,2023-11-28_12h55.09.084,VH_v3,2023.2.3,Win32,59.93766483,,,,,,,,,,,,132.061,133.0612,,,,,,,,,,,,,,,,,,,,,,,,,,133.0613,133.5616,m,1,0.4814,,133.5616,133.5617,,0,15,15,34,1,35,hoca,1893,86.0104,1526,0.1668,4,harmonic,1.45,word,m,,,,,,,
,,,,2023-11-28_12h55.09.084,VH_v3,2023.2.3,Win32,59.93766483,,,,,,,,,,,,133.5622,134.562,,,,,,,,,,,,,,,,,,,,,,,,,,134.562,135.0303,m,1,0.4565,,135.0304,135.0304,,0,16,16,170,1,171,parmak,1268,57.6129,1165,0.1274,6,harmonic,,word,m,,,,,,,
,,,,2023-11-28_12h55.09.084,VH_v3,2023.2.3,Win32,59.93766483,,,,,,,,,,,,135.0307,136.0302,,,,,,,,,,,,,,,,,,,,,,,,,,136.0303,136.597,z,1,0.5548,,136.5971,136.5971,,0,17,17,232,1,233,çemek,,,,,5,harmonic,1.5,nw,z,,,,,,,
,,,,2023-11-28_12h55.09.084,VH_v3,2023.2.3,Win32,59.93766483,,,,,,,,,,,,136.5977,137.5984,,,,,,,,,,,,,,,,,,,,,,,,,,137.5984,138.065,m,1,0.4549,,138.0651,138.0652,,0,18,18,46,1,47,takım,4370,198.5555,3726,0.4073,5,harmonic,1.7,word,m,,,,,,,
,,,,2023-11-28_12h55.09.084,VH_v3,2023.2.3,Win32,59.93766483,,,,,,,,,,,,138.0657,139.0661,,,,,,,,,,,,,,,,,,,,,,,,,,139.0661,139.8498,z,1,0.7678,,139.8498,139.85,,0,19,19,288,1,289,talif,,,,,5,notharmonic,1.5,nw,z,,,,,,,
,,,,2023-11-28_12h55.09.084,VH_v3,2023.2.3,Win32,59.93766483,,,,,,,,,,,,139.8503,140.8508,,,,,,,,,,,,,,,,,,,,,,,,,,140.8508,141.3677,z,1,0.5037,,141.3677,141.3678,,0,20,20,283,1,284,sate,,,,,4,notharmonic,1.45,nw,z,,,,,,,
,,,,2023-11-28_12h55.09.084,VH_v3,2023.2.3,Win32,59.93766483,,,,,,,,,,,,141.3682,142.3688,,,,,,,,,,,,,,,,,,,,,,,,,,142.3689,142.8853,m,1,0.5049,,142.8854,142.8855,,0,21,21,97,1,98,kadın,10751,488.4828,8665,0.9473,5,harmonic,,word,m,,,,,,,
,,,,2023-11-28_12h55.09.084,VH_v3,2023.2.3,Win32,59.93766483,,,,,,,,,,,,142.8859,143.8867,,,,,,,,,,,,,,,,,,,,,,,,,,143.8868,144.3699,m,1,0.4696,,144.37,144.3701,,0,22,22,2,1,3,radyo,763,34.6677,636,0.0695,5,harmonic,1.85,word,m,,,,,,,
,,,,2023-11-28_12h55.09.084,VH_v3,2023.2.3,Win32,59.93766483,,,,,,,,,,,,144.3704,145.3715,,,,,,,,,,,,,,,,,,,,,,,,,,145.3715,145.8553,m,1,0.4653,,145.8553,145.8555,,0,23,23,167,1,168,yoğurt,1484,67.4271,1359,0.1486,6,harmonic,,word,m,,,,,,,
,,,,2023-11-28_12h55.09.084,VH_v3,2023.2.3,Win32,59.93766483,,,,,,,,,,,,145.8559,146.8558,,,,,,,,,,,,,,,,,,,,,,,,,,146.8559,147.3394,z,1,0.464,,147.3395,147.3396,,0,24,24,285,1,286,safiç,,,,,5,notharmonic,1.9,nw,z,,,,,,,
,,,,2023-11-28_12h55.09.084,VH_v3,2023.2.3,Win32,59.93766483,,,,,,,,,,,,147.3401,148.3405,,,,,,,,,,,,,,,,,,,,,,,,,,148.3406,148.8907,m,1,0.5297,,148.8907,148.8909,,0,25,25,162,1,163,destek,3328,151.2111,3065,0.3351,6,harmonic,,word,m,,,,,,,
,,,,2023-11-28_12h55.09.084,VH_v3,2023.2.3,Win32,59.93766483,,,,,,,,,,,,148.8913,149.8917,,,,,,,,,,,,,,,,,,,,,,,,,,149.8917,150.3586,m,1,0.4504,,150.3586,150.3587,,0,26,26,6,1,7,hayal,4498,204.3713,4079,0.4459,5,harmonic,1.45,word,m,,,,,,,
,,,,2023-11-28_12h55.09.084,VH_v3,2023.2.3,Win32,59.93766483,,,,,,,,,,,,150.3593,151.3596,,,,,,,,,,,,,,,,,,,,,,,,,,151.3596,151.9269,m,0,0.5485,,151.927,151.9272,,0,27,27,183,1,184,titik,,,,,5,harmonic,1.7,nw,z,,,,,,,
,,,,2023-11-28_12h55.09.084,VH_v3,2023.2.3,Win32,59.93766483,,,,,,,,,,,,151.9276,152.9275,,,,,,,,,,,,,,,,,,,,,,,,,,152.9276,153.4444,m,1,0.5069,,153.4444,153.4444,,0,28,28,140,1,141,ünlü,2684,121.9503,2457,0.2686,4,harmonic,,word,m,,,,,,,
,,,,2023-11-28_12h55.09.084,VH_v3,2023.2.3,Win32,59.93766483,,,,,,,,,,,,153.4448,154.4455,,,,,,,,,,,,,,,,,,,,,,,,,,154.4456,154.8785,z,1,0.4202,,154.8785,154.8785,,0,29,29,208,1,209,guzır,,,,,5,harmonic,2.05,nw,z,,,,,,,
,,,,2023-11-28_12h55.09.084,VH_v3,2023.2.3,Win32,59.93766483,,,,,,,,,,,,154.8789,155.88,,,,,,,,,,,,,,,,,,,,,,,,,,155.8801,156.4473,z,1,0.5503,,156.4473,156.4475,,0,30,30,253,1,254,notan,,,,,5,harmonic,1.85,nw,z,,,,,,,
,,,,2023-11-28_12h55.09.084,VH_v3,2023.2.3,Win32,59.93766483,,,,,,,,,,,,156.448,157.4477,,,,,,,,,,,,,,,,,,,,,,,,,,157.4477,157.9648,m,1,0.5037,,157.9649,157.965,,0,31,31,37,1,38,hayvan,2363,107.3653,1894,0.2071,6,harmonic,1.5,word,m,,,,,,,
,,,,2023-11-28_12h55.09.084,VH_v3,2023.2.3,Win32,59.93766483,,,,,,,,,,,,157.9654,158.966,,,,,,,,,,,,,,,,,,,,,,,,,,158.9661,159.5331,m,1,0.546,,159.5331,159.5333,,0,32,32,95,1,96,koyun,1431,65.019,1292,0.1412,5,harmonic,,word,m,,,,,,,
,,,,2023-11-28_12h55.09.084,VH_v3,2023.2.3,Win32,59.93766483,,,,,,,,,,,,159.5338,160.534,,,,,,,,,,,,,,,,,,,,,,,,,,160.534,161.001,m,1,0.4576,,161.001,161.0011,,0,33,33,68,1,69,ücret,734,33.35,634,0.0693,5,harmonic,1.85,word,m,,,,,,,
,,,,2023-11-28_12h55.09.084,VH_v3,2023.2.3,Win32,59.93766483,,,,,,,,,,,,161.0019,162.002,,,,,,,,,,,,,,,,,,,,,,,,,,162.002,162.5518,z,1,0.5373,,162.5518,162.5519,,0,34,34,275,1,276,makis,,,,,5,notharmonic,1.8,nw,z,,,,,,,
,,,,2023-11-28_12h55.09.084,VH_v3,2023.2.3,Win32,59.93766483,,,,,,,,,,,,162.5523,163.5527,,,,,,,,,,,,,,,,,,,,,,,,,,163.5527,164.2702,z,1,0.6977,,164.2703,164.2704,,0,35,35,334,1,335,mecda,,,,,5,notharmonic,1.95,nw,z,,,,,,,
,,,,2023-11-28_12h55.09.084,VH_v3,2023.2.3,Win32,59.93766483,,,,,,,,,,,,164.2709,165.2713,,,,,,,,,,,,,,,,,,,,,,,,,,165.2714,165.6882,z,1,0.3984,,165.6882,165.6883,,0,36,36,351,1,352,eula,,,,,4,notharmonic,1.65,nw,z,,,,,,,
,,,,2023-11-28_12h55.09.084,VH_v3,2023.2.3,Win32,59.93766483,,,,,,,,,,,,165.6887,166.689,,,,,,,,,,,,,,,,,,,,,,,,,,166.6891,167.1224,m,1,0.4168,,167.1224,167.1225,,0,37,37,131,1,132,derin,3689,167.6135,3328,0.3638,5,harmonic,,word,m,,,,,,,
,,,,2023-11-28_12h55.09.084,VH_v3,2023.2.3,Win32,59.93766483,,,,,,,,,,,,167.1228,168.1234,,,,,,,,,,,,,,,,,,,,,,,,,,168.1234,168.6073,m,1,0.4667,,168.6073,168.6074,,0,38,38,124,1,125,yarım,4177,189.7863,3852,0.4211,5,harmonic,,word,m,,,,,,,
,,,,2023-11-28_12h55.09.084,VH_v3,2023.2.3,Win32,59.93766483,,,,,,,,,,,,168.6078,169.6081,,,,,,,,,,,,,,,,,,,,,,,,,,169.6082,170.0247,m,1,0.401,,170.0248,170.0248,,0,39,39,27,1,28,bölge,1283,58.2944,1123,0.1228,5,harmonic,1.65,word,m,,,,,,,
,,,,2023-11-28_12h55.09.084,VH_v3,2023.2.3,Win32,59.93766483,,,,,,,,,,,,170.0252,171.0259,,,,,,,,,,,,,,,,,,,,,,,,,,171.0259,171.3761,m,1,0.3312,,171.3762,171.3763,,0,40,40,139,1,140,okul,2685,121.9958,2381,0.2603,4,harmonic,,word,m,,,,,,,
,,,,2023-11-28_12h55.09.084,VH_v3,2023.2.3,Win32,59.93766483,,,,,,,,,,,,171.3768,172.377,,,,,,,,,,,,,,,,,,,,,,,,,,172.377,172.8107,m,1,0.4135,,172.8107,172.8108,,0,41,41,69,1,70,forma,719,32.6685,597,0.0653,5,harmonic,1.8,word,m,,,,,,,
,,,,2023-11-28_12h55.09.084,VH_v3,2023.2.3,Win32,59.93766483,,,,,,,,,,,,172.8113,173.8108,,,,,,,,,,,,,,,,,,,,,,,,,,173.8109,174.3613,z,1,0.5326,,174.3613,174.3614,,0,42,42,303,1,304,hahir,,,,,5,notharmonic,1.55,nw,z,,,,,,,
,,,,2023-11-28_12h55.09.084,VH_v3,2023.2.3,Win32,59.93766483,,,,,,,,,,,,174.3617,175.3627,,,,,,,,,,,,,,,,,,,,,,,,,,175.3627,175.8298,z,1,0.4491,,175.8299,175.83,,0,43,43,246,1,247,ülmet,,,,,5,harmonic,1.9,nw,z,,,,,,,
,,,,2023-11-28_12h55.09.084,VH_v3,2023.2.3,Win32,59.93766483,,,,,,,,,,,,175.8306,176.8303,,,,,,,,,,,,,,,,,,,,,,,,,,176.8304,177.3807,m,1,0.541,,177.3808,177.3809,,0,44,44,77,1,78,ufak,3252,147.758,2980,0.3258,4,harmonic,1.5,word,m,,,,,,,
,,,,2023-11-28_12h55.09.084,VH_v3,2023.2.3,Win32,59.93766483,,,,,,,,,,,,177.3813,178.3822,,,,,,,,,,,,,,,,,,,,,,,,,,178.3822,178.9318,z,1,0.5308,,178.9319,178.9319,,0,45,45,294,1,295,fiyan,,,,,5,notharmonic,1.65,nw,z,,,,,,,
,,,,2023-11-28_12h55.09.084,VH_v3,2023.2.3,Win32,59.93766483,,,,,,,,,,,,178.9322,179.9332,,,,,,,,,,,,,,,,,,,,,,,,,,179.9333,180.4332,z,1,0.4891,,180.4333,180.4334,,0,46,46,304,1,305,irak,,,,,4,notharmonic,1.55,nw,z,,,,,,,
,,,,2023-11-28_12h55.09.084,VH_v3,2023.2.3,Win32,59.93766483,,,,,,,,,,,,180.4339,181.4346,,,,,,,,,,,,,,,,,,,,,,,,,,181.4347,181.9844,m,1,0.5362,,181.9845,181.9846,,0,47,47,62,1,63,cümle,1911,86.8283,1765,0.193,5,harmonic,1.85,word,m,,,,,,,
,,,,2023-11-28_12h55.09.084,VH_v3,2023.2.3,Win32,59.93766483,,,,,,,,,,,,181.985,182.986,,,,,,,,,,,,,,,,,,,,,,,,,,182.986,183.4858,z,1,0.4874,,183.4858,183.4859,,0,48,48,300,1,301,iştal,,,,,5,notharmonic,1.8,nw,z,,,,,,,
,,,,2023-11-28_12h55.09.084,VH_v3,2023.2.3,Win32,59.93766483,,,,,,,,,,,,183.4862,184.487,,,,,,,,,,,,,,,,,,,,,,,,,,184.4871,185.0033,m,1,0.5016,,185.0033,185.0034,,0,49,49,125,1,126,hızlı,4167,189.332,3688,0.4032,5,harmonic,,word,m,,,,,,,
,,,,2023-11-28_12h55.09.084,VH_v3,2023.2.3,Win32,59.93766483,,,,,,,,,,,,185.0037,186.0052,,,,,,,,,,,,,,,,,,,,,,,,,,186.0053,186.4881,m,1,0.4606,,186.4881,186.4883,,0,50,50,148,1,149,ışık,1814,82.421,1635,0.1787,4,harmonic,,word,m,,,,,,,
,,,,2023-11-28_12h55.09.084,VH_v3,2023.2.3,Win32,59.93766483,,,,,,,,,,,,186.4885,187.4893,,,,,,,,,,,,,,,,,,,,,,,,,,187.4893,188.0566,z,1,0.5482,,188.0566,188.0568,,0,51,51,357,1,358,harim,,,,,5,notharmonic,,nw,z,,,,,,,
,,,,2023-11-28_12h55.09.084,VH_v3,2023.2.3,Win32,59.93766483,,,,,,,,,,,,188.0573,189.0575,,,,,,,,,,,,,,,,,,,,,,,,,,189.0576,189.5742,m,0,0.5026,,189.5742,189.5743,,0,52,52,349,1,350,mane,,,,,4,notharmonic,1.45,nw,z,,,,,,,
,,,,2023-11-28_12h55.09.084,VH_v3,2023.2.3,Win32,59.93766483,,,,,,,,,,,,189.5747,190.5752,,,,,,,,,,,,,,,,,,,,,,,,,,190.5753,191.1756,z,1,0.5825,,191.1757,191.1757,,0,53,53,237,1,238,küyek,,,,,5,harmonic,1.8,nw,z,,,,,,,
,,,,2023-11-28_12h55.09.084,VH_v3,2023.2.3,Win32,59.93766483,,,,,,,,,,,,191.1762,192.1764,,,,,,,,,,,,,,,,,,,,,,,,,,192.1764,192.6432,z,1,0.4564,,192.6432,192.6433,,0,54,54,319,1,320,mafke,,,,,5,notharmonic,1.9,nw,z,,,,,,,
,,,,2023-11-28_12h55.09.084,VH_v3,2023.2.3,Win32,59.93766483,,,,,,,,,,,,192.6437,193.6447,,,,,,,,,,,,,,,,,,,,,,,,,,193.6448,194.1785,m,1,0.5168,,194.1786,194.1787,,0,55,55,84,1,85,ülke,3121,141.8059,2801,0.3062,4,harmonic,1.65,word,m,,,,,,,
,,,,2023-11-28_12h55.09.084,VH_v3,2023.2.3,Win32,59.93766483,,,,,,,,,,,,194.1791,195.1797,,,,,,,,,,,,,,,,,,,,,,,,,,195.1797,195.8959,z,1,0.705,,195.8959,195.896,,0,56,56,249,1,250,öldek,,,,,5,harmonic,1.85,nw,z,,,,,,,
,,,,2023-11-28_12h55.09.084,VH_v3,2023.2.3,Win32,59.93766483,,,,,,,,,,,,195.8964,196.8977,,,,,,,,,,,,,,,,,,,,,,,,,,196.8977,197.5807,z,1,0.6627,,197.5808,197.5809,,0,57,57,299,1,300,kurüs,,,,,5,notharmonic,1.95,nw,z,,,,,,,
,,,,2023-11-28_12h55.09.084,VH_v3,2023.2.3,Win32,59.93766483,,,,,,,,,,,,197.5813,198.5819,,,,,,,,,,,,,,,,,,,,,,,,,,198.5821,199.0824,z,1,0.4837,,199.0825,199.0826,,0,58,58,217,1,218,dötim,,,,,5,harmonic,2,nw,z,,,,,,,
,,,,2023-11-28_12h55.09.084,VH_v3,2023.2.3,Win32,59.93766483,,,,,,,,,,,,199.0831,200.0832,,,,,,,,,,,,,,,,,,,,,,,,,,200.0833,200.5503,m,1,0.4479,,200.5503,200.5505,,0,59,59,136,1,137,süper,3256,147.9397,2989,0.3268,5,harmonic,,word,m,,,,,,,
,,,,2023-11-28_12h55.09.084,VH_v3,2023.2.3,Win32,59.93766483,,,,,,,,,,,,200.551,201.5512,,,,,,,,,,,,,,,,,,,,,,,,,,201.5513,202.1181,m,1,0.552,,202.1182,202.1184,,0,60,60,128,1,129,güçlü,3924,178.291,3614,0.3951,5,harmonic,,word,m,,,,,,,
,,,,2023-11-28_12h55.09.084,VH_v3,2023.2.3,Win32,59.93766483,,,,,,,,,,,,202.1188,203.119,,,,,,,,,,,,,,,,,,,,,,,,,,203.119,203.6526,m,1,0.5154,,203.6527,203.6528,,0,61,61,73,1,74,millet,1658,75.3329,1508,0.1649,6,harmonic,1.7,word,m,,,,,,,
,,,,2023-11-28_12h55.09.084,VH_v3,2023.2.3,Win32,59.93766483,,,,,,,,,,,,203.6533,204.6537,,,,,,,,,,,,,,,,,,,,,,,,,,204.6537,205.1203,z,1,0.4474,,205.1204,205.1204,,0,62,62,346,1,347,mamit,,,,,5,notharmonic,1.85,nw,z,,,,,,,
,,,,2023-11-28_12h55.09.084,VH_v3,2023.2.3,Win32,59.93766483,,,,,,,,,,,,205.1207,206.1217,,,,,,,,,,,,,,,,,,,,,,,,,,206.1217,206.6718,z,0,0.5341,,206.6718,206.6719,,0,63,63,51,1,52,ilginç,2803,127.3572,2690,0.2941,6,harmonic,1.8,word,m,,,,,,,
,,,,2023-11-28_12h55.09.084,VH_v3,2023.2.3,Win32,59.93766483,,,,,,,,,,,,206.6723,207.6731,,,,,,,,,,,,,,,,,,,,,,,,,,207.6732,208.3067,m,1,0.6126,,208.3067,208.3068,,0,64,64,75,1,76,roman,1499,68.1086,1281,0.14,5,harmonic,1.6,word,m,,,,,,,
,,,,2023-11-28_12h55.09.084,VH_v3,2023.2.3,Win32,59.93766483,,,,,,,,,,,,208.3072,209.3075,,,,,,,,,,,,,,,,,,,,,,,,,,209.3076,209.8909,z,1,0.5721,,209.891,209.891,,0,65,65,231,1,232,çekir,,,,,5,harmonic,1.45,nw,z,,,,,,,
,,,,2023-11-28_12h55.09.084,VH_v3,2023.2.3,Win32,59.93766483,,,,,,,,,,,,209.8914,210.8919,,,,,,,,,,,,,,,,,,,,,,,,,,210.892,211.5422,m,1,0.6384,,211.5422,211.5424,,0,66,66,121,1,122,şeker,4708,213.9128,4170,0.4559,5,harmonic,,word,m,,,,,,,
,,,,2023-11-28_12h55.09.084,VH_v3,2023.2.3,Win32,59.93766483,,,,,,,,,,,,211.5427,212.5437,,,,,,,,,,,,,,,,,,,,,,,,,,212.5437,213.2777,z,1,0.7145,,213.2778,213.2778,,0,67,67,207,1,208,çallak,,,,,6,harmonic,1.75,nw,z,,,,,,,
,,,,2023-11-28_12h55.09.084,VH_v3,2023.2.3,Win32,59.93766483,,,,,,,,,,,,213.2784,214.2782,,,,,,,,,,,,,,,,,,,,,,,,,,214.2782,214.8121,m,1,0.5146,,214.8121,214.8122,,0,68,68,13,1,14,nokta,2085,94.7341,1939,0.212,5,harmonic,1.5,word,m,,,,,,,
,,,,2023-11-28_12h55.09.084,VH_v3,2023.2.3,Win32,59.93766483,,,,,,,,,,,,214.8127,215.8129,,,,,,,,,,,,,,,,,,,,,,,,,,215.813,216.413,m,1,0.5899,,216.413,216.4131,,0,69,69,66,1,67,sanık,768,34.8949,699,0.0764,5,harmonic,1.85,word,m,,,,,,,
,,,,2023-11-28_12h55.09.084,VH_v3,2023.2.3,Win32,59.93766483,,,,,,,,,,,,216.4134,217.4139,,,,,,,,,,,,,,,,,,,,,,,,,,217.4139,218.098,z,1,0.664,,218.098,218.0982,,0,70,70,316,1,317,karkiş,,,,,6,notharmonic,2,nw,z,,,,,,,
,,,,2023-11-28_12h55.09.084,VH_v3,2023.2.3,Win32,59.93766483,,,,,,,,,,,,218.0986,219.0993,,,,,,,,,,,,,,,,,,,,,,,,,,219.0994,219.5996,m,1,0.4795,,219.5996,219.5996,,0,71,71,114,1,115,türlü,7010,318.5066,6559,0.717,5,harmonic,,word,m,,,,,,,
,,,,2023-11-28_12h55.09.084,VH_v3,2023.2.3,Win32,59.93766483,,,,,,,,,,,,219.6,220.6005,,,,,,,,,,,,,,,,,,,,,,,,,,220.6005,221.1671,z,1,0.5514,,221.1671,221.1673,,0,72,72,210,1,211,şatla,,,,,5,harmonic,1.5,nw,z,,,,,,,
,,,,2023-11-28_12h55.09.084,VH_v3,2023.2.3,Win32,59.93766483,,,,,,,,,,,,221.1677,222.1683,,,,,,,,,,,,,,,,,,,,,,,,,,222.1683,222.6179,m,1,0.4388,,222.618,222.6181,,0,73,73,149,1,150,ince,4045,183.7888,3429,0.3749,4,harmonic,,word,m,,,,,,,
,,,,2023-11-28_12h55.09.084,VH_v3,2023.2.3,Win32,59.93766483,,,,,,,,,,,,222.6185,223.6196,,,,,,,,,,,,,,,,,,,,,,,,,,223.6197,224.1199,m,1,0.4799,,224.12,224.12,,0,74,74,93,1,94,başka,23223,1055.161,20976,2.2931,5,harmonic,,word,m,,,,,,,
,,,,2023-11-28_12h55.09.084,VH_v3,2023.2.3,Win32,59.93766483,,,,,,,,,,,,224.1206,225.1208,,,,,,,,,,,,,,,,,,,,,,,,,,225.1209,225.6542,z,1,0.518,,225.6543,225.6543,,0,75,75,322,1,323,galiç,,,,,5,notharmonic,1.8,nw,z,,,,,,,
,,,,2023-11-28_12h55.09.084,VH_v3,2023.2.3,Win32,59.93766483,,,,,,,,,,,,225.6548,226.6548,,,,,,,,,,,,,,,,,,,,,,,,,,226.6548,227.3053,m,1,0.6322,,227.3053,227.3054,,0,76,76,102,1,103,kaşık,1355,61.5658,1177,0.1287,5,harmonic,,word,m,,,,,,,
,,,,2023-11-28_12h55.09.084,VH_v3,2023.2.3,Win32,59.93766483,,,,,,,,,,,,227.3058,228.3065,,,,,,,,,,,,,,,,,,,,,,,,,,228.3065,228.9071,z,1,0.5827,,228.9071,228.9073,,0,77,77,188,1,189,hüyen,,,,,5,harmonic,2,nw,z,,,,,,,
,,,,2023-11-28_12h55.09.084,VH_v3,2023.2.3,Win32,59.93766483,,,,,,,,,,,,228.9079,229.9079,,,,,,,,,,,,,,,,,,,,,,,,,,229.908,230.3578,z,1,0.433,,230.3578,230.3579,,0,78,78,279,1,280,ikaza,,,,,5,notharmonic,1.9,nw,z,,,,,,,
,,,,2023-11-28_12h55.09.084,VH_v3,2023.2.3,Win32,59.93766483,,,,,,,,,,,,230.3583,231.3593,,,,,,,,,,,,,,,,,,,,,,,,,,231.3594,231.8091,m,1,0.4401,,231.8091,231.8091,,0,79,79,57,1,58,bölüm,1910,86.7828,1605,0.1755,5,harmonic,1.45,word,m,,,,,,,
,,,,2023-11-28_12h55.09.084,VH_v3,2023.2.3,Win32,59.93766483,,,,,,,,,,,,231.8095,232.8105,,,,,,,,,,,,,,,,,,,,,,,,,,232.8105,233.4105,m,1,0.5903,,233.4106,233.4106,,0,80,80,111,1,112,soğan,1315,59.7484,1202,0.1314,5,harmonic,,word,m,,,,,,,
,,,,2023-11-28_12h55.09.084,VH_v3,2023.2.3,Win32,59.93766483,,,,,,,,,,,,233.411,234.4117,,,,,,,,,,,,,,,,,,,,,,,,,,234.4118,234.8617,z,1,0.4371,,234.8617,234.8618,,0,81,81,296,1,297,taeri,,,,,5,notharmonic,2,nw,z,,,,,,,
,,,,2023-11-28_12h55.09.084,VH_v3,2023.2.3,Win32,59.93766483,,,,,,,,,,,,234.8622,235.8628,,,,,,,,,,,,,,,,,,,,,,,,,,235.8629,236.3799,m,1,0.4972,,236.3799,236.38,,0,82,82,94,1,95,bütün,18630,846.4733,16711,1.8269,5,harmonic,,word,m,,,,,,,
,,,,2023-11-28_12h55.09.084,VH_v3,2023.2.3,Win32,59.93766483,,,,,,,,,,,,236.3805,237.3807,,,,,,,,,,,,,,,,,,,,,,,,,,237.3808,237.9651,z,0,0.5643,,237.9652,237.9653,,0,83,83,61,1,62,yıldız,1775,80.649,1532,0.1675,6,harmonic,1.6,word,m,,,,,,,
,,,,2023-11-28_12h55.09.084,VH_v3,2023.2.3,Win32,59.93766483,,,,,,,,,,,,237.9658,238.9651,,,,,,,,,,,,,,,,,,,,,,,,,,238.9652,239.5655,z,1,0.5818,,239.5655,239.5656,,0,84,84,227,1,228,temzik,,,,,6,harmonic,1.9,nw,z,,,,,,,
,,,,2023-11-28_12h55.09.084,VH_v3,2023.2.3,Win32,59.93766483,,,,,,,,,,,,239.5659,240.5666,,,,,,,,,,,,,,,,,,,,,,,,,,240.5666,241.1837,z,1,0.5955,,241.1838,241.1838,,0,85,85,184,1,185,medme,,,,,5,harmonic,1.95,nw,z,,,,,,,
,,,,2023-11-28_12h55.09.084,VH_v3,2023.2.3,Win32,59.93766483,,,,,,,,,,,,241.1842,242.185,,,,,,,,,,,,,,,,,,,,,,,,,,242.185,242.7518,z,1,0.5456,,242.7519,242.7519,,0,86,86,230,1,231,redem,,,,,5,harmonic,2,nw,z,,,,,,,
,,,,2023-11-28_12h55.09.084,VH_v3,2023.2.3,Win32,59.93766483,,,,,,,,,,,,242.7524,243.7526,,,,,,,,,,,,,,,,,,,,,,,,,,243.7527,244.3358,m,1,0.5632,,244.3359,244.336,,0,87,87,42,1,43,ürün,2268,103.0489,1954,0.2136,4,harmonic,1.1,word,m,,,,,,,
,,,,2023-11-28_12h55.09.084,VH_v3,2023.2.3,Win32,59.93766483,,,,,,,,,,,,244.3363,245.3374,,,,,,,,,,,,,,,,,,,,,,,,,,245.3375,245.8706,m,1,0.5217,,245.8706,245.8707,,0,88,88,158,1,159,tercih,4577,207.9607,4282,0.4681,6,harmonic,,word,m,,,,,,,
,,,,2023-11-28_12h55.09.084,VH_v3,2023.2.3,Win32,59.93766483,,,,,,,,,,,,245.8712,246.8715,,,,,,,,,,,,,,,,,,,,,,,,,,246.8715,247.372,z,1,0.4862,,247.3721,247.3722,,0,89,89,182,1,183,rafto,,,,,5,harmonic,2,nw,z,,,,,,,
,,,,2023-11-28_12h55.09.084,VH_v3,2023.2.3,Win32,59.93766483,,,,,,,,,,,,247.3726,248.3732,,,,,,,,,,,,,,,,,,,,,,,,,,248.3733,248.9899,m,1,0.6024,,248.99,248.99,,0,90,90,176,1,177,tebrik,1117,50.7521,1102,0.1205,6,harmonic,,word,m,,,,,,,
,,,,2023-11-28_12h55.09.084,VH_v3,2023.2.3,Win32,59.93766483,,,,,,,,,,,,248.9905,249.9911,,,,,,,,,,,,,,,,,,,,,,,,,,249.9912,250.4247,m,1,0.413,,250.4248,250.4248,,0,91,91,122,1,123,sorun,4653,211.4139,4296,0.4696,5,harmonic,,word,m,,,,,,,
,,,,2023-11-28_12h55.09.084,VH_v3,2023.2.3,Win32,59.93766483,,,,,,,,,,,,250.4253,251.4259,,,,,,,,,,,,,,,,,,,,,,,,,,251.4259,251.8924,z,1,0.4456,,251.8925,251.8926,,0,92,92,290,1,291,nüda,,,,,4,notharmonic,1.9,nw,z,,,,,,,
,,,,2023-11-28_12h55.09.084,VH_v3,2023.2.3,Win32,59.93766483,,,,,,,,,,,,251.8932,252.8938,,,,,,,,,,,,,,,,,,,,,,,,,,252.8938,253.4273,m,1,0.5131,,253.4273,253.4275,,0,93,93,177,1,178,mutfak,1110,50.434,1032,0.1128,6,harmonic,,word,m,,,,,,,
,,,,2023-11-28_12h55.09.084,VH_v3,2023.2.3,Win32,59.93766483,,,,,,,,,,,,253.4279,254.4282,,,,,,,,,,,,,,,,,,,,,,,,,,254.4282,254.9281,m,1,0.4913,,254.9281,254.9282,,0,94,94,63,1,64,sultan,1756,79.7857,1368,0.1496,6,harmonic,1.55,word,m,,,,,,,
,,,,2023-11-28_12h55.09.084,VH_v3,2023.2.3,Win32,59.93766483,,,,,,,,,,,,254.9285,255.929,,,,,,,,,,,,,,,,,,,,,,,,,,255.929,256.4792,z,1,0.5392,,256.4793,256.4793,,0,95,95,265,1,266,münrün,,,,,6,harmonic,2.75,nw,z,,,,,,,
,,,,2023-11-28_12h55.09.084,VH_v3,2023.2.3,Win32,59.93766483,,,,,,,,,,,,256.4797,257.4805,,,,,,,,,,,,,,,,,,,,,,,,,,257.4805,258.2147,z,1,0.7132,,258.2148,258.2149,,0,96,96,186,1,187,yadal,,,,,5,harmonic,1.85,nw,z,,,,,,,
,,,,2023-11-28_12h55.09.084,VH_v3,2023.2.3,Win32,59.93766483,,,,,,,,,,,,258.2152,259.2155,,,,,,,,,,,,,,,,,,,,,,,,,,259.2155,259.8161,z,1,0.5798,,259.8161,259.8163,,0,97,97,291,1,292,kasge,,,,,5,notharmonic,2,nw,z,,,,,,,
,,,,2023-11-28_12h55.09.084,VH_v3,2023.2.3,Win32,59.93766483,,,,,,,,,,,,259.8168,260.8168,,,,,,,,,,,,,,,,,,,,,,,,,,260.817,261.3509,z,1,0.5124,,261.3509,261.351,,0,98,98,254,1,255,ileşçe,,,,,6,harmonic,2.65,nw,z,,,,,,,
,,,,2023-11-28_12h55.09.084,VH_v3,2023.2.3,Win32,59.93766483,,,,,,,,,,,,261.3515,262.3514,,,,,,,,,,,,,,,,,,,,,,,,,,262.3515,262.8854,m,1,0.5232,,262.8855,262.8856,,0,99,99,64,1,65,lise,888,40.3472,816,0.0892,4,harmonic,1.5,word,m,,,,,,,
,,,,2023-11-28_12h55.09.084,VH_v3,2023.2.3,Win32,59.93766483,,,,,,,,,,,,262.886,263.8862,,,,,,,,,,,,,,,,,,,,,,,,,,263.8863,264.3868,m,1,0.4798,,264.3868,264.387,,0,100,100,88,1,89,yalnız,5891,267.6637,5440,0.5947,6,harmonic,1.6,word,m,,,,,,,
,,,,2023-11-28_12h55.09.084,VH_v3,2023.2.3,Win32,59.93766483,,,,,,,,,,,,264.3875,265.387,,,,,,,,,,,,,,,,,,,,,,,,,,265.3871,265.9371,z,1,0.5379,,265.9372,265.9372,,0,101,101,348,1,349,minsar,,,,,6,notharmonic,2,nw,z,,,,,,,
,,,,2023-11-28_12h55.09.084,VH_v3,2023.2.3,Win32,59.93766483,,,,,,,,,,,,265.9376,266.9377,,,,,,,,,,,,,,,,,,,,,,,,,,266.9377,267.4726,z,1,0.5163,,267.4726,267.4727,,0,102,102,248,1,249,harık,,,,,5,harmonic,1.55,nw,z,,,,,,,
,,,,2023-11-28_12h55.09.084,VH_v3,2023.2.3,Win32,59.93766483,,,,,,,,,,,,267.4731,268.4732,,,,,,,,,,,,,,,,,,,,,,,,,,268.4732,269.0569,z,1,0.5637,,269.0571,269.0572,,0,103,103,242,1,243,ziye,,,,,4,harmonic,1.75,nw,z,,,,,,,
,,,,2023-11-28_12h55.09.084,VH_v3,2023.2.3,Win32,59.93766483,,,,,,,,,,,,269.0578,270.0577,,,,,,,,,,,,,,,,,,,,,,,,,,270.0578,270.5412,z,1,0.4698,,270.5412,270.5413,,0,104,104,315,1,316,çarki,,,,,5,notharmonic,1.85,nw,z,,,,,,,
,,,,2023-11-28_12h55.09.084,VH_v3,2023.2.3,Win32,59.93766483,,,,,,,,,,,,270.5424,271.5423,,,,,,,,,,,,,,,,,,,,,,,,,,271.5424,272.0924,m,1,0.5303,,272.0925,272.0926,,0,105,105,31,1,32,fazla,18293,831.1614,16694,1.825,5,harmonic,1,word,m,,,,,,,
,,,,2023-11-28_12h55.09.084,VH_v3,2023.2.3,Win32,59.93766483,,,,,,,,,,,,272.093,273.0939,,,,,,,,,,,,,,,,,,,,,,,,,,273.094,273.6271,m,1,0.5162,,273.6271,273.6272,,0,106,106,171,1,172,şirket,1227,55.75,1022,0.1117,6,harmonic,,word,m,,,,,,,
,,,,2023-11-28_12h55.09.084,VH_v3,2023.2.3,Win32,59.93766483,,,,,,,,,,,,273.6276,274.6282,,,,,,,,,,,,,,,,,,,,,,,,,,274.6283,275.1782,z,1,0.5296,,275.1783,275.1784,,0,107,107,340,1,341,zizon,,,,,5,notharmonic,1.85,nw,z,,,,,,,
,,,,2023-11-28_12h55.09.084,VH_v3,2023.2.3,Win32,59.93766483,,,,,,,,,,,,275.1787,276.1796,,,,,,,,,,,,,,,,,,,,,,,,,,276.1796,277.0629,m,1,0.8687,,277.0629,277.063,,0,108,108,137,1,138,yoğun,3189,144.8955,3026,0.3308,5,harmonic,,word,m,,,,,,,
,,,,2023-11-28_12h55.09.084,VH_v3,2023.2.3,Win32,59.93766483,,,,,,,,,,,,277.0634,278.0646,,,,,,,,,,,,,,,,,,,,,,,,,,278.0647,278.6149,z,1,0.5293,,278.6149,278.615,,0,109,109,243,1,244,şiker,,,,,5,harmonic,1.85,nw,z,,,,,,,
,,,,2023-11-28_12h55.09.084,VH_v3,2023.2.3,Win32,59.93766483,,,,,,,,,,,,278.6153,279.6155,,,,,,,,,,,,,,,,,,,,,,,,,,279.6155,280.1661,z,0,0.535,,280.1661,280.1662,,0,110,110,28,1,29,parlak,1142,51.888,1088,0.1189,6,harmonic,1.7,word,m,,,,,,,
,,,,2023-11-28_12h55.09.084,VH_v3,2023.2.3,Win32,59.93766483,,,,,,,,,,,,280.1667,281.1669,,,,,,,,,,,,,,,,,,,,,,,,,,281.1669,281.7007,z,1,0.5174,,281.7007,281.7008,,0,111,111,329,1,330,aniş,,,,,4,notharmonic,1.7,nw,z,,,,,,,
,,,,2023-11-28_12h55.09.084,VH_v3,2023.2.3,Win32,59.93766483,,,,,,,,,,,,281.7014,282.7018,,,,,,,,,,,,,,,,,,,,,,,,,,282.7018,283.1352,m,1,0.4137,,283.1353,283.1353,,0,112,112,76,1,77,ilişki,1675,76.1054,1524,0.1666,6,harmonic,1.8,word,m,,,,,,,
,,,,2023-11-28_12h55.09.084,VH_v3,2023.2.3,Win32,59.93766483,,,,,,,,,,,,283.1357,284.1357,,,,,,,,,,,,,,,,,,,,,,,,,,284.1358,284.67,m,1,0.5164,,284.67,284.6701,,0,113,113,150,1,151,ağır,4441,201.7814,3961,0.433,4,harmonic,,word,m,,,,,,,
,,,,2023-11-28_12h55.09.084,VH_v3,2023.2.3,Win32,59.93766483,,,,,,,,,,,,284.6707,285.6708,,,,,,,,,,,,,,,,,,,,,,,,,,285.6709,286.4545,z,1,0.7688,,286.4546,286.4546,,0,114,114,239,1,240,yulçız,,,,,6,harmonic,2.75,nw,z,,,,,,,
,,,,2023-11-28_12h55.09.084,VH_v3,2023.2.3,Win32,59.93766483,,,,,,,,,,,,286.455,287.4556,,,,,,,,,,,,,,,,,,,,,,,,,,287.4557,287.9391,z,1,0.47,,287.9391,287.9393,,0,115,115,339,1,340,halip,,,,,5,notharmonic,1.5,nw,z,,,,,,,
,,,,2023-11-28_12h55.09.084,VH_v3,2023.2.3,Win32,59.93766483,,,,,,,,,,,,287.9398,288.9399,,,,,,,,,,,,,,,,,,,,,,,,,,288.94,289.457,z,1,0.4971,,289.4571,289.4571,,0,116,116,309,1,310,yanele,,,,,6,notharmonic,1.85,nw,z,,,,,,,
,,,,2023-11-28_12h55.09.084,VH_v3,2023.2.3,Win32,59.93766483,,,,,,,,,,,,289.4577,290.4579,,,,,,,,,,,,,,,,,,,,,,,,,,290.458,291.0082,m,1,0.5303,,291.0082,291.0083,,0,117,117,178,1,179,aykırı,1094,49.707,1022,0.1117,6,harmonic,,word,m,,,,,,,
,,,,2023-11-28_12h55.09.084,VH_v3,2023.2.3,Win32,59.93766483,,,,,,,,,,,,291.0087,292.0094,,,,,,,,,,,,,,,,,,,,,,,,,,292.0095,292.5093,m,1,0.4888,,292.5094,292.5094,,0,118,118,79,1,80,durum,6783,308.1926,6431,0.703,5,harmonic,1.7,word,m,,,,,,,
,,,,2023-11-28_12h55.09.084,VH_v3,2023.2.3,Win32,59.93766483,,,,,,,,,,,,292.5098,293.5106,,,,,,,,,,,,,,,,,,,,,,,,,,293.5106,294.0104,m,1,0.4907,,294.0104,294.0104,,0,119,119,141,1,142,kuru,2669,121.2688,2372,0.2593,4,harmonic,,word,m,,,,,,,
,,,,2023-11-28_12h55.09.084,VH_v3,2023.2.3,Win32,59.93766483,,,,,,,,,,,,294.0109,295.0118,,,,,,,,,,,,,,,,,,,,,,,,,,295.0119,295.5622,m,1,0.531,,295.5623,297.2633,space,0,120,120,166,1,167,tespit,1929,87.6461,1745,0.1908,6,harmonic,,word,m,1.6813,,,,,,
,,,,2023-11-28_12h55.09.084,VH_v3,2023.2.3,Win32,59.93766483,,,,,,,,,,,,297.2778,298.2644,,,,,,,,,,,,,,,,,,,,,,,,,,298.2645,298.9483,z,1,0.6627,,298.9484,298.9485,,0,121,121,326,1,327,melaş,,,,,5,notharmonic,1.8,nw,z,,,,,,,
,,,,2023-11-28_12h55.09.084,VH_v3,2023.2.3,Win32,59.93766483,,,,,,,,,,,,298.949,299.9493,,,,,,,,,,,,,,,,,,,,,,,,,,299.9493,300.5494,z,1,0.5888,,300.5494,300.5495,,0,122,122,359,1,360,hisaye,,,,,6,notharmonic,,nw,z,,,,,,,
,,,,2023-11-28_12h55.09.084,VH_v3,2023.2.3,Win32,59.93766483,,,,,,,,,,,,300.5499,301.5506,,,,,,,,,,,,,,,,,,,,,,,,,,301.5506,302.1847,m,1,0.6123,,302.1848,302.1848,,0,123,123,29,1,30,huzur,1911,86.8283,1799,0.1967,5,harmonic,1.8,word,m,,,,,,,
,,,,2023-11-28_12h55.09.084,VH_v3,2023.2.3,Win32,59.93766483,,,,,,,,,,,,302.1853,303.1855,,,,,,,,,,,,,,,,,,,,,,,,,,303.1855,303.802,z,1,0.6005,,303.8021,303.8021,,0,124,124,270,1,271,sarip,,,,,5,notharmonic,1.65,nw,z,,,,,,,
,,,,2023-11-28_12h55.09.084,VH_v3,2023.2.3,Win32,59.93766483,,,,,,,,,,,,303.8027,304.8031,,,,,,,,,,,,,,,,,,,,,,,,,,304.8031,305.3699,m,1,0.5568,,305.37,305.3701,,0,125,125,105,1,106,hafta,9257,420.6014,8254,0.9023,5,harmonic,,word,m,,,,,,,
,,,,2023-11-28_12h55.09.084,VH_v3,2023.2.3,Win32,59.93766483,,,,,,,,,,,,305.3706,306.3709,,,,,,,,,,,,,,,,,,,,,,,,,,306.371,307.005,z,1,0.6123,,307.005,307.0051,,0,126,126,250,1,251,çonsa,,,,,5,harmonic,1.9,nw,z,,,,,,,
,,,,2023-11-28_12h55.09.084,VH_v3,2023.2.3,Win32,59.93766483,,,,,,,,,,,,307.0054,308.0058,,,,,,,,,,,,,,,,,,,,,,,,,,308.0059,308.5064,m,0,0.4801,,308.5064,308.5065,,0,127,127,199,1,200,repes,,,,,5,harmonic,2,nw,z,,,,,,,
,,,,2023-11-28_12h55.09.084,VH_v3,2023.2.3,Win32,59.93766483,,,,,,,,,,,,308.507,309.5069,,,,,,,,,,,,,,,,,,,,,,,,,,309.5069,310.1243,z,1,0.5964,,310.1244,310.1245,,0,128,128,311,1,312,mase,,,,,4,notharmonic,1.75,nw,z,,,,,,,
,,,,2023-11-28_12h55.09.084,VH_v3,2023.2.3,Win32,59.93766483,,,,,,,,,,,,310.125,311.1245,,,,,,,,,,,,,,,,,,,,,,,,,,311.1245,311.5927,z,1,0.4474,,311.5928,311.5928,,0,129,129,305,1,306,itba,,,,,4,notharmonic,1.85,nw,z,,,,,,,
,,,,2023-11-28_12h55.09.084,VH_v3,2023.2.3,Win32,59.93766483,,,,,,,,,,,,311.5933,312.5931,,,,,,,,,,,,,,,,,,,,,,,,,,312.5931,313.4936,z,1,0.8904,,313.4937,313.4937,,0,130,130,269,1,270,kanon,,,,,5,harmonic,,nw,z,,,,,,,
,,,,2023-11-28_12h55.09.084,VH_v3,2023.2.3,Win32,59.93766483,,,,,,,,,,,,313.4941,314.4947,,,,,,,,,,,,,,,,,,,,,,,,,,314.4947,315.0613,z,1,0.5548,,315.0613,315.0613,,0,131,131,233,1,234,alıt,,,,,4,harmonic,1.15,nw,z,,,,,,,
,,,,2023-11-28_12h55.09.084,VH_v3,2023.2.3,Win32,59.93766483,,,,,,,,,,,,315.0617,316.0626,,,,,,,,,,,,,,,,,,,,,,,,,,316.0626,316.5626,m,1,0.4901,,316.5626,316.5626,,0,132,132,52,1,53,resim,2506,113.8627,2188,0.2392,5,harmonic,1.4,word,m,,,,,,,
,,,,2023-11-28_12h55.09.084,VH_v3,2023.2.3,Win32,59.93766483,,,,,,,,,,,,316.563,317.564,,,,,,,,,,,,,,,,,,,,,,,,,,317.564,318.0977,z,1,0.5132,,318.0977,318.0979,,0,133,133,273,1,274,sisaf,,,,,5,notharmonic,2,nw,z,,,,,,,
,,,,2023-11-28_12h55.09.084,VH_v3,2023.2.3,Win32,59.93766483,,,,,,,,,,,,318.0984,319.0988,,,,,,,,,,,,,,,,,,,,,,,,,,319.0988,319.7821,z,1,0.6626,,319.7821,319.7822,,0,134,134,234,1,235,taslam,,,,,6,harmonic,1.9,nw,z,,,,,,,
,,,,2023-11-28_12h55.09.084,VH_v3,2023.2.3,Win32,59.93766483,,,,,,,,,,,,319.7826,320.7832,,,,,,,,,,,,,,,,,,,,,,,,,,320.7833,321.383,m,1,0.588,,321.3831,321.3832,,0,135,135,24,1,25,yorgun,1153,52.3877,1108,0.1211,6,harmonic,1.55,word,m,,,,,,,
,,,,2023-11-28_12h55.09.084,VH_v3,2023.2.3,Win32,59.93766483,,,,,,,,,,,,321.3835,322.3845,,,,,,,,,,,,,,,,,,,,,,,,,,322.3846,322.8848,m,1,0.4829,,322.8848,322.8849,,0,136,136,67,1,68,bayram,1948,88.5094,1648,0.1802,6,harmonic,1.85,word,m,,,,,,,
,,,,2023-11-28_12h55.09.084,VH_v3,2023.2.3,Win32,59.93766483,,,,,,,,,,,,322.8852,323.8854,,,,,,,,,,,,,,,,,,,,,,,,,,323.8854,324.4023,m,1,0.4954,,324.4023,324.4024,,0,137,137,138,1,139,yazar,3175,144.2594,2877,0.3145,5,harmonic,,word,m,,,,,,,
,,,,2023-11-28_12h55.09.084,VH_v3,2023.2.3,Win32,59.93766483,,,,,,,,,,,,324.4028,325.404,,,,,,,,,,,,,,,,,,,,,,,,,,325.404,325.987,z,1,0.5703,,325.987,325.9871,,0,138,138,342,1,343,çaneke,,,,,6,notharmonic,2.6,nw,z,,,,,,,
,,,,2023-11-28_12h55.09.084,VH_v3,2023.2.3,Win32,59.93766483,,,,,,,,,,,,325.9876,326.988,,,,,,,,,,,,,,,,,,,,,,,,,,326.9881,327.538,m,1,0.5279,,327.538,327.5381,,0,139,139,5,1,6,bebek,3301,149.9843,2794,0.3054,5,harmonic,1.6,word,m,,,,,,,
,,,,2023-11-28_12h55.09.084,VH_v3,2023.2.3,Win32,59.93766483,,,,,,,,,,,,327.5384,328.5396,,,,,,,,,,,,,,,,,,,,,,,,,,328.5396,329.057,z,1,0.4963,,329.057,329.057,,0,140,140,320,1,321,sivaka,,,,,6,notharmonic,2.3,nw,z,,,,,,,
,,,,2023-11-28_12h55.09.084,VH_v3,2023.2.3,Win32,59.93766483,,,,,,,,,,,,329.0574,330.0576,,,,,,,,,,,,,,,,,,,,,,,,,,330.0576,330.5916,z,1,0.5141,,330.5916,330.5918,,0,141,141,345,1,346,kiru,,,,,4,notharmonic,1.8,nw,z,,,,,,,
,,,,2023-11-28_12h55.09.084,VH_v3,2023.2.3,Win32,59.93766483,,,,,,,,,,,,330.5922,331.5919,,,,,,,,,,,,,,,,,,,,,,,,,,331.5919,332.1924,m,1,0.5811,,332.1925,332.1925,,0,142,142,81,1,82,üretim,1593,72.3796,1283,0.1403,6,harmonic,1.6,word,m,,,,,,,
,,,,2023-11-28_12h55.09.084,VH_v3,2023.2.3,Win32,59.93766483,,,,,,,,,,,,332.1929,333.1934,,,,,,,,,,,,,,,,,,,,,,,,,,333.1934,333.6605,m,1,0.4471,,333.6605,333.6605,,0,143,143,103,1,104,yemek,9626,437.3673,8311,0.9086,5,harmonic,,word,m,,,,,,,
,,,,2023-11-28_12h55.09.084,VH_v3,2023.2.3,Win32,59.93766483,,,,,,,,,,,,333.661,334.6613,,,,,,,,,,,,,,,,,,,,,,,,,,334.6614,335.2448,z,1,0.5629,,335.2448,335.2449,,0,144,144,272,1,273,sakke,,,,,5,notharmonic,1.85,nw,z,,,,,,,
,,,,2023-11-28_12h55.09.084,VH_v3,2023.2.3,Win32,59.93766483,,,,,,,,,,,,335.2452,336.246,,,,,,,,,,,,,,,,,,,,,,,,,,336.246,336.7962,m,1,0.533,,336.7962,336.7964,,0,145,145,160,1,161,günlük,3421,155.4367,3201,0.3499,6,harmonic,,word,m,,,,,,,
,,,,2023-11-28_12h55.09.084,VH_v3,2023.2.3,Win32,59.93766483,,,,,,,,,,,,336.7968,337.7973,,,,,,,,,,,,,,,,,,,,,,,,,,337.7973,338.3975,z,1,0.5791,,338.3975,338.3976,,0,146,146,344,1,345,adalüt,,,,,6,notharmonic,,nw,z,,,,,,,
,,,,2023-11-28_12h55.09.084,VH_v3,2023.2.3,Win32,59.93766483,,,,,,,,,,,,338.398,339.3989,,,,,,,,,,,,,,,,,,,,,,,,,,339.3989,339.9158,m,1,0.5067,,339.9158,339.9159,,0,147,147,145,1,146,ilgi,2144,97.4149,2041,0.2231,4,harmonic,,word,m,,,,,,,
,,,,2023-11-28_12h55.09.084,VH_v3,2023.2.3,Win32,59.93766483,,,,,,,,,,,,339.9164,340.9164,,,,,,,,,,,,,,,,,,,,,,,,,,340.9164,341.5168,z,1,0.5876,,341.5169,341.5169,,0,148,148,331,1,332,ilcaet,,,,,6,notharmonic,2.7,nw,z,,,,,,,
,,,,2023-11-28_12h55.09.084,VH_v3,2023.2.3,Win32,59.93766483,,,,,,,,,,,,341.5173,342.518,,,,,,,,,,,,,,,,,,,,,,,,,,342.518,343.0679,m,1,0.537,,343.0679,343.068,,0,149,149,152,1,153,sene,6752,306.7841,5843,0.6388,4,harmonic,,word,m,,,,,,,
,,,,2023-11-28_12h55.09.084,VH_v3,2023.2.3,Win32,59.93766483,,,,,,,,,,,,343.0684,344.069,,,,,,,,,,,,,,,,,,,,,,,,,,344.069,344.6527,m,1,0.5641,,344.6528,344.653,,0,150,150,26,1,27,sebze,1094,49.707,961,0.1051,5,harmonic,1.9,word,m,,,,,,,
,,,,2023-11-28_12h55.09.084,VH_v3,2023.2.3,Win32,59.93766483,,,,,,,,,,,,344.6533,345.6537,,,,,,,,,,,,,,,,,,,,,,,,,,345.6538,346.1703,m,1,0.499,,346.1703,346.1704,,0,151,151,174,1,175,hayran,1171,53.2056,1073,0.1173,6,harmonic,,word,m,,,,,,,
,,,,2023-11-28_12h55.09.084,VH_v3,2023.2.3,Win32,59.93766483,,,,,,,,,,,,346.1707,347.172,,,,,,,,,,,,,,,,,,,,,,,,,,347.1721,347.6714,z,1,0.4836,,347.6714,347.6714,,0,152,152,219,1,220,tefsi,,,,,5,harmonic,1.8,nw,z,,,,,,,
,,,,2023-11-28_12h55.09.084,VH_v3,2023.2.3,Win32,59.93766483,,,,,,,,,,,,347.6718,348.6728,,,,,,,,,,,,,,,,,,,,,,,,,,348.6728,349.2565,z,1,0.5662,,349.2566,349.2567,,0,153,153,268,1,269,hayot,,,,,5,harmonic,,nw,z,,,,,,,
,,,,2023-11-28_12h55.09.084,VH_v3,2023.2.3,Win32,59.93766483,,,,,,,,,,,,349.2571,350.2574,,,,,,,,,,,,,,,,,,,,,,,,,,350.2575,350.7578,z,1,0.4828,,350.7578,350.758,,0,154,154,257,1,258,dulom,,,,,5,harmonic,2.3,nw,z,,,,,,,
,,,,2023-11-28_12h55.09.084,VH_v3,2023.2.3,Win32,59.93766483,,,,,,,,,,,,350.7585,351.7585,,,,,,,,,,,,,,,,,,,,,,,,,,351.7585,352.242,z,1,0.4737,,352.2421,352.2422,,0,155,155,337,1,338,yakim,,,,,5,notharmonic,1.75,nw,z,,,,,,,
,,,,2023-11-28_12h55.09.084,VH_v3,2023.2.3,Win32,59.93766483,,,,,,,,,,,,352.2425,353.2431,,,,,,,,,,,,,,,,,,,,,,,,,,353.2431,353.8103,m,1,0.5477,,353.8103,353.8104,,0,156,156,132,1,133,soğuk,3676,167.0229,3359,0.3672,5,harmonic,,word,m,,,,,,,
,,,,2023-11-28_12h55.09.084,VH_v3,2023.2.3,Win32,59.93766483,,,,,,,,,,,,353.811,354.8114,,,,,,,,,,,,,,,,,,,,,,,,,,354.8114,355.3951,m,1,0.5629,,355.3951,355.3952,,0,157,157,153,1,154,para,7124,323.6863,5953,0.6508,4,harmonic,,word,m,,,,,,,
,,,,2023-11-28_12h55.09.084,VH_v3,2023.2.3,Win32,59.93766483,,,,,,,,,,,,355.3957,356.396,,,,,,,,,,,,,,,,,,,,,,,,,,356.396,356.8793,m,1,0.4679,,356.8794,356.8795,,0,158,158,161,1,162,servis,3344,151.9381,2968,0.3245,6,harmonic,,word,m,,,,,,,
,,,,2023-11-28_12h55.09.084,VH_v3,2023.2.3,Win32,59.93766483,,,,,,,,,,,,356.88,357.8802,,,,,,,,,,,,,,,,,,,,,,,,,,357.8803,358.3477,m,1,0.4478,,358.3478,358.3479,,0,159,159,123,1,124,güneş,4371,198.6009,3610,0.3946,5,harmonic,,word,m,,,,,,,
,,,,2023-11-28_12h55.09.084,VH_v3,2023.2.3,Win32,59.93766483,,,,,,,,,,,,358.3483,359.3481,,,,,,,,,,,,,,,,,,,,,,,,,,359.3481,359.8991,m,0,0.5308,,359.8992,359.8993,,0,160,160,193,1,194,şıkta,,,,,5,harmonic,2,nw,z,,,,,,,
,,,,2023-11-28_12h55.09.084,VH_v3,2023.2.3,Win32,59.93766483,,,,,,,,,,,,359.9001,360.8994,,,,,,,,,,,,,,,,,,,,,,,,,,360.8994,361.5,m,1,0.5827,,361.5,361.5001,,0,161,161,15,1,16,hayat,7922,359.9443,7314,0.7996,5,harmonic,1.9,word,m,,,,,,,
,,,,2023-11-28_12h55.09.084,VH_v3,2023.2.3,Win32,59.93766483,,,,,,,,,,,,361.5007,362.5006,,,,,,,,,,,,,,,,,,,,,,,,,,362.5006,363.101,m,1,0.5909,,363.101,363.1011,,0,162,162,44,1,45,kayıt,1234,56.0681,1058,0.1157,5,harmonic,1.35,word,m,,,,,,,
,,,,2023-11-28_12h55.09.084,VH_v3,2023.2.3,Win32,59.93766483,,,,,,,,,,,,363.1015,364.1021,,,,,,,,,,,,,,,,,,,,,,,,,,364.1022,364.7365,m,1,0.6148,,364.7365,364.7366,,0,163,163,22,1,23,anlam,1730,78.6043,1617,0.1768,5,harmonic,1.25,word,m,,,,,,,
,,,,2023-11-28_12h55.09.084,VH_v3,2023.2.3,Win32,59.93766483,,,,,,,,,,,,364.7371,365.7373,,,,,,,,,,,,,,,,,,,,,,,,,,365.7373,366.2872,m,1,0.5301,,366.2872,366.2873,,0,164,164,18,1,19,normal,4154,188.7413,3788,0.4141,6,harmonic,1.75,word,m,,,,,,,
,,,,2023-11-28_12h55.09.084,VH_v3,2023.2.3,Win32,59.93766483,,,,,,,,,,,,366.2878,367.2882,,,,,,,,,,,,,,,,,,,,,,,,,,367.2883,367.9224,m,1,0.6148,,367.9224,367.9225,,0,165,165,107,1,108,sivil,1334,60.6117,1151,0.1258,5,harmonic,,word,m,,,,,,,
,,,,2023-11-28_12h55.09.084,VH_v3,2023.2.3,Win32,59.93766483,,,,,,,,,,,,367.923,368.9228,,,,,,,,,,,,,,,,,,,,,,,,,,368.9229,369.423,z,1,0.4837,,369.4231,369.4232,,0,166,166,276,1,277,dapel,,,,,5,notharmonic,1.9,nw,z,,,,,,,
,,,,2023-11-28_12h55.09.084,VH_v3,2023.2.3,Win32,59.93766483,,,,,,,,,,,,369.4235,370.4245,,,,,,,,,,,,,,,,,,,,,,,,,,370.4246,370.8749,z,1,0.4283,,370.875,370.8751,,0,167,167,274,1,275,rikal,,,,,5,notharmonic,1.85,nw,z,,,,,,,
,,,,2023-11-28_12h55.09.084,VH_v3,2023.2.3,Win32,59.93766483,,,,,,,,,,,,370.8757,371.8755,,,,,,,,,,,,,,,,,,,,,,,,,,371.8755,372.3092,m,1,0.4122,,372.3092,372.3093,,0,168,168,99,1,100,çocuk,10612,482.1672,8979,0.9816,5,harmonic,,word,m,,,,,,,
,,,,2023-11-28_12h55.09.084,VH_v3,2023.2.3,Win32,59.93766483,,,,,,,,,,,,372.3097,373.3102,,,,,,,,,,,,,,,,,,,,,,,,,,373.3102,373.9105,m,0,0.5807,,373.9106,373.9106,,0,169,169,332,1,333,makik,,,,,5,notharmonic,1.6,nw,z,,,,,,,
,,,,2023-11-28_12h55.09.084,VH_v3,2023.2.3,Win32,59.93766483,,,,,,,,,,,,373.9111,374.9112,,,,,,,,,,,,,,,,,,,,,,,,,,374.9112,375.5114,z,1,0.5863,,375.5115,375.5115,,0,170,170,263,1,264,geğniş,,,,,6,harmonic,2.35,nw,z,,,,,,,
,,,,2023-11-28_12h55.09.084,VH_v3,2023.2.3,Win32,59.93766483,,,,,,,,,,,,375.512,376.5124,,,,,,,,,,,,,,,,,,,,,,,,,,376.5124,376.946,z,1,0.4182,,376.9461,376.9462,,0,171,171,256,1,257,ulosız,,,,,6,harmonic,3,nw,z,,,,,,,
,,,,2023-11-28_12h55.09.084,VH_v3,2023.2.3,Win32,59.93766483,,,,,,,,,,,,376.9466,377.9464,,,,,,,,,,,,,,,,,,,,,,,,,,377.9465,378.4638,z,1,0.5034,,378.4639,378.464,,0,172,172,333,1,334,uleç,,,,,4,notharmonic,1.95,nw,z,,,,,,,
,,,,2023-11-28_12h55.09.084,VH_v3,2023.2.3,Win32,59.93766483,,,,,,,,,,,,378.4644,379.4651,,,,,,,,,,,,,,,,,,,,,,,,,,379.4651,380.0325,m,1,0.5487,,380.0325,380.0326,,0,173,173,91,1,92,zaman,40307,1831.3902,33589,3.672,5,harmonic,,word,m,,,,,,,
,,,,2023-11-28_12h55.09.084,VH_v3,2023.2.3,Win32,59.93766483,,,,,,,,,,,,380.0331,381.0327,,,,,,,,,,,,,,,,,,,,,,,,,,381.0328,381.4835,m,1,0.431,,381.4835,381.4836,,0,174,174,164,1,165,toprak,1989,90.3723,1762,0.1926,6,harmonic,,word,m,,,,,,,
,,,,2023-11-28_12h55.09.084,VH_v3,2023.2.3,Win32,59.93766483,,,,,,,,,,,,381.4841,382.4842,,,,,,,,,,,,,,,,,,,,,,,,,,382.4842,383.0849,m,1,0.5814,,383.0849,383.085,,0,175,175,74,1,75,başarı,1398,63.5196,1300,0.1421,6,harmonic,1.2,word,m,,,,,,,
,,,,2023-11-28_12h55.09.084,VH_v3,2023.2.3,Win32,59.93766483,,,,,,,,,,,,383.0855,384.0854,,,,,,,,,,,,,,,,,,,,,,,,,,384.0855,384.6688,z,1,0.566,,384.6688,384.6688,,0,176,176,258,1,259,meryeş,,,,,6,harmonic,2.35,nw,z,,,,,,,
,,,,2023-11-28_12h55.09.084,VH_v3,2023.2.3,Win32,59.93766483,,,,,,,,,,,,384.6691,385.6701,,,,,,,,,,,,,,,,,,,,,,,,,,385.6702,386.2207,m,1,0.5308,,386.2207,386.2208,,0,177,177,49,1,50,şeker,4708,213.9128,4170,0.4559,5,harmonic,1.6,word,m,,,,,,,
,,,,2023-11-28_12h55.09.084,VH_v3,2023.2.3,Win32,59.93766483,,,,,,,,,,,,386.2213,387.2217,,,,,,,,,,,,,,,,,,,,,,,,,,387.2218,387.7379,z,1,0.4997,,387.7379,387.7379,,0,178,178,260,1,261,abaf,,,,,4,harmonic,1.85,nw,z,,,,,,,
,,,,2023-11-28_12h55.09.084,VH_v3,2023.2.3,Win32,59.93766483,,,,,,,,,,,,387.7383,388.7397,,,,,,,,,,,,,,,,,,,,,,,,,,388.7397,389.2899,m,1,0.5301,,389.2899,389.29,,0,179,179,39,1,40,yaygın,1061,48.2076,1019,0.1114,6,harmonic,1.35,word,m,,,,,,,
,,,,2023-11-28_12h55.09.084,VH_v3,2023.2.3,Win32,59.93766483,,,,,,,,,,,,389.2906,390.2908,,,,,,,,,,,,,,,,,,,,,,,,,,390.2909,390.9412,m,1,0.6336,,390.9413,390.9413,,0,180,180,127,1,128,müzik,3999,181.6987,3340,0.3651,5,harmonic,,word,m,,,,,,,
,,,,2023-11-28_12h55.09.084,VH_v3,2023.2.3,Win32,59.93766483,,,,,,,,,,,,390.9419,391.9421,,,,,,,,,,,,,,,,,,,,,,,,,,391.9421,392.3921,m,1,0.439,,392.3922,392.3922,,0,181,181,155,1,156,devlet,5766,261.9842,4854,0.5306,6,harmonic,,word,m,,,,,,,
,,,,2023-11-28_12h55.09.084,VH_v3,2023.2.3,Win32,59.93766483,,,,,,,,,,,,392.3925,393.3931,,,,,,,,,,,,,,,,,,,,,,,,,,393.3933,393.9098,z,1,0.5043,,393.9099,393.91,,0,182,182,191,1,192,unot,,,,,4,harmonic,1.85,nw,z,,,,,,,
,,,,2023-11-28_12h55.09.084,VH_v3,2023.2.3,Win32,59.93766483,,,,,,,,,,,,393.9103,394.9112,,,,,,,,,,,,,,,,,,,,,,,,,,394.9112,395.3948,z,1,0.4672,,395.3949,395.3949,,0,183,183,262,1,263,ürze,,,,,4,harmonic,1.95,nw,z,,,,,,,
,,,,2023-11-28_12h55.09.084,VH_v3,2023.2.3,Win32,59.93766483,,,,,,,,,,,,395.3955,396.3959,,,,,,,,,,,,,,,,,,,,,,,,,,396.3959,396.8625,m,1,0.4489,,396.8626,396.8628,,0,184,184,3,1,4,minik,2916,132.4915,2594,0.2836,5,harmonic,1.6,word,m,,,,,,,
,,,,2023-11-28_12h55.09.084,VH_v3,2023.2.3,Win32,59.93766483,,,,,,,,,,,,396.8632,397.8635,,,,,,,,,,,,,,,,,,,,,,,,,,397.8635,398.5302,z,0,0.65,,398.5302,398.5302,,0,185,185,60,1,61,doğu,2105,95.6429,1823,0.1993,4,harmonic,1.05,word,m,,,,,,,
,,,,2023-11-28_12h55.09.084,VH_v3,2023.2.3,Win32,59.93766483,,,,,,,,,,,,398.5305,399.5317,,,,,,,,,,,,,,,,,,,,,,,,,,399.5317,400.0481,z,1,0.4977,,400.0481,400.0482,,0,186,186,313,1,314,hahih,,,,,5,notharmonic,1.95,nw,z,,,,,,,
,,,,2023-11-28_12h55.09.084,VH_v3,2023.2.3,Win32,59.93766483,,,,,,,,,,,,400.0486,401.0494,,,,,,,,,,,,,,,,,,,,,,,,,,401.0495,401.5834,m,1,0.5159,,401.5835,401.5835,,0,187,187,154,1,155,oyun,4926,223.8179,3995,0.4367,4,harmonic,,word,m,,,,,,,
,,,,2023-11-28_12h55.09.084,VH_v3,2023.2.3,Win32,59.93766483,,,,,,,,,,,,401.5841,402.5842,,,,,,,,,,,,,,,,,,,,,,,,,,402.5842,403.1676,z,1,0.5698,,403.1677,403.1678,,0,188,188,220,1,221,lingin,,,,,6,harmonic,1.85,nw,z,,,,,,,
,,,,2023-11-28_12h55.09.084,VH_v3,2023.2.3,Win32,59.93766483,,,,,,,,,,,,403.1682,404.169,,,,,,,,,,,,,,,,,,,,,,,,,,404.1691,404.8863,z,1,0.6963,,404.8863,404.8865,,0,189,189,202,1,203,kulom,,,,,5,harmonic,2,nw,z,,,,,,,
,,,,2023-11-28_12h55.09.084,VH_v3,2023.2.3,Win32,59.93766483,,,,,,,,,,,,404.887,405.8869,,,,,,,,,,,,,,,,,,,,,,,,,,405.887,406.4375,m,1,0.5309,,406.4375,406.4375,,0,190,190,9,1,10,karar,8108,368.3954,7436,0.8129,5,harmonic,1.6,word,m,,,,,,,
,,,,2023-11-28_12h55.09.084,VH_v3,2023.2.3,Win32,59.93766483,,,,,,,,,,,,406.4381,407.4382,,,,,,,,,,,,,,,,,,,,,,,,,,407.4383,407.8883,m,1,0.4296,,407.8884,407.8885,,0,191,191,85,1,86,geçmiş,4195,190.6042,4039,0.4415,6,harmonic,1.55,word,m,,,,,,,
,,,,2023-11-28_12h55.09.084,VH_v3,2023.2.3,Win32,59.93766483,,,,,,,,,,,,407.889,408.8893,,,,,,,,,,,,,,,,,,,,,,,,,,408.8893,409.4062,z,1,0.5007,,409.4063,409.4064,,0,192,192,228,1,229,nekir,,,,,5,harmonic,1.65,nw,z,,,,,,,
,,,,2023-11-28_12h55.09.084,VH_v3,2023.2.3,Win32,59.93766483,,,,,,,,,,,,409.4068,410.4071,,,,,,,,,,,,,,,,,,,,,,,,,,410.4072,410.9743,z,1,0.5491,,410.9743,410.9744,,0,193,193,297,1,298,şasep,,,,,5,notharmonic,1.9,nw,z,,,,,,,
,,,,2023-11-28_12h55.09.084,VH_v3,2023.2.3,Win32,59.93766483,,,,,,,,,,,,410.9749,411.9753,,,,,,,,,,,,,,,,,,,,,,,,,,411.9753,412.4751,z,1,0.4865,,412.4753,412.4753,,0,194,194,284,1,285,zebap,,,,,5,notharmonic,1.8,nw,z,,,,,,,
,,,,2023-11-28_12h55.09.084,VH_v3,2023.2.3,Win32,59.93766483,,,,,,,,,,,,412.4757,413.4767,,,,,,,,,,,,,,,,,,,,,,,,,,413.4768,413.9769,z,1,0.4788,,413.977,413.9771,,0,195,195,324,1,325,başi,,,,,4,notharmonic,1.5,nw,z,,,,,,,
,,,,2023-11-28_12h55.09.084,VH_v3,2023.2.3,Win32,59.93766483,,,,,,,,,,,,413.9776,414.9778,,,,,,,,,,,,,,,,,,,,,,,,,,414.978,415.545,z,1,0.5455,,415.545,415.5452,,0,196,196,330,1,331,tevaze,,,,,6,notharmonic,2.05,nw,z,,,,,,,
,,,,2023-11-28_12h55.09.084,VH_v3,2023.2.3,Win32,59.93766483,,,,,,,,,,,,415.5458,416.5459,,,,,,,,,,,,,,,,,,,,,,,,,,416.5459,417.0291,z,1,0.4709,,417.0292,417.0293,,0,197,197,278,1,279,camet,,,,,5,notharmonic,1.8,nw,z,,,,,,,
,,,,2023-11-28_12h55.09.084,VH_v3,2023.2.3,Win32,59.93766483,,,,,,,,,,,,417.0297,418.0304,,,,,,,,,,,,,,,,,,,,,,,,,,418.0305,418.4968,z,1,0.4549,,418.4968,418.4969,,0,198,198,198,1,199,ıdol,,,,,4,harmonic,1.9,nw,z,,,,,,,
,,,,2023-11-28_12h55.09.084,VH_v3,2023.2.3,Win32,59.93766483,,,,,,,,,,,,418.4973,419.4982,,,,,,,,,,,,,,,,,,,,,,,,,,419.4982,420.0146,z,1,0.5063,,420.0147,420.0148,,0,199,199,223,1,224,kamut,,,,,5,harmonic,1.5,nw,z,,,,,,,
,,,,2023-11-28_12h55.09.084,VH_v3,2023.2.3,Win32,59.93766483,,,,,,,,,,,,420.0151,421.0159,,,,,,,,,,,,,,,,,,,,,,,,,,421.0159,421.5166,z,1,0.4796,,421.5166,421.5167,,0,200,200,238,1,239,bodu,,,,,4,harmonic,1.85,nw,z,,,,,,,
,,,,2023-11-28_12h55.09.084,VH_v3,2023.2.3,Win32,59.93766483,,,,,,,,,,,,421.5173,422.5175,,,,,,,,,,,,,,,,,,,,,,,,,,422.5175,423.0678,z,1,0.5322,,423.0679,423.068,,0,201,201,236,1,237,abar,,,,,4,harmonic,1.1,nw,z,,,,,,,
,,,,2023-11-28_12h55.09.084,VH_v3,2023.2.3,Win32,59.93766483,,,,,,,,,,,,423.0685,424.0684,,,,,,,,,,,,,,,,,,,,,,,,,,424.0684,424.5184,z,1,0.431,,424.5184,424.5185,,0,202,202,336,1,337,zanit,,,,,5,notharmonic,1.85,nw,z,,,,,,,
,,,,2023-11-28_12h55.09.084,VH_v3,2023.2.3,Win32,59.93766483,,,,,,,,,,,,424.5188,425.5196,,,,,,,,,,,,,,,,,,,,,,,,,,425.5196,426.0199,z,1,0.4877,,426.02,426.0201,,0,203,203,213,1,214,yofa,,,,,4,harmonic,1.75,nw,z,,,,,,,
,,,,2023-11-28_12h55.09.084,VH_v3,2023.2.3,Win32,59.93766483,,,,,,,,,,,,426.0205,427.0211,,,,,,,,,,,,,,,,,,,,,,,,,,427.0212,427.4542,z,1,0.4217,,427.4543,427.4543,,0,204,204,201,1,202,azlaş,,,,,5,harmonic,1.8,nw,z,,,,,,,
,,,,2023-11-28_12h55.09.084,VH_v3,2023.2.3,Win32,59.93766483,,,,,,,,,,,,427.4547,428.4556,,,,,,,,,,,,,,,,,,,,,,,,,,428.4557,428.8722,z,1,0.4039,,428.8723,428.8723,,0,205,205,247,1,248,fonta,,,,,5,harmonic,1.75,nw,z,,,,,,,
,,,,2023-11-28_12h55.09.084,VH_v3,2023.2.3,Win32,59.93766483,,,,,,,,,,,,428.8727,429.8738,,,,,,,,,,,,,,,,,,,,,,,,,,429.8738,430.3568,m,1,0.4728,,430.3569,430.357,,0,206,206,47,1,48,kaza,740,33.6227,679,0.0742,4,harmonic,1.85,word,m,,,,,,,
,,,,2023-11-28_12h55.09.084,VH_v3,2023.2.3,Win32,59.93766483,,,,,,,,,,,,430.3574,431.3577,,,,,,,,,,,,,,,,,,,,,,,,,,431.3577,431.8912,z,1,0.519,,431.8912,431.8913,,0,207,207,289,1,290,minkon,,,,,6,notharmonic,2.2,nw,z,,,,,,,
,,,,2023-11-28_12h55.09.084,VH_v3,2023.2.3,Win32,59.93766483,,,,,,,,,,,,431.8916,432.8925,,,,,,,,,,,,,,,,,,,,,,,,,,432.8926,433.4096,m,1,0.4992,,433.4097,433.4097,,0,208,208,96,1,97,mutlu,11447,520.1063,10279,1.1237,5,harmonic,,word,m,,,,,,,
,,,,2023-11-28_12h55.09.084,VH_v3,2023.2.3,Win32,59.93766483,,,,,,,,,,,,433.4101,434.4105,,,,,,,,,,,,,,,,,,,,,,,,,,434.4106,435.0105,z,1,0.5898,,435.0105,435.0107,,0,209,209,214,1,215,yapa,,,,,4,harmonic,1,nw,z,,,,,,,
,,,,2023-11-28_12h55.09.084,VH_v3,2023.2.3,Win32,59.93766483,,,,,,,,,,,,435.0111,436.0119,,,,,,,,,,,,,,,,,,,,,,,,,,436.0119,436.4286,z,1,0.407,,436.4286,436.4288,,0,210,210,204,1,205,cabor,,,,,5,harmonic,2.1,nw,z,,,,,,,
,,,,2023-11-28_12h55.09.084,VH_v3,2023.2.3,Win32,59.93766483,,,,,,,,,,,,436.4291,437.4297,,,,,,,,,,,,,,,,,,,,,,,,,,437.4298,437.9468,z,1,0.4957,,437.9468,437.947,,0,211,211,251,1,252,bellet,,,,,6,harmonic,1.8,nw,z,,,,,,,
,,,,2023-11-28_12h55.09.084,VH_v3,2023.2.3,Win32,59.93766483,,,,,,,,,,,,437.9474,438.9473,,,,,,,,,,,,,,,,,,,,,,,,,,438.9474,439.4811,z,1,0.5156,,439.4812,439.4813,,0,212,212,306,1,307,napare,,,,,6,notharmonic,2.15,nw,z,,,,,,,
,,,,2023-11-28_12h55.09.084,VH_v3,2023.2.3,Win32,59.93766483,,,,,,,,,,,,439.4818,440.482,,,,,,,,,,,,,,,,,,,,,,,,,,440.482,440.9653,z,1,0.4726,,440.9654,440.9654,,0,213,213,221,1,222,ülük,,,,,4,harmonic,1.55,nw,z,,,,,,,
,,,,2023-11-28_12h55.09.084,VH_v3,2023.2.3,Win32,59.93766483,,,,,,,,,,,,440.9658,441.9669,,,,,,,,,,,,,,,,,,,,,,,,,,441.9669,442.4668,z,1,0.487,,442.4669,442.4669,,0,214,214,287,1,288,beran,,,,,5,notharmonic,1.75,nw,z,,,,,,,
,,,,2023-11-28_12h55.09.084,VH_v3,2023.2.3,Win32,59.93766483,,,,,,,,,,,,442.4673,443.4679,,,,,,,,,,,,,,,,,,,,,,,,,,443.468,443.9682,z,1,0.479,,443.9682,443.9683,,0,215,215,308,1,309,tasnin,,,,,6,notharmonic,1.85,nw,z,,,,,,,
,,,,2023-11-28_12h55.09.084,VH_v3,2023.2.3,Win32,59.93766483,,,,,,,,,,,,443.9687,444.9687,,,,,,,,,,,,,,,,,,,,,,,,,,444.9687,445.5193,m,1,0.5399,,445.5194,445.5195,,0,216,216,112,1,113,genel,7752,352.2201,6893,0.7535,5,harmonic,,word,m,,,,,,,
,,,,2023-11-28_12h55.09.084,VH_v3,2023.2.3,Win32,59.93766483,,,,,,,,,,,,445.5199,446.5205,,,,,,,,,,,,,,,,,,,,,,,,,,446.5206,447.1541,z,1,0.6136,,447.1542,447.1543,,0,217,217,211,1,212,metel,,,,,5,harmonic,1.75,nw,z,,,,,,,
,,,,2023-11-28_12h55.09.084,VH_v3,2023.2.3,Win32,59.93766483,,,,,,,,,,,,447.1547,448.1552,,,,,,,,,,,,,,,,,,,,,,,,,,448.1552,448.6055,z,1,0.436,,448.6055,448.6056,,0,218,218,292,1,293,semun,,,,,5,notharmonic,1.85,nw,z,,,,,,,
,,,,2023-11-28_12h55.09.084,VH_v3,2023.2.3,Win32,59.93766483,,,,,,,,,,,,448.606,449.6065,,,,,,,,,,,,,,,,,,,,,,,,,,449.6065,450.0736,z,1,0.4473,,450.0737,450.0738,,0,219,219,356,1,357,ated,,,,,4,notharmonic,,nw,z,,,,,,,
,,,,2023-11-28_12h55.09.084,VH_v3,2023.2.3,Win32,59.93766483,,,,,,,,,,,,450.0744,451.0741,,,,,,,,,,,,,,,,,,,,,,,,,,451.0742,451.5083,z,1,0.4157,,451.5083,451.5084,,0,220,220,312,1,313,izmal,,,,,5,notharmonic,1.8,nw,z,,,,,,,
,,,,2023-11-28_12h55.09.084,VH_v3,2023.2.3,Win32,59.93766483,,,,,,,,,,,,451.5089,452.509,,,,,,,,,,,,,,,,,,,,,,,,,,452.509,453.0927,m,1,0.562,,453.0927,453.0928,,0,221,221,53,1,54,gelir,7578,344.3143,7014,0.7668,5,harmonic,1.4,word,m,,,,,,,
,,,,2023-11-28_12h55.09.084,VH_v3,2023.2.3,Win32,59.93766483,,,,,,,,,,,,453.0932,454.0932,,,,,,,,,,,,,,,,,,,,,,,,,,454.0933,454.6106,m,1,0.4975,,454.6107,454.6107,,0,222,222,175,1,176,gündüz,1167,53.0239,1088,0.1189,6,harmonic,,word,m,,,,,,,
,,,,2023-11-28_12h55.09.084,VH_v3,2023.2.3,Win32,59.93766483,,,,,,,,,,,,454.6112,455.6114,,,,,,,,,,,,,,,,,,,,,,,,,,455.6114,456.0117,m,1,0.3798,,456.0117,456.0119,,0,223,223,143,1,144,isim,2366,107.5017,2163,0.2365,4,harmonic,,word,m,,,,,,,
,,,,2023-11-28_12h55.09.084,VH_v3,2023.2.3,Win32,59.93766483,,,,,,,,,,,,456.0124,457.0123,,,,,,,,,,,,,,,,,,,,,,,,,,457.0123,457.63,z,1,0.5976,,457.63,457.6301,,0,224,224,190,1,191,banyak,,,,,6,harmonic,1.85,nw,z,,,,,,,
,,,,2023-11-28_12h55.09.084,VH_v3,2023.2.3,Win32,59.93766483,,,,,,,,,,,,457.6306,458.6301,,,,,,,,,,,,,,,,,,,,,,,,,,458.6301,459.1471,z,1,0.5056,,459.1472,459.1473,,0,225,225,259,1,260,üreyeş,,,,,6,harmonic,2.9,nw,z,,,,,,,
,,,,2023-11-28_12h55.09.084,VH_v3,2023.2.3,Win32,59.93766483,,,,,,,,,,,,459.1477,460.1484,,,,,,,,,,,,,,,,,,,,,,,,,,460.1484,460.6817,m,1,0.5197,,460.6817,460.6818,,0,226,226,144,1,145,şiir,2213,100.5499,1690,0.1848,4,harmonic,,word,m,,,,,,,
,,,,2023-11-28_12h55.09.084,VH_v3,2023.2.3,Win32,59.93766483,,,,,,,,,,,,460.6822,461.6831,,,,,,,,,,,,,,,,,,,,,,,,,,461.6832,462.1999,z,1,0.4953,,462.2001,462.2001,,0,227,227,277,1,278,melbut,,,,,6,notharmonic,1.95,nw,z,,,,,,,
,,,,2023-11-28_12h55.09.084,VH_v3,2023.2.3,Win32,59.93766483,,,,,,,,,,,,462.2006,463.2012,,,,,,,,,,,,,,,,,,,,,,,,,,463.2012,463.7681,z,1,0.5567,,463.7682,463.7683,,0,228,228,197,1,198,şortal,,,,,6,harmonic,1.95,nw,z,,,,,,,
,,,,2023-11-28_12h55.09.084,VH_v3,2023.2.3,Win32,59.93766483,,,,,,,,,,,,463.7687,464.7691,,,,,,,,,,,,,,,,,,,,,,,,,,464.7691,465.3357,m,1,0.5551,,465.3357,465.3358,,0,229,229,0,1,1,sanat,3121,141.8059,2485,0.2717,5,harmonic,1.4,word,m,,,,,,,
,,,,2023-11-28_12h55.09.084,VH_v3,2023.2.3,Win32,59.93766483,,,,,,,,,,,,465.3362,466.3368,,,,,,,,,,,,,,,,,,,,,,,,,,466.3369,466.837,z,1,0.4797,,466.837,466.8371,,0,230,230,216,1,217,halban,,,,,6,harmonic,2,nw,z,,,,,,,
,,,,2023-11-28_12h55.09.084,VH_v3,2023.2.3,Win32,59.93766483,,,,,,,,,,,,466.8376,467.838,,,,,,,,,,,,,,,,,,,,,,,,,,467.838,468.4216,m,1,0.5707,,468.4217,468.4217,,0,231,231,50,1,51,kanun,1198,54.4324,1010,0.1104,5,harmonic,1.6,word,m,,,,,,,
,,,,2023-11-28_12h55.09.084,VH_v3,2023.2.3,Win32,59.93766483,,,,,,,,,,,,468.422,469.4227,,,,,,,,,,,,,,,,,,,,,,,,,,469.4227,470.2234,m,1,0.78,,470.2234,470.2235,,0,232,232,165,1,166,fırsat,1952,88.6911,1863,0.2037,6,harmonic,,word,m,,,,,,,
,,,,2023-11-28_12h55.09.084,VH_v3,2023.2.3,Win32,59.93766483,,,,,,,,,,,,470.224,471.2245,,,,,,,,,,,,,,,,,,,,,,,,,,471.2246,471.7414,z,1,0.4959,,471.7414,471.7415,,0,233,233,252,1,253,savanı,,,,,6,harmonic,1.85,nw,z,,,,,,,
,,,,2023-11-28_12h55.09.084,VH_v3,2023.2.3,Win32,59.93766483,,,,,,,,,,,,471.7418,472.7422,,,,,,,,,,,,,,,,,,,,,,,,,,472.7422,473.2262,z,1,0.4623,,473.2262,473.2264,,0,234,234,235,1,236,mörüm,,,,,5,harmonic,1.9,nw,z,,,,,,,
,,,,2023-11-28_12h55.09.084,VH_v3,2023.2.3,Win32,59.93766483,,,,,,,,,,,,473.2269,474.2266,,,,,,,,,,,,,,,,,,,,,,,,,,474.2266,474.7106,z,1,0.4671,,474.7106,474.7107,,0,235,235,280,1,281,düktan,,,,,6,notharmonic,2.35,nw,z,,,,,,,
,,,,2023-11-28_12h55.09.084,VH_v3,2023.2.3,Win32,59.93766483,,,,,,,,,,,,474.7111,475.7109,,,,,,,,,,,,,,,,,,,,,,,,,,475.7109,476.345,m,1,0.6186,,476.345,476.3451,,0,236,236,38,1,39,dönem,2820,128.1296,2437,0.2664,5,harmonic,1.4,word,m,,,,,,,
,,,,2023-11-28_12h55.09.084,VH_v3,2023.2.3,Win32,59.93766483,,,,,,,,,,,,476.3456,477.346,,,,,,,,,,,,,,,,,,,,,,,,,,477.3461,477.8297,m,1,0.4622,,477.8298,477.8299,,0,237,237,11,1,12,umut,1988,90.3268,1818,0.1987,4,harmonic,1.55,word,m,,,,,,,
,,,,2023-11-28_12h55.09.084,VH_v3,2023.2.3,Win32,59.93766483,,,,,,,,,,,,477.8305,478.8308,,,,,,,,,,,,,,,,,,,,,,,,,,478.8309,479.3804,m,1,0.5287,,479.3804,479.3805,,0,238,238,133,1,134,ortak,3666,166.5685,3331,0.3641,5,harmonic,,word,m,,,,,,,
,,,,2023-11-28_12h55.09.084,VH_v3,2023.2.3,Win32,59.93766483,,,,,,,,,,,,479.3809,480.3818,,,,,,,,,,,,,,,,,,,,,,,,,,480.3818,480.8993,m,1,0.4969,,480.8994,480.8994,,0,239,239,23,1,24,kurum,986,44.7999,882,0.0964,5,harmonic,1.75,word,m,,,,,,,
,,,,2023-11-28_12h55.09.084,VH_v3,2023.2.3,Win32,59.93766483,,,,,,,,,,,,480.9,481.9005,,,,,,,,,,,,,,,,,,,,,,,,,,481.9005,482.4,z,1,0.4808,,482.4,486.4372,space,0,240,240,343,1,344,tazen,,,,,5,notharmonic,1.8,nw,z,4.02,,,,,,
,,,,2023-11-28_12h55.09.084,VH_v3,2023.2.3,Win32,59.93766483,,,,,,,,,,,,486.4509,487.438,,,,,,,,,,,,,,,,,,,,,,,,,,487.438,488.0044,m,1,0.5512,,488.0045,488.0045,,0,241,241,10,1,11,bardak,1728,78.5135,1569,0.1715,6,harmonic,1.6,word,m,,,,,,,
,,,,2023-11-28_12h55.09.084,VH_v3,2023.2.3,Win32,59.93766483,,,,,,,,,,,,488.0049,489.0057,,,,,,,,,,,,,,,,,,,,,,,,,,489.0057,489.3894,m,1,0.3648,,489.3895,489.3896,,0,242,242,106,1,107,sağlık,8866,402.8359,8289,0.9062,5,harmonic,,word,m,,,,,,,
,,,,2023-11-28_12h55.09.084,VH_v3,2023.2.3,Win32,59.93766483,,,,,,,,,,,,489.39,490.3902,,,,,,,,,,,,,,,,,,,,,,,,,,490.3902,491.0065,z,1,0.6062,,491.0066,491.0066,,0,243,243,298,1,299,memzur,,,,,6,notharmonic,1.95,nw,z,,,,,,,
,,,,2023-11-28_12h55.09.084,VH_v3,2023.2.3,Win32,59.93766483,,,,,,,,,,,,491.007,492.0081,,,,,,,,,,,,,,,,,,,,,,,,,,492.0081,492.492,m,1,0.4624,,492.4921,492.4922,,0,244,244,43,1,44,geniş,3380,153.5738,3185,0.3482,5,harmonic,1.35,word,m,,,,,,,
,,,,2023-11-28_12h55.09.084,VH_v3,2023.2.3,Win32,59.93766483,,,,,,,,,,,,492.4927,493.4927,,,,,,,,,,,,,,,,,,,,,,,,,,493.4928,494.1262,m,1,0.6228,,494.1263,494.1263,,0,245,245,163,1,164,teknik,3297,149.8026,2798,0.3059,6,harmonic,,word,m,,,,,,,
,,,,2023-11-28_12h55.09.084,VH_v3,2023.2.3,Win32,59.93766483,,,,,,,,,,,,494.1267,495.1272,,,,,,,,,,,,,,,,,,,,,,,,,,495.1272,495.6941,z,1,0.5515,,495.6942,495.6943,,0,246,246,241,1,242,sılman,,,,,6,harmonic,2,nw,z,,,,,,,
,,,,2023-11-28_12h55.09.084,VH_v3,2023.2.3,Win32,59.93766483,,,,,,,,,,,,495.6947,496.6948,,,,,,,,,,,,,,,,,,,,,,,,,,496.6948,497.2629,m,1,0.5488,,497.263,497.2631,,0,247,247,104,1,105,çizgi,1340,60.8843,1074,0.1174,5,harmonic,,word,m,,,,,,,
,,,,2023-11-28_12h55.09.084,VH_v3,2023.2.3,Win32,59.93766483,,,,,,,,,,,,497.2635,498.2633,,,,,,,,,,,,,,,,,,,,,,,,,,498.2633,498.7134,m,1,0.4361,,498.7134,498.7135,,0,248,248,21,1,22,duygu,1877,85.2834,1760,0.1924,5,harmonic,1.8,word,m,,,,,,,
,,,,2023-11-28_12h55.09.084,VH_v3,2023.2.3,Win32,59.93766483,,,,,,,,,,,,498.7139,499.7144,,,,,,,,,,,,,,,,,,,,,,,,,,499.7144,500.3986,m,1,0.6631,,500.3986,500.3987,,0,249,249,98,1,99,yerel,1399,63.565,1187,0.1298,5,harmonic,,word,m,,,,,,,
,,,,2023-11-28_12h55.09.084,VH_v3,2023.2.3,Win32,59.93766483,,,,,,,,,,,,500.3992,501.3996,,,,,,,,,,,,,,,,,,,,,,,,,,501.3996,501.8996,z,1,0.4786,,501.8996,501.8998,,0,250,250,194,1,195,yabum,,,,,5,harmonic,2,nw,z,,,,,,,
,,,,2023-11-28_12h55.09.084,VH_v3,2023.2.3,Win32,59.93766483,,,,,,,,,,,,501.9003,502.8998,,,,,,,,,,,,,,,,,,,,,,,,,,502.8998,503.3841,m,1,0.4732,,503.3841,503.3842,,0,251,251,4,1,5,metre,1156,52.5241,1015,0.111,5,harmonic,1.7,word,m,,,,,,,
,,,,2023-11-28_12h55.09.084,VH_v3,2023.2.3,Win32,59.93766483,,,,,,,,,,,,503.3846,504.3849,,,,,,,,,,,,,,,,,,,,,,,,,,504.3849,504.9855,z,1,0.5803,,504.9855,504.9856,,0,252,252,281,1,282,ikva,,,,,4,notharmonic,1.85,nw,z,,,,,,,
,,,,2023-11-28_12h55.09.084,VH_v3,2023.2.3,Win32,59.93766483,,,,,,,,,,,,504.9861,505.9864,,,,,,,,,,,,,,,,,,,,,,,,,,505.9864,506.5196,m,0,0.5215,,506.5197,506.5197,,0,253,253,222,1,223,çetiş,,,,,5,harmonic,1.7,nw,z,,,,,,,
,,,,2023-11-28_12h55.09.084,VH_v3,2023.2.3,Win32,59.93766483,,,,,,,,,,,,506.52,507.521,,,,,,,,,,,,,,,,,,,,,,,,,,507.5211,508.055,z,1,0.5122,,508.0551,508.0551,,0,254,254,203,1,204,yırdun,,,,,6,harmonic,2.8,nw,z,,,,,,,
,,,,2023-11-28_12h55.09.084,VH_v3,2023.2.3,Win32,59.93766483,,,,,,,,,,,,508.0556,509.0553,,,,,,,,,,,,,,,,,,,,,,,,,,509.0554,509.6224,m,1,0.5454,,509.6224,509.6225,,0,255,255,58,1,59,ayak,2143,97.3694,1931,0.2111,4,harmonic,1,word,m,,,,,,,
,,,,2023-11-28_12h55.09.084,VH_v3,2023.2.3,Win32,59.93766483,,,,,,,,,,,,509.623,510.6236,,,,,,,,,,,,,,,,,,,,,,,,,,510.6236,511.191,m,1,0.5473,,511.1911,511.1912,,0,256,256,129,1,130,yorum,3801,172.7024,3473,0.3797,5,harmonic,,word,m,,,,,,,
,,,,2023-11-28_12h55.09.084,VH_v3,2023.2.3,Win32,59.93766483,,,,,,,,,,,,511.1917,512.1917,,,,,,,,,,,,,,,,,,,,,,,,,,512.1917,512.6583,z,1,0.4455,,512.6583,512.6583,,0,257,257,317,1,318,zila,,,,,4,notharmonic,1.65,nw,z,,,,,,,
,,,,2023-11-28_12h55.09.084,VH_v3,2023.2.3,Win32,59.93766483,,,,,,,,,,,,512.6588,513.6596,,,,,,,,,,,,,,,,,,,,,,,,,,513.6596,514.1262,m,1,0.4529,,514.1262,514.1264,,0,258,258,108,1,109,sabah,8179,371.6213,7277,0.7955,5,harmonic,,word,m,,,,,,,
,,,,2023-11-28_12h55.09.084,VH_v3,2023.2.3,Win32,59.93766483,,,,,,,,,,,,514.1268,515.1274,,,,,,,,,,,,,,,,,,,,,,,,,,515.1274,515.6776,z,1,0.5299,,515.6776,515.6778,,0,259,259,335,1,336,askif,,,,,5,notharmonic,2,nw,z,,,,,,,
,,,,2023-11-28_12h55.09.084,VH_v3,2023.2.3,Win32,59.93766483,,,,,,,,,,,,515.6782,516.6786,,,,,,,,,,,,,,,,,,,,,,,,,,516.6786,517.1958,z,1,0.4967,,517.1959,517.196,,0,260,260,218,1,219,yaltın,,,,,6,harmonic,1.8,nw,z,,,,,,,
,,,,2023-11-28_12h55.09.084,VH_v3,2023.2.3,Win32,59.93766483,,,,,,,,,,,,517.1964,518.1969,,,,,,,,,,,,,,,,,,,,,,,,,,518.197,518.7304,z,1,0.5125,,518.7305,518.7306,,0,261,261,352,1,353,yarema,,,,,6,notharmonic,1.95,nw,z,,,,,,,
,,,,2023-11-28_12h55.09.084,VH_v3,2023.2.3,Win32,59.93766483,,,,,,,,,,,,518.7312,519.7313,,,,,,,,,,,,,,,,,,,,,,,,,,519.7313,520.4651,m,1,0.7116,,520.4652,520.4653,,0,262,262,48,1,49,teşvik,932,42.3464,867,0.0948,6,harmonic,1.8,word,m,,,,,,,
,,,,2023-11-28_12h55.09.084,VH_v3,2023.2.3,Win32,59.93766483,,,,,,,,,,,,520.4659,521.4661,,,,,,,,,,,,,,,,,,,,,,,,,,521.4661,521.9995,z,1,0.5165,,521.9995,521.9997,,0,263,263,244,1,245,tazık,,,,,5,harmonic,1.7,nw,z,,,,,,,
,,,,2023-11-28_12h55.09.084,VH_v3,2023.2.3,Win32,59.93766483,,,,,,,,,,,,522.0002,523.0007,,,,,,,,,,,,,,,,,,,,,,,,,,523.0007,523.5178,m,1,0.4957,,523.5178,523.518,,0,264,264,86,1,87,gerçek,8983,408.1519,8058,0.8809,6,harmonic,1.7,word,m,,,,,,,
,,,,2023-11-28_12h55.09.084,VH_v3,2023.2.3,Win32,59.93766483,,,,,,,,,,,,523.5186,524.5183,,,,,,,,,,,,,,,,,,,,,,,,,,524.5184,525.002,z,1,0.4631,,525.0021,525.0022,,0,265,265,354,1,355,dizdat,,,,,6,notharmonic,2.4,nw,z,,,,,,,
,,,,2023-11-28_12h55.09.084,VH_v3,2023.2.3,Win32,59.93766483,,,,,,,,,,,,525.0027,526.0026,,,,,,,,,,,,,,,,,,,,,,,,,,526.0026,526.4696,z,1,0.4474,,526.4698,526.4698,,0,266,266,226,1,227,mara,,,,,4,harmonic,1,nw,z,,,,,,,
,,,,2023-11-28_12h55.09.084,VH_v3,2023.2.3,Win32,59.93766483,,,,,,,,,,,,526.4704,527.4708,,,,,,,,,,,,,,,,,,,,,,,,,,527.4709,527.8714,z,1,0.3793,,527.8714,527.8715,,0,267,267,255,1,256,ubar,,,,,4,harmonic,1.7,nw,z,,,,,,,
,,,,2023-11-28_12h55.09.084,VH_v3,2023.2.3,Win32,59.93766483,,,,,,,,,,,,527.872,528.8721,,,,,,,,,,,,,,,,,,,,,,,,,,528.8722,529.4223,m,1,0.5336,,529.4223,529.4224,,0,268,268,173,1,174,koruma,1187,53.9326,1066,0.1165,6,harmonic,,word,m,,,,,,,
,,,,2023-11-28_12h55.09.084,VH_v3,2023.2.3,Win32,59.93766483,,,,,,,,,,,,529.4229,530.4235,,,,,,,,,,,,,,,,,,,,,,,,,,530.4236,531.0235,m,1,0.581,,531.0235,531.0235,,0,269,269,80,1,81,merkez,1445,65.6551,1255,0.1372,6,harmonic,1.8,word,m,,,,,,,
,,,,2023-11-28_12h55.09.084,VH_v3,2023.2.3,Win32,59.93766483,,,,,,,,,,,,531.0239,532.0247,,,,,,,,,,,,,,,,,,,,,,,,,,532.0248,532.5751,z,1,0.5305,,532.5751,532.5752,,0,270,270,264,1,265,yerfek,,,,,6,harmonic,2,nw,z,,,,,,,
,,,,2023-11-28_12h55.09.084,VH_v3,2023.2.3,Win32,59.93766483,,,,,,,,,,,,532.5756,533.5762,,,,,,,,,,,,,,,,,,,,,,,,,,533.5762,534.1426,z,1,0.5456,,534.1427,534.1428,,0,271,271,353,1,354,medrar,,,,,6,notharmonic,2.05,nw,z,,,,,,,
,,,,2023-11-28_12h55.09.084,VH_v3,2023.2.3,Win32,59.93766483,,,,,,,,,,,,534.1431,535.1437,,,,,,,,,,,,,,,,,,,,,,,,,,535.1437,535.6943,z,1,0.5298,,535.6944,535.6944,,0,272,272,318,1,319,sapel,,,,,5,notharmonic,1.9,nw,z,,,,,,,
,,,,2023-11-28_12h55.09.084,VH_v3,2023.2.3,Win32,59.93766483,,,,,,,,,,,,535.695,536.6952,,,,,,,,,,,,,,,,,,,,,,,,,,536.6953,537.129,z,1,0.4145,,537.129,537.1291,,0,273,273,301,1,302,meyav,,,,,5,notharmonic,1.85,nw,z,,,,,,,
,,,,2023-11-28_12h55.09.084,VH_v3,2023.2.3,Win32,59.93766483,,,,,,,,,,,,537.1296,538.1296,,,,,,,,,,,,,,,,,,,,,,,,,,538.1296,538.8801,m,1,0.7345,,538.8801,538.8803,,0,274,274,8,1,9,güven,1433,65.1098,1300,0.1421,5,harmonic,1.35,word,m,,,,,,,
,,,,2023-11-28_12h55.09.084,VH_v3,2023.2.3,Win32,59.93766483,,,,,,,,,,,,538.8807,539.8815,,,,,,,,,,,,,,,,,,,,,,,,,,539.8816,540.3817,z,1,0.4778,,540.3818,540.3819,,0,275,275,196,1,197,gakık,,,,,5,harmonic,2,nw,z,,,,,,,
,,,,2023-11-28_12h55.09.084,VH_v3,2023.2.3,Win32,59.93766483,,,,,,,,,,,,540.3825,541.3827,,,,,,,,,,,,,,,,,,,,,,,,,,541.3827,541.8488,m,1,0.455,,541.8488,541.8489,,0,276,276,156,1,157,sosyal,5290,240.3566,4372,0.4779,6,harmonic,,word,m,,,,,,,
,,,,2023-11-28_12h55.09.084,VH_v3,2023.2.3,Win32,59.93766483,,,,,,,,,,,,541.8492,542.8504,,,,,,,,,,,,,,,,,,,,,,,,,,542.8505,543.2833,z,1,0.4215,,543.2835,543.2835,,0,277,277,307,1,308,masil,,,,,5,notharmonic,1.65,nw,z,,,,,,,
,,,,2023-11-28_12h55.09.084,VH_v3,2023.2.3,Win32,59.93766483,,,,,,,,,,,,543.2839,544.2852,,,,,,,,,,,,,,,,,,,,,,,,,,544.2852,544.802,z,1,0.4938,,544.8021,544.8022,,0,278,278,189,1,190,kanak,,,,,5,harmonic,1.1,nw,z,,,,,,,
,,,,2023-11-28_12h55.09.084,VH_v3,2023.2.3,Win32,59.93766483,,,,,,,,,,,,544.8027,545.8026,,,,,,,,,,,,,,,,,,,,,,,,,,545.8026,546.3692,m,1,0.5566,,546.3692,546.3693,,0,279,279,72,1,73,çorba,1674,76.0599,1513,0.1654,5,harmonic,1.75,word,m,,,,,,,
,,,,2023-11-28_12h55.09.084,VH_v3,2023.2.3,Win32,59.93766483,,,,,,,,,,,,546.3697,547.3729,,,,,,,,,,,,,,,,,,,,,,,,,,547.3729,547.9213,m,1,0.5283,,547.9213,547.9215,,0,280,280,146,1,147,sarı,2072,94.1435,1838,0.2009,4,harmonic,,word,m,,,,,,,
,,,,2023-11-28_12h55.09.084,VH_v3,2023.2.3,Win32,59.93766483,,,,,,,,,,,,547.9219,548.922,,,,,,,,,,,,,,,,,,,,,,,,,,548.9221,549.3551,z,1,0.4112,,549.3551,549.3552,,0,281,281,240,1,241,şünle,,,,,5,harmonic,1.9,nw,z,,,,,,,
,,,,2023-11-28_12h55.09.084,VH_v3,2023.2.3,Win32,59.93766483,,,,,,,,,,,,549.3555,550.3565,,,,,,,,,,,,,,,,,,,,,,,,,,550.3565,550.8232,z,1,0.4513,,550.8233,550.8234,,0,282,282,350,1,351,bügun,,,,,5,notharmonic,2,nw,z,,,,,,,
,,,,2023-11-28_12h55.09.084,VH_v3,2023.2.3,Win32,59.93766483,,,,,,,,,,,,550.8238,551.8243,,,,,,,,,,,,,,,,,,,,,,,,,,551.8244,552.3745,m,1,0.5389,,552.3746,552.3747,,0,283,283,16,1,17,yavaş,5087,231.1331,2886,0.3155,5,harmonic,1.6,word,m,,,,,,,
,,,,2023-11-28_12h55.09.084,VH_v3,2023.2.3,Win32,59.93766483,,,,,,,,,,,,552.3751,553.3755,,,,,,,,,,,,,,,,,,,,,,,,,,553.3756,553.8593,m,1,0.4674,,553.8593,553.8594,,0,284,284,54,1,55,yedek,825,37.4847,732,0.08,5,harmonic,1.65,word,m,,,,,,,
,,,,2023-11-28_12h55.09.084,VH_v3,2023.2.3,Win32,59.93766483,,,,,,,,,,,,553.8598,554.8605,,,,,,,,,,,,,,,,,,,,,,,,,,554.8605,555.694,m,1,0.8107,,555.6941,555.6942,,0,285,285,20,1,21,nefes,2871,130.4469,2553,0.2791,5,harmonic,1.8,word,m,,,,,,,
,,,,2023-11-28_12h55.09.084,VH_v3,2023.2.3,Win32,59.93766483,,,,,,,,,,,,555.6946,556.6951,,,,,,,,,,,,,,,,,,,,,,,,,,556.6952,557.1119,m,1,0.401,,557.112,557.1121,,0,286,286,120,1,121,doğal,4821,219.0471,4328,0.4731,5,harmonic,,word,m,,,,,,,
,,,,2023-11-28_12h55.09.084,VH_v3,2023.2.3,Win32,59.93766483,,,,,,,,,,,,557.1126,558.1131,,,,,,,,,,,,,,,,,,,,,,,,,,558.1132,558.6133,m,1,0.4792,,558.6134,558.6135,,0,287,287,90,1,91,güzel,42841,1946.5251,37209,4.0677,5,harmonic,,word,m,,,,,,,
,,,,2023-11-28_12h55.09.084,VH_v3,2023.2.3,Win32,59.93766483,,,,,,,,,,,,558.614,559.6143,,,,,,,,,,,,,,,,,,,,,,,,,,559.6143,560.1473,m,1,0.5165,,560.1473,560.1474,,0,288,288,65,1,66,fikir,2552,115.9528,2413,0.2638,5,harmonic,1.9,word,m,,,,,,,
,,,,2023-11-28_12h55.09.084,VH_v3,2023.2.3,Win32,59.93766483,,,,,,,,,,,,560.1478,561.149,,,,,,,,,,,,,,,,,,,,,,,,,,561.1491,561.7328,z,1,0.5624,,561.7329,561.7331,,0,289,289,293,1,294,mosil,,,,,5,notharmonic,1.85,nw,z,,,,,,,
,,,,2023-11-28_12h55.09.084,VH_v3,2023.2.3,Win32,59.93766483,,,,,,,,,,,,561.7337,562.7332,,,,,,,,,,,,,,,,,,,,,,,,,,562.7333,563.1336,z,1,0.3803,,563.1336,563.1338,,0,290,290,321,1,322,kibas,,,,,5,notharmonic,1.9,nw,z,,,,,,,
,,,,2023-11-28_12h55.09.084,VH_v3,2023.2.3,Win32,59.93766483,,,,,,,,,,,,563.1342,564.1345,,,,,,,,,,,,,,,,,,,,,,,,,,564.1345,564.7518,m,1,0.5994,,564.7519,564.752,,0,291,291,19,1,20,ödül,1063,48.2985,926,0.1012,4,harmonic,1.7,word,m,,,,,,,
,,,,2023-11-28_12h55.09.084,VH_v3,2023.2.3,Win32,59.93766483,,,,,,,,,,,,564.7525,565.7526,,,,,,,,,,,,,,,,,,,,,,,,,,565.7526,566.2527,z,1,0.4788,,566.2527,566.2528,,0,292,292,328,1,329,tadit,,,,,5,notharmonic,1.8,nw,z,,,,,,,
,,,,2023-11-28_12h55.09.084,VH_v3,2023.2.3,Win32,59.93766483,,,,,,,,,,,,566.2531,567.2535,,,,,,,,,,,,,,,,,,,,,,,,,,567.2536,568.021,m,1,0.7491,,568.0212,568.0212,,0,293,293,169,1,170,düzgün,1384,62.8835,1310,0.1432,6,harmonic,,word,m,,,,,,,
,,,,2023-11-28_12h55.09.084,VH_v3,2023.2.3,Win32,59.93766483,,,,,,,,,,,,568.0217,569.0219,,,,,,,,,,,,,,,,,,,,,,,,,,569.0219,569.5721,z,1,0.5339,,569.5722,569.5723,,0,294,294,338,1,339,kunik,,,,,5,notharmonic,1.8,nw,z,,,,,,,
,,,,2023-11-28_12h55.09.084,VH_v3,2023.2.3,Win32,59.93766483,,,,,,,,,,,,569.5728,570.5735,,,,,,,,,,,,,,,,,,,,,,,,,,570.5736,571.1736,m,1,0.5792,,571.1737,571.1737,,0,295,295,33,1,34,moda,1381,62.7472,1231,0.1346,4,harmonic,1.55,word,m,,,,,,,
,,,,2023-11-28_12h55.09.084,VH_v3,2023.2.3,Win32,59.93766483,,,,,,,,,,,,571.1743,572.1746,,,,,,,,,,,,,,,,,,,,,,,,,,572.1746,572.7415,m,1,0.5437,,572.7415,572.7417,,0,296,296,110,1,111,beden,1333,60.5662,1119,0.1223,5,harmonic,,word,m,,,,,,,
,,,,2023-11-28_12h55.09.084,VH_v3,2023.2.3,Win32,59.93766483,,,,,,,,,,,,572.7423,573.7426,,,,,,,,,,,,,,,,,,,,,,,,,,573.7428,574.5264,z,1,0.7628,,574.5265,574.5266,,0,297,297,180,1,181,manıt,,,,,5,harmonic,1.75,nw,z,,,,,,,
,,,,2023-11-28_12h55.09.084,VH_v3,2023.2.3,Win32,59.93766483,,,,,,,,,,,,574.527,575.5273,,,,,,,,,,,,,,,,,,,,,,,,,,575.5274,575.9776,z,1,0.4389,,575.9776,575.9777,,0,298,298,195,1,196,habaş,,,,,5,harmonic,1.95,nw,z,,,,,,,
,,,,2023-11-28_12h55.09.084,VH_v3,2023.2.3,Win32,59.93766483,,,,,,,,,,,,575.9781,576.9784,,,,,,,,,,,,,,,,,,,,,,,,,,576.9786,577.4288,z,1,0.4298,,577.4288,577.429,,0,299,299,267,1,268,eşti,,,,,4,harmonic,1.85,nw,z,,,,,,,
,,,,2023-11-28_12h55.09.084,VH_v3,2023.2.3,Win32,59.93766483,,,,,,,,,,,,577.4294,578.4299,,,,,,,,,,,,,,,,,,,,,,,,,,578.4299,578.88,z,1,0.4292,,578.8801,578.8802,,0,300,300,295,1,296,takime,,,,,6,notharmonic,1.9,nw,z,,,,,,,
,,,,2023-11-28_12h55.09.084,VH_v3,2023.2.3,Win32,59.93766483,,,,,,,,,,,,578.8807,579.8808,,,,,,,,,,,,,,,,,,,,,,,,,,579.8808,580.3478,z,1,0.4463,,580.3478,580.348,,0,301,301,325,1,326,icanat,,,,,6,notharmonic,2.25,nw,z,,,,,,,
,,,,2023-11-28_12h55.09.084,VH_v3,2023.2.3,Win32,59.93766483,,,,,,,,,,,,580.3485,581.3489,,,,,,,,,,,,,,,,,,,,,,,,,,581.349,581.9829,m,1,0.6122,,581.9829,581.983,,0,302,302,25,1,26,rapor,703,31.9415,617,0.0675,5,harmonic,1.8,word,m,,,,,,,
,,,,2023-11-28_12h55.09.084,VH_v3,2023.2.3,Win32,59.93766483,,,,,,,,,,,,581.9835,582.9839,,,,,,,,,,,,,,,,,,,,,,,,,,582.9839,583.6673,z,1,0.6621,,583.6674,583.6674,,0,303,303,224,1,225,binci,,,,,5,harmonic,1.5,nw,z,,,,,,,
,,,,2023-11-28_12h55.09.084,VH_v3,2023.2.3,Win32,59.93766483,,,,,,,,,,,,583.6679,584.6676,,,,,,,,,,,,,,,,,,,,,,,,,,584.6677,585.4183,z,1,0.7324,,585.4184,585.4184,,0,304,304,181,1,182,erben,,,,,5,harmonic,1.8,nw,z,,,,,,,
,,,,2023-11-28_12h55.09.084,VH_v3,2023.2.3,Win32,59.93766483,,,,,,,,,,,,585.4188,586.4197,,,,,,,,,,,,,,,,,,,,,,,,,,586.4197,587.07,m,1,0.6306,,587.07,587.0701,,0,305,305,59,1,60,köpek,1044,47.4352,901,0.0985,5,harmonic,1.75,word,m,,,,,,,
,,,,2023-11-28_12h55.09.084,VH_v3,2023.2.3,Win32,59.93766483,,,,,,,,,,,,587.0705,588.0715,,,,,,,,,,,,,,,,,,,,,,,,,,588.0716,588.6045,m,1,0.52,,588.6046,588.6046,,0,306,306,35,1,36,hava,4975,226.0443,4398,0.4808,4,harmonic,1,word,m,,,,,,,
,,,,2023-11-28_12h55.09.084,VH_v3,2023.2.3,Win32,59.93766483,,,,,,,,,,,,588.605,589.605,,,,,,,,,,,,,,,,,,,,,,,,,,589.605,590.156,z,1,0.5305,,590.1561,590.1562,,0,307,307,355,1,356,daneta,,,,,6,notharmonic,2.4,nw,z,,,,,,,
,,,,2023-11-28_12h55.09.084,VH_v3,2023.2.3,Win32,59.93766483,,,,,,,,,,,,590.1567,591.1571,,,,,,,,,,,,,,,,,,,,,,,,,,591.1571,591.724,z,1,0.5463,,591.724,591.7242,,0,308,308,212,1,213,toya,,,,,4,harmonic,1.6,nw,z,,,,,,,
,,,,2023-11-28_12h55.09.084,VH_v3,2023.2.3,Win32,59.93766483,,,,,,,,,,,,591.7245,592.725,,,,,,,,,,,,,,,,,,,,,,,,,,592.725,593.158,m,1,0.415,,593.158,593.1581,,0,309,309,109,1,110,dalga,1307,59.3849,1117,0.1221,5,harmonic,,word,m,,,,,,,
,,,,2023-11-28_12h55.09.084,VH_v3,2023.2.3,Win32,59.93766483,,,,,,,,,,,,593.1586,594.1592,,,,,,,,,,,,,,,,,,,,,,,,,,594.1593,594.8436,m,1,0.6627,,594.8437,594.8438,,0,310,310,87,1,88,mümkün,6604,300.0596,6264,0.6848,6,harmonic,1.9,word,m,,,,,,,
,,,,2023-11-28_12h55.09.084,VH_v3,2023.2.3,Win32,59.93766483,,,,,,,,,,,,594.8443,595.8443,,,,,,,,,,,,,,,,,,,,,,,,,,595.8443,596.3277,m,1,0.4624,,596.3277,596.3279,,0,311,311,7,1,8,hizmet,3023,137.3531,2689,0.294,6,harmonic,1.75,word,m,,,,,,,
,,,,2023-11-28_12h55.09.084,VH_v3,2023.2.3,Win32,59.93766483,,,,,,,,,,,,596.3282,597.3286,,,,,,,,,,,,,,,,,,,,,,,,,,597.3287,597.8788,z,1,0.5354,,597.8789,597.879,,0,312,312,200,1,201,duftu,,,,,5,harmonic,2.5,nw,z,,,,,,,
,,,,2023-11-28_12h55.09.084,VH_v3,2023.2.3,Win32,59.93766483,,,,,,,,,,,,597.8794,598.8798,,,,,,,,,,,,,,,,,,,,,,,,,,598.8799,599.4136,z,1,0.5233,,599.4137,599.4138,,0,313,313,225,1,226,sakam,,,,,5,harmonic,1.45,nw,z,,,,,,,
,,,,2023-11-28_12h55.09.084,VH_v3,2023.2.3,Win32,59.93766483,,,,,,,,,,,,599.4142,600.4146,,,,,,,,,,,,,,,,,,,,,,,,,,600.4146,600.8317,z,1,0.3983,,600.8319,600.832,,0,314,314,209,1,210,çirre,,,,,5,harmonic,2,nw,z,,,,,,,
,,,,2023-11-28_12h55.09.084,VH_v3,2023.2.3,Win32,59.93766483,,,,,,,,,,,,600.8325,601.8322,,,,,,,,,,,,,,,,,,,,,,,,,,601.8322,602.3329,m,1,0.4792,,602.3329,602.333,,0,315,315,83,1,84,küçük,14048,638.2854,12467,1.3629,5,harmonic,1.75,word,m,,,,,,,
,,,,2023-11-28_12h55.09.084,VH_v3,2023.2.3,Win32,59.93766483,,,,,,,,,,,,602.3334,603.3339,,,,,,,,,,,,,,,,,,,,,,,,,,603.3339,603.8841,m,1,0.529,,603.8841,603.8843,,0,316,316,116,1,117,tatlı,5515,250.5797,4949,0.541,5,harmonic,,word,m,,,,,,,
,,,,2023-11-28_12h55.09.084,VH_v3,2023.2.3,Win32,59.93766483,,,,,,,,,,,,603.8847,604.8842,,,,,,,,,,,,,,,,,,,,,,,,,,604.8842,605.4022,m,1,0.498,,605.4023,605.4024,,0,317,317,1,1,2,erkek,6188,281.1582,5195,0.5679,5,harmonic,1.65,word,m,,,,,,,
,,,,2023-11-28_12h55.09.084,VH_v3,2023.2.3,Win32,59.93766483,,,,,,,,,,,,605.4028,606.4026,,,,,,,,,,,,,,,,,,,,,,,,,,606.4026,606.9528,z,1,0.5367,,606.9528,606.9528,,0,318,318,358,1,359,ksalik,,,,,6,notharmonic,,nw,z,,,,,,,
,,,,2023-11-28_12h55.09.084,VH_v3,2023.2.3,Win32,59.93766483,,,,,,,,,,,,606.9532,607.9541,,,,,,,,,,,,,,,,,,,,,,,,,,607.9541,608.4379,z,1,0.4635,,608.438,608.4381,,0,319,319,327,1,328,zena,,,,,4,notharmonic,1.65,nw,z,,,,,,,
,,,,2023-11-28_12h55.09.084,VH_v3,2023.2.3,Win32,59.93766483,,,,,,,,,,,,608.4387,609.4391,,,,,,,,,,,,,,,,,,,,,,,,,,609.4392,610.0553,m,1,0.595,,610.0554,610.0555,,0,320,320,56,1,57,sağlam,1818,82.6027,1720,0.188,6,harmonic,1.6,word,m,,,,,,,
,,,,2023-11-28_12h55.09.084,VH_v3,2023.2.3,Win32,59.93766483,,,,,,,,,,,,610.056,611.0564,,,,,,,,,,,,,,,,,,,,,,,,,,611.0565,611.5235,z,1,0.4569,,611.5236,611.5236,,0,321,321,314,1,315,betaş,,,,,5,notharmonic,1.9,nw,z,,,,,,,
,,,,2023-11-28_12h55.09.084,VH_v3,2023.2.3,Win32,59.93766483,,,,,,,,,,,,611.5239,612.5244,,,,,,,,,,,,,,,,,,,,,,,,,,612.5245,613.092,m,1,0.5522,,613.092,613.0921,,0,322,322,36,1,37,meslek,1082,49.1618,976,0.1067,6,harmonic,1.9,word,m,,,,,,,
,,,,2023-11-28_12h55.09.084,VH_v3,2023.2.3,Win32,59.93766483,,,,,,,,,,,,613.0925,614.0925,,,,,,,,,,,,,,,,,,,,,,,,,,614.0926,614.6262,m,1,0.515,,614.6263,614.6264,,0,323,323,147,1,148,dizi,1995,90.6449,1689,0.1846,4,harmonic,,word,m,,,,,,,
,,,,2023-11-28_12h55.09.084,VH_v3,2023.2.3,Win32,59.93766483,,,,,,,,,,,,614.6268,615.6271,,,,,,,,,,,,,,,,,,,,,,,,,,615.6271,616.161,m,1,0.5132,,616.161,616.1612,,0,324,324,115,1,116,uygun,6757,307.0113,6297,0.6884,5,harmonic,,word,m,,,,,,,
,,,,2023-11-28_12h55.09.084,VH_v3,2023.2.3,Win32,59.93766483,,,,,,,,,,,,616.1616,617.1617,,,,,,,,,,,,,,,,,,,,,,,,,,617.1617,617.5952,m,1,0.4207,,617.5952,617.5952,,0,325,325,14,1,15,yaşam,4348,197.5559,3918,0.4283,5,harmonic,1.4,word,m,,,,,,,
,,,,2023-11-28_12h55.09.084,VH_v3,2023.2.3,Win32,59.93766483,,,,,,,,,,,,617.5957,618.5963,,,,,,,,,,,,,,,,,,,,,,,,,,618.5963,619.0799,m,1,0.4626,,619.08,619.0802,,0,326,326,12,1,13,konu,5400,245.3546,5110,0.5586,4,harmonic,1,word,m,,,,,,,
,,,,2023-11-28_12h55.09.084,VH_v3,2023.2.3,Win32,59.93766483,,,,,,,,,,,,619.0807,620.0808,,,,,,,,,,,,,,,,,,,,,,,,,,620.0808,620.5147,m,1,0.41,,620.5147,620.5149,,0,327,327,130,1,131,sonuç,3768,171.203,3626,0.3964,5,harmonic,,word,m,,,,,,,
,,,,2023-11-28_12h55.09.084,VH_v3,2023.2.3,Win32,59.93766483,,,,,,,,,,,,620.5153,621.5154,,,,,,,,,,,,,,,,,,,,,,,,,,621.5155,621.9992,m,1,0.4725,,621.9993,621.9994,,0,328,328,82,1,83,aday,1028,46.7082,873,0.0954,4,harmonic,1.45,word,m,,,,,,,
,,,,2023-11-28_12h55.09.084,VH_v3,2023.2.3,Win32,59.93766483,,,,,,,,,,,,621.9997,623.0002,,,,,,,,,,,,,,,,,,,,,,,,,,623.0002,623.4169,m,1,0.4025,,623.417,623.4171,,0,329,329,40,1,41,tepki,1695,77.0141,1578,0.1725,5,harmonic,1.55,word,m,,,,,,,
,,,,2023-11-28_12h55.09.084,VH_v3,2023.2.3,Win32,59.93766483,,,,,,,,,,,,623.4174,624.4178,,,,,,,,,,,,,,,,,,,,,,,,,,624.4179,625.0682,z,1,0.6297,,625.0683,625.0684,,0,330,330,347,1,348,şeylam,,,,,6,notharmonic,2.4,nw,z,,,,,,,
,,,,2023-11-28_12h55.09.084,VH_v3,2023.2.3,Win32,59.93766483,,,,,,,,,,,,625.0689,626.0691,,,,,,,,,,,,,,,,,,,,,,,,,,626.0691,626.5189,z,1,0.4382,,626.5189,626.519,,0,331,331,245,1,246,mahram,,,,,6,harmonic,1.85,nw,z,,,,,,,
,,,,2023-11-28_12h55.09.084,VH_v3,2023.2.3,Win32,59.93766483,,,,,,,,,,,,626.5193,627.52,,,,,,,,,,,,,,,,,,,,,,,,,,627.5201,628.1206,m,1,0.5839,,628.1207,628.1208,,0,332,332,157,1,158,eğitim,4784,217.366,3846,0.4204,6,harmonic,,word,m,,,,,,,
,,,,2023-11-28_12h55.09.084,VH_v3,2023.2.3,Win32,59.93766483,,,,,,,,,,,,628.1214,629.1214,,,,,,,,,,,,,,,,,,,,,,,,,,629.1214,629.6051,m,1,0.4708,,629.6051,629.6053,,0,333,333,41,1,42,zengin,2193,99.6412,2015,0.2203,6,harmonic,1.65,word,m,,,,,,,
,,,,2023-11-28_12h55.09.084,VH_v3,2023.2.3,Win32,59.93766483,,,,,,,,,,,,629.6056,630.6064,,,,,,,,,,,,,,,,,,,,,,,,,,630.6064,631.1562,z,1,0.5281,,631.1562,631.1562,,0,334,334,341,1,342,sizika,,,,,6,notharmonic,2.45,nw,z,,,,,,,
,,,,2023-11-28_12h55.09.084,VH_v3,2023.2.3,Win32,59.93766483,,,,,,,,,,,,631.1566,632.1576,,,,,,,,,,,,,,,,,,,,,,,,,,632.1577,632.7581,m,1,0.5802,,632.7582,632.7583,,0,335,335,30,1,31,çevre,1662,75.5147,1409,0.154,5,harmonic,1.55,word,m,,,,,,,
,,,,2023-11-28_12h55.09.084,VH_v3,2023.2.3,Win32,59.93766483,,,,,,,,,,,,632.7587,633.7586,,,,,,,,,,,,,,,,,,,,,,,,,,633.7587,634.2592,z,1,0.4782,,634.2592,634.2594,,0,336,336,215,1,216,maflek,,,,,6,harmonic,2.15,nw,z,,,,,,,
,,,,2023-11-28_12h55.09.084,VH_v3,2023.2.3,Win32,59.93766483,,,,,,,,,,,,634.2599,635.2594,,,,,,,,,,,,,,,,,,,,,,,,,,635.2595,635.8105,z,1,0.5319,,635.8106,635.8107,,0,337,337,286,1,287,elsaf,,,,,5,notharmonic,1.9,nw,z,,,,,,,
,,,,2023-11-28_12h55.09.084,VH_v3,2023.2.3,Win32,59.93766483,,,,,,,,,,,,635.8113,636.8114,,,,,,,,,,,,,,,,,,,,,,,,,,636.8115,637.378,m,1,0.552,,637.3781,637.3782,,0,338,338,113,1,114,akşam,7480,339.8615,6833,0.747,5,harmonic,,word,m,,,,,,,
,,,,2023-11-28_12h55.09.084,VH_v3,2023.2.3,Win32,59.93766483,,,,,,,,,,,,637.3787,638.3792,,,,,,,,,,,,,,,,,,,,,,,,,,638.3793,638.8965,m,1,0.5012,,638.8966,638.8967,,0,339,339,168,1,169,peynir,1421,64.5646,1248,0.1364,6,harmonic,,word,m,,,,,,,
,,,,2023-11-28_12h55.09.084,VH_v3,2023.2.3,Win32,59.93766483,,,,,,,,,,,,638.8971,639.8974,,,,,,,,,,,,,,,,,,,,,,,,,,639.8975,640.4306,m,1,0.5199,,640.4306,640.4308,,0,340,340,134,1,135,hanım,3564,161.934,3151,0.3445,5,harmonic,,word,m,,,,,,,
,,,,2023-11-28_12h55.09.084,VH_v3,2023.2.3,Win32,59.93766483,,,,,,,,,,,,640.4312,641.4323,,,,,,,,,,,,,,,,,,,,,,,,,,641.4324,642.0492,z,1,0.606,,642.0492,642.0493,,0,341,341,205,1,206,sefbe,,,,,5,harmonic,2,nw,z,,,,,,,
,,,,2023-11-28_12h55.09.084,VH_v3,2023.2.3,Win32,59.93766483,,,,,,,,,,,,642.0498,643.0503,,,,,,,,,,,,,,,,,,,,,,,,,,643.0504,643.6006,z,1,0.527,,643.6007,643.6008,,0,342,342,229,1,230,ilgent,,,,,6,harmonic,2.7,nw,z,,,,,,,
,,,,2023-11-28_12h55.09.084,VH_v3,2023.2.3,Win32,59.93766483,,,,,,,,,,,,643.6013,644.601,,,,,,,,,,,,,,,,,,,,,,,,,,644.6011,645.0845,z,1,0.4633,,645.0846,645.0847,,0,343,343,206,1,207,bülse,,,,,5,harmonic,2,nw,z,,,,,,,
,,,,2023-11-28_12h55.09.084,VH_v3,2023.2.3,Win32,59.93766483,,,,,,,,,,,,645.0852,646.0858,,,,,,,,,,,,,,,,,,,,,,,,,,646.0858,646.8025,m,1,0.7032,,646.8025,646.8026,,0,344,344,78,1,79,ulusal,1551,70.4713,1355,0.1481,6,harmonic,1.75,word,m,,,,,,,
,,,,2023-11-28_12h55.09.084,VH_v3,2023.2.3,Win32,59.93766483,,,,,,,,,,,,646.803,647.8041,,,,,,,,,,,,,,,,,,,,,,,,,,647.8042,648.2709,m,1,0.4468,,648.2709,648.271,,0,345,345,172,1,173,halka,1196,54.3415,1014,0.1109,6,harmonic,,word,m,,,,,,,
,,,,2023-11-28_12h55.09.084,VH_v3,2023.2.3,Win32,59.93766483,,,,,,,,,,,,648.2715,649.2716,,,,,,,,,,,,,,,,,,,,,,,,,,649.2717,649.7721,z,1,0.4803,,649.7721,649.7722,,0,346,346,266,1,267,yannoz,,,,,6,harmonic,2.85,nw,z,,,,,,,
,,,,2023-11-28_12h55.09.084,VH_v3,2023.2.3,Win32,59.93766483,,,,,,,,,,,,649.7726,650.7727,,,,,,,,,,,,,,,,,,,,,,,,,,650.7728,651.3397,z,1,0.554,,651.3398,651.3399,,0,347,347,187,1,188,hücmet,,,,,6,harmonic,1.85,nw,z,,,,,,,
,,,,2023-11-28_12h55.09.084,VH_v3,2023.2.3,Win32,59.93766483,,,,,,,,,,,,651.3403,652.3406,,,,,,,,,,,,,,,,,,,,,,,,,,652.3406,652.9582,m,1,0.5964,,652.9582,652.9584,,0,348,348,101,1,102,kabul,10003,454.4967,9014,0.9854,5,harmonic,,word,m,,,,,,,
,,,,2023-11-28_12h55.09.084,VH_v3,2023.2.3,Win32,59.93766483,,,,,,,,,,,,652.9587,653.9589,,,,,,,,,,,,,,,,,,,,,,,,,,653.959,654.4428,m,1,0.4612,,654.4429,654.4429,,0,349,349,70,1,71,yarın,3440,156.3,3222,0.3522,5,harmonic,1.85,word,m,,,,,,,
,,,,2023-11-28_12h55.09.084,VH_v3,2023.2.3,Win32,59.93766483,,,,,,,,,,,,654.4435,655.4432,,,,,,,,,,,,,,,,,,,,,,,,,,655.4432,655.9267,z,1,0.4703,,655.9268,655.9269,,0,350,350,302,1,303,desum,,,,,5,notharmonic,2,nw,z,,,,,,,
,,,,2023-11-28_12h55.09.084,VH_v3,2023.2.3,Win32,59.93766483,,,,,,,,,,,,655.9273,656.9282,,,,,,,,,,,,,,,,,,,,,,,,,,656.9282,657.3948,m,1,0.4535,,657.3948,657.3948,,0,351,351,92,1,93,büyük,32406,1472.4001,28224,3.0855,5,harmonic,,word,m,,,,,,,
,,,,2023-11-28_12h55.09.084,VH_v3,2023.2.3,Win32,59.93766483,,,,,,,,,,,,657.3953,658.3959,,,,,,,,,,,,,,,,,,,,,,,,,,658.3959,658.8629,m,1,0.4447,,658.863,658.8631,,0,352,352,100,1,101,zayıf,1359,61.7476,1285,0.1405,5,harmonic,,word,m,,,,,,,
,,,,2023-11-28_12h55.09.084,VH_v3,2023.2.3,Win32,59.93766483,,,,,,,,,,,,658.8636,659.864,,,,,,,,,,,,,,,,,,,,,,,,,,659.864,660.4304,z,1,0.5537,,660.4305,660.4306,,0,353,353,192,1,193,kusu,,,,,4,harmonic,1.5,nw,z,,,,,,,
,,,,2023-11-28_12h55.09.084,VH_v3,2023.2.3,Win32,59.93766483,,,,,,,,,,,,660.431,661.4317,,,,,,,,,,,,,,,,,,,,,,,,,,661.4318,661.965,z,1,0.5216,,661.965,661.965,,0,354,354,310,1,311,moderp,,,,,6,notharmonic,,nw,z,,,,,,,
,,,,2023-11-28_12h55.09.084,VH_v3,2023.2.3,Win32,59.93766483,,,,,,,,,,,,661.9654,662.9662,,,,,,,,,,,,,,,,,,,,,,,,,,662.9663,663.4499,z,0,0.463,,663.4499,663.45,,0,355,355,17,1,18,yakın,7990,363.0339,7595,0.8303,5,harmonic,1.8,word,m,,,,,,,
,,,,2023-11-28_12h55.09.084,VH_v3,2023.2.3,Win32,59.93766483,,,,,,,,,,,,663.4503,664.4509,,,,,,,,,,,,,,,,,,,,,,,,,,664.451,664.9015,m,1,0.4291,,664.9016,664.9017,,0,356,356,142,1,143,aşık,2464,111.9544,2129,0.2327,4,harmonic,,word,m,,,,,,,
,,,,2023-11-28_12h55.09.084,VH_v3,2023.2.3,Win32,59.93766483,,,,,,,,,,,,664.9022,665.9017,,,,,,,,,,,,,,,,,,,,,,,,,,665.9017,666.3356,m,1,0.4142,,666.3356,666.3358,,0,357,357,71,1,72,örnek,3463,157.345,3266,0.357,5,harmonic,1.85,word,m,,,,,,,
,,,,2023-11-28_12h55.09.084,VH_v3,2023.2.3,Win32,59.93766483,,,,,,,,,,,,666.3364,667.337,,,,,,,,,,,,,,,,,,,,,,,,,,667.337,667.8536,m,1,0.4946,,667.8537,667.8538,,0,358,358,117,1,118,yavaş,5087,231.1331,2886,0.3155,5,harmonic,,word,m,,,,,,,
,,,,2023-11-28_12h55.09.084,VH_v3,2023.2.3,Win32,59.93766483,,,,,,,,,,,,667.8542,668.8544,,,,,,,,,,,,,,,,,,,,,,,,,,668.8545,669.3216,m,1,0.4459,,669.3217,669.3219,,0,359,359,151,1,152,uzak,4809,218.5019,4564,0.4989,4,harmonic,,word,m,,,,,,,
,,,,2023-11-28_12h55.09.084,VH_v3,2023.2.3,Win32,59.93766483,,,,,,,,,,,,,,,,,,,,,,,,,,,,,,,,,,,,,,,,,,,,,,,,,,,,,,,,,,,,,,,,,,669.3231,671.39,space,2.0485,