anket.started,anket.stopped,participant,session,date,expName,psychopyVersion,OS,frameRate,Welcome_screen.started,Welcome_screen.stopped,key_respwelcome.keys,key_respwelcome.rt,key_respwelcome.duration,intro_x.thisRepN,intro_x.thisTrialN,intro_x.thisN,intro_x.thisIndex,intro_x.ran,Introduction,Fixation.started,Fixation.stopped,Studypractice.started,Studypractice.stopped,key_respstudy.keys,key_respstudy.corr,key_respstudy.rt,key_respstudy.duration,rt,corr,Feedback.started,Feedback.stopped,practice_loop.thisRepN,practice_loop.thisTrialN,practice_loop.thisN,practice_loop.thisIndex,practice_loop.ran,item_nr_p,target_p,isHarmonic_p,target_cond_p,CorrAns_p,Instraction.started,Instraction.stopped,key_respınstraction.keys,key_respınstraction.rt,key_respınstraction.duration,TestTrial.started,TestTrial.stopped,key_respTest.keys,key_respTest.corr,key_respTest.rt,key_respTest.duration,Pause.started,Pause.stopped,key_resp_xx.keys,test_loop.thisRepN,test_loop.thisTrialN,test_loop.thisN,test_loop.thisIndex,test_loop.ran,item_nr,target,BlogFreq_A1,BlogFreqpm_A1,BlogCD_A1,BlogCDPc_A1,WordLength_A1,isHarmonic_A1,old20,target_cond,CorrAns,key_resp_xx.rt,key_resp_xx.duration,Goodbye_screen.started,Goodbye_screen.stopped,key_respgoodbye.keys,key_respgoodbye.rt,key_respgoodbye.duration
0.001,0.002,,,2023-11-28_11h38.09.014,VH_v3,2023.2.3,MacIntel,58.82352941,,,,,,,,,,,,,,,,,,,,,,,,,,,,,,,,,,,,,,,,,,,,,,,,,,,,,,,,,,,,,,,,,,,,,,
,,,,2023-11-28_11h38.09.014,VH_v3,2023.2.3,MacIntel,58.82352941,0.035,1.359,space,1.296,,0,0,0,0,1,"Deneye hoş geldiniz,

Devam etmek için BOŞLUK tuşuna basınız.",,,,,,,,,,,,,,,,,,,,,,,,,,,,,,,,,,,,,,,,,,,,,,,,,,,,,,,,,,,
,,,,2023-11-28_11h38.09.014,VH_v3,2023.2.3,MacIntel,58.82352941,1.36,21.605,space,20.222,,0,1,1,1,1,"Bu çalışma Valencia Üniversitesi kapsamında yürütülmektedir. Deneydeki göreviniz, ekrana çıkacak Türkçe sözcüklerin kelime olup olmadığını belirlemenizdir. Eğer sözcük gerçek bir kelime ise ""m"" tuşuna, değil ise ""z"" tuşuna basınız.   

Devam etmek için BOŞLUK tuşuna basınız.",,,,,,,,,,,,,,,,,,,,,,,,,,,,,,,,,,,,,,,,,,,,,,,,,,,,,,,,,,,
,,,,2023-11-28_11h38.09.014,VH_v3,2023.2.3,MacIntel,58.82352941,21.606,28.771,space,7.134,,0,2,2,2,1,"Her sözcük için en fazla iki saniyede cevap vermeniz beklenmektedir. Aksi takdirde deney bir sonraki sözcük ile devam eder. 
Bu çalışmada oldukça hızlı ve doğru cevaplama yapmanız beklenmektedir.

Devam etmek için BOŞLUK tuşuna basınız.",,,,,,,,,,,,,,,,,,,,,,,,,,,,,,,,,,,,,,,,,,,,,,,,,,,,,,,,,,,
,,,,2023-11-28_11h38.09.014,VH_v3,2023.2.3,MacIntel,58.82352941,28.772,35.09,space,6.29,,0,3,3,3,1,"Çalışmaya başlamadan önce ufak bir pratik yer almaktadır.
Kelimedir: ""m""
Kelime değildir: ""z""

Pratik teste başlamak için BOŞLUK tuşuna basınız. ",,,,,,,,,,,,,,,,,,,,,,,,,,,,,,,,,,,,,,,,,,,,,,,,,,,,,,,,,,,
,,,,2023-11-28_11h38.09.014,VH_v3,2023.2.3,MacIntel,58.82352941,,,,,,,,,,,,35.124,36.105,36.105,38.106,m,1,1.976,,1.976,1,38.107,39.596,0,0,0,8,1,9,bilim,harmonic,word,m,,,,,,,,,,,,,,,,,,,,,,,,,,,,,,,,,,,,,
,,,,2023-11-28_11h38.09.014,VH_v3,2023.2.3,MacIntel,58.82352941,,,,,,,,,,,,39.597,40.593,40.594,40.727,m,1,0.112,,0.112,1,40.727,42.223,0,1,1,1,1,2,veri,harmonic,word,m,,,,,,,,,,,,,,,,,,,,,,,,,,,,,,,,,,,,,
,,,,2023-11-28_11h38.09.014,VH_v3,2023.2.3,MacIntel,58.82352941,,,,,,,,,,,,42.223,43.221,43.221,45.882,m,1,2.646,,2.646,1,45.882,47.378,0,2,2,0,1,1,hazır,harmonic,word,m,,,,,,,,,,,,,,,,,,,,,,,,,,,,,,,,,,,,,
,,,,2023-11-28_11h38.09.014,VH_v3,2023.2.3,MacIntel,58.82352941,,,,,,,,,,,,47.379,48.375,48.375,49.972,z,1,1.577,,1.577,1,49.972,51.469,0,3,3,19,1,20,mımal,harmonic,nw,z,,,,,,,,,,,,,,,,,,,,,,,,,,,,,,,,,,,,,
,,,,2023-11-28_11h38.09.014,VH_v3,2023.2.3,MacIntel,58.82352941,,,,,,,,,,,,51.469,52.466,52.466,53.347,z,1,0.865,,0.865,1,53.347,54.844,0,4,4,17,1,18,pilar,notharmonic,nw,z,,,,,,,,,,,,,,,,,,,,,,,,,,,,,,,,,,,,,
,,,,2023-11-28_11h38.09.014,VH_v3,2023.2.3,MacIntel,58.82352941,,,,,,,,,,,,54.845,55.842,55.842,56.606,z,1,0.743,,0.743,1,56.606,58.102,0,5,5,16,1,17,ihlot,notharmonic,nw,z,,,,,,,,,,,,,,,,,,,,,,,,,,,,,,,,,,,,,
,,,,2023-11-28_11h38.09.014,VH_v3,2023.2.3,MacIntel,58.82352941,,,,,,,,,,,,58.103,59.1,59.1,59.715,m,1,0.594,,0.594,1,59.715,61.212,0,6,6,3,1,4,sevgi,harmonic,word,m,,,,,,,,,,,,,,,,,,,,,,,,,,,,,,,,,,,,,
,,,,2023-11-28_11h38.09.014,VH_v3,2023.2.3,MacIntel,58.82352941,,,,,,,,,,,,61.213,62.21,62.21,63.107,z,1,0.881,,0.881,1,63.107,64.604,0,7,7,21,1,22,güçli,harmonic,nw,z,,,,,,,,,,,,,,,,,,,,,,,,,,,,,,,,,,,,,
,,,,2023-11-28_11h38.09.014,VH_v3,2023.2.3,MacIntel,58.82352941,,,,,,,,,,,,64.604,65.601,65.601,66.566,m,0,0.946,,0.946,0,66.566,68.063,0,8,8,13,1,14,orat,harmonic,nw,z,,,,,,,,,,,,,,,,,,,,,,,,,,,,,,,,,,,,,
,,,,2023-11-28_11h38.09.014,VH_v3,2023.2.3,MacIntel,58.82352941,,,,,,,,,,,,68.063,69.06,69.06,69.875,z,1,0.799,,0.799,1,69.875,71.371,0,9,9,23,1,24,zarim,notharmonic,nw,z,,,,,,,,,,,,,,,,,,,,,,,,,,,,,,,,,,,,,
,,,,2023-11-28_11h38.09.014,VH_v3,2023.2.3,MacIntel,58.82352941,,,,,,,,,,,,71.372,72.369,72.369,73.101,m,1,0.71,,0.71,1,73.101,74.596,0,10,10,2,1,3,yardım,harmonic,word,m,,,,,,,,,,,,,,,,,,,,,,,,,,,,,,,,,,,,,
,,,,2023-11-28_11h38.09.014,VH_v3,2023.2.3,MacIntel,58.82352941,,,,,,,,,,,,74.597,75.595,75.595,76.443,m,1,0.836,,0.836,1,76.443,77.94,0,11,11,11,1,12,teslim,harmonic,word,m,,,,,,,,,,,,,,,,,,,,,,,,,,,,,,,,,,,,,
,,,,2023-11-28_11h38.09.014,VH_v3,2023.2.3,MacIntel,58.82352941,,,,,,,,,,,,77.94,78.936,78.936,79.669,m,1,0.71,,0.71,1,79.669,81.164,0,12,12,9,1,10,zarar,harmonic,word,m,,,,,,,,,,,,,,,,,,,,,,,,,,,,,,,,,,,,,
,,,,2023-11-28_11h38.09.014,VH_v3,2023.2.3,MacIntel,58.82352941,,,,,,,,,,,,81.165,82.163,82.163,82.795,m,1,0.609,,0.609,1,82.795,84.291,0,13,13,4,1,5,soğuk,harmonic,word,m,,,,,,,,,,,,,,,,,,,,,,,,,,,,,,,,,,,,,
,,,,2023-11-28_11h38.09.014,VH_v3,2023.2.3,MacIntel,58.82352941,,,,,,,,,,,,84.291,85.289,85.289,85.937,m,1,0.633,,0.633,1,85.937,87.434,0,14,14,7,1,8,oran,harmonic,word,m,,,,,,,,,,,,,,,,,,,,,,,,,,,,,,,,,,,,,
,,,,2023-11-28_11h38.09.014,VH_v3,2023.2.3,MacIntel,58.82352941,,,,,,,,,,,,87.434,88.431,88.431,89.346,z,1,0.894,,0.894,1,89.346,90.842,0,15,15,22,1,23,gizım,notharmonic,nw,z,,,,,,,,,,,,,,,,,,,,,,,,,,,,,,,,,,,,,
,,,,2023-11-28_11h38.09.014,VH_v3,2023.2.3,MacIntel,58.82352941,,,,,,,,,,,,90.842,91.84,91.84,92.454,m,1,0.588,,0.588,1,92.454,93.952,0,16,16,6,1,7,sebep,harmonic,word,m,,,,,,,,,,,,,,,,,,,,,,,,,,,,,,,,,,,,,
,,,,2023-11-28_11h38.09.014,VH_v3,2023.2.3,MacIntel,58.82352941,,,,,,,,,,,,93.953,94.948,94.948,96.196,z,1,1.226,,1.226,1,96.197,97.692,0,17,17,14,1,15,mahne,notharmonic,nw,z,,,,,,,,,,,,,,,,,,,,,,,,,,,,,,,,,,,,,
,,,,2023-11-28_11h38.09.014,VH_v3,2023.2.3,MacIntel,58.82352941,,,,,,,,,,,,97.693,98.69,98.69,100.087,z,1,1.377,,1.377,1,100.087,101.583,0,18,18,18,1,19,pimer,harmonic,nw,z,,,,,,,,,,,,,,,,,,,,,,,,,,,,,,,,,,,,,
,,,,2023-11-28_11h38.09.014,VH_v3,2023.2.3,MacIntel,58.82352941,,,,,,,,,,,,101.584,102.581,102.581,103.562,z,1,0.967,,0.967,1,103.562,105.059,0,19,19,15,1,16,geki,harmonic,nw,z,,,,,,,,,,,,,,,,,,,,,,,,,,,,,,,,,,,,,
,,,,2023-11-28_11h38.09.014,VH_v3,2023.2.3,MacIntel,58.82352941,,,,,,,,,,,,105.059,106.056,106.056,106.705,m,1,0.629,,0.629,1,106.705,108.201,0,20,20,5,1,6,gizli,harmonic,word,m,,,,,,,,,,,,,,,,,,,,,,,,,,,,,,,,,,,,,
,,,,2023-11-28_11h38.09.014,VH_v3,2023.2.3,MacIntel,58.82352941,,,,,,,,,,,,108.201,109.199,109.199,110.545,z,1,1.334,,1.334,1,110.545,112.043,0,21,21,12,1,13,tahip,notharmonic,nw,z,,,,,,,,,,,,,,,,,,,,,,,,,,,,,,,,,,,,,
,,,,2023-11-28_11h38.09.014,VH_v3,2023.2.3,MacIntel,58.82352941,,,,,,,,,,,,112.043,113.04,113.04,113.721,m,1,0.665,,0.665,1,113.721,115.218,0,22,22,10,1,11,nefret,harmonic,word,m,,,,,,,,,,,,,,,,,,,,,,,,,,,,,,,,,,,,,
,,,,2023-11-28_11h38.09.014,VH_v3,2023.2.3,MacIntel,58.82352941,,,,,,,,,,,,115.219,116.215,116.215,117.529,z,1,1.3,,1.3,1,117.529,119.026,0,23,23,20,1,21,yoğuk,harmonic,nw,z,,,,,,,,,,,,,,,,,,,,,,,,,,,,,,,,,,,,,
,,,,2023-11-28_11h38.09.014,VH_v3,2023.2.3,MacIntel,58.82352941,,,,,,,,,,,,,,,,,,,,,,,,,,,,,,,,,,119.027,126.342,space,7.296,,,,,,,,,,,,,,,,,,,,,,,,,,,,,,,,,
,,,,2023-11-28_11h38.09.014,VH_v3,2023.2.3,MacIntel,58.82352941,,,,,,,,,,,,126.457,127.356,,,,,,,,,,,,,,,,,,,,,,,,,,127.357,128.122,m,1,0.738,,128.122,128.125,,0,0,0,85,1,86,geçmiş,4195,190.6042,4039,0.4415,6,harmonic,1.55,word,m,,,,,,,
,,,,2023-11-28_11h38.09.014,VH_v3,2023.2.3,MacIntel,58.82352941,,,,,,,,,,,,128.125,129.119,,,,,,,,,,,,,,,,,,,,,,,,,,129.119,129.767,m,1,0.634,,129.767,129.767,,0,1,1,108,1,109,sabah,8179,371.6213,7277,0.7955,5,harmonic,,word,m,,,,,,,
,,,,2023-11-28_11h38.09.014,VH_v3,2023.2.3,MacIntel,58.82352941,,,,,,,,,,,,129.767,130.764,,,,,,,,,,,,,,,,,,,,,,,,,,130.765,131.497,z,1,0.709,,131.497,131.497,,0,2,2,213,1,214,yofa,,,,,4,harmonic,1.75,nw,z,,,,,,,
,,,,2023-11-28_11h38.09.014,VH_v3,2023.2.3,MacIntel,58.82352941,,,,,,,,,,,,131.497,132.494,,,,,,,,,,,,,,,,,,,,,,,,,,132.494,133.259,z,1,0.744,,133.259,133.259,,0,3,3,349,1,350,mane,,,,,4,notharmonic,1.45,nw,z,,,,,,,
,,,,2023-11-28_11h38.09.014,VH_v3,2023.2.3,MacIntel,58.82352941,,,,,,,,,,,,133.259,134.257,,,,,,,,,,,,,,,,,,,,,,,,,,134.257,134.721,m,1,0.446,,134.721,134.722,,0,4,4,60,1,61,doğu,2105,95.6429,1823,0.1993,4,harmonic,1.05,word,m,,,,,,,
,,,,2023-11-28_11h38.09.014,VH_v3,2023.2.3,MacIntel,58.82352941,,,,,,,,,,,,134.722,135.719,,,,,,,,,,,,,,,,,,,,,,,,,,135.719,136.318,z,1,0.577,,136.318,136.318,,0,5,5,305,1,306,itba,,,,,4,notharmonic,1.85,nw,z,,,,,,,
,,,,2023-11-28_11h38.09.014,VH_v3,2023.2.3,MacIntel,58.82352941,,,,,,,,,,,,136.318,137.316,,,,,,,,,,,,,,,,,,,,,,,,,,137.316,137.848,m,1,0.515,,137.848,137.848,,0,6,6,44,1,45,kayıt,1234,56.0681,1058,0.1157,5,harmonic,1.35,word,m,,,,,,,
,,,,2023-11-28_11h38.09.014,VH_v3,2023.2.3,MacIntel,58.82352941,,,,,,,,,,,,137.848,138.846,,,,,,,,,,,,,,,,,,,,,,,,,,138.846,139.544,m,1,0.676,,139.544,139.545,,0,7,7,91,1,92,zaman,40307,1831.3902,33589,3.672,5,harmonic,,word,m,,,,,,,
,,,,2023-11-28_11h38.09.014,VH_v3,2023.2.3,MacIntel,58.82352941,,,,,,,,,,,,139.545,140.541,,,,,,,,,,,,,,,,,,,,,,,,,,140.541,141.423,m,1,0.859,,141.423,141.423,,0,8,8,46,1,47,takım,4370,198.5555,3726,0.4073,5,harmonic,1.7,word,m,,,,,,,
,,,,2023-11-28_11h38.09.014,VH_v3,2023.2.3,MacIntel,58.82352941,,,,,,,,,,,,141.423,142.421,,,,,,,,,,,,,,,,,,,,,,,,,,142.421,143.218,z,1,0.784,,143.218,143.218,,0,9,9,357,1,358,harim,,,,,5,notharmonic,,nw,z,,,,,,,
,,,,2023-11-28_11h38.09.014,VH_v3,2023.2.3,MacIntel,58.82352941,,,,,,,,,,,,143.219,144.216,,,,,,,,,,,,,,,,,,,,,,,,,,144.216,144.649,m,1,0.422,,144.649,144.649,,0,10,10,154,1,155,oyun,4926,223.8179,3995,0.4367,4,harmonic,,word,m,,,,,,,
,,,,2023-11-28_11h38.09.014,VH_v3,2023.2.3,MacIntel,58.82352941,,,,,,,,,,,,144.65,145.646,,,,,,,,,,,,,,,,,,,,,,,,,,145.646,146.345,m,1,0.681,,146.345,146.345,,0,11,11,7,1,8,hizmet,3023,137.3531,2689,0.294,6,harmonic,1.75,word,m,,,,,,,
,,,,2023-11-28_11h38.09.014,VH_v3,2023.2.3,MacIntel,58.82352941,,,,,,,,,,,,146.346,147.343,,,,,,,,,,,,,,,,,,,,,,,,,,147.343,147.857,m,1,0.494,,147.857,147.858,,0,12,12,148,1,149,ışık,1814,82.421,1635,0.1787,4,harmonic,,word,m,,,,,,,
,,,,2023-11-28_11h38.09.014,VH_v3,2023.2.3,MacIntel,58.82352941,,,,,,,,,,,,147.858,148.855,,,,,,,,,,,,,,,,,,,,,,,,,,148.855,149.586,z,1,0.717,,149.586,149.586,,0,13,13,254,1,255,ileşçe,,,,,6,harmonic,2.65,nw,z,,,,,,,
,,,,2023-11-28_11h38.09.014,VH_v3,2023.2.3,MacIntel,58.82352941,,,,,,,,,,,,149.587,150.585,,,,,,,,,,,,,,,,,,,,,,,,,,150.585,151.199,m,1,0.594,,151.199,151.199,,0,14,14,133,1,134,ortak,3666,166.5685,3331,0.3641,5,harmonic,,word,m,,,,,,,
,,,,2023-11-28_11h38.09.014,VH_v3,2023.2.3,MacIntel,58.82352941,,,,,,,,,,,,151.2,152.197,,,,,,,,,,,,,,,,,,,,,,,,,,152.197,152.629,m,1,0.416,,152.629,152.63,,0,15,15,82,1,83,aday,1028,46.7082,873,0.0954,4,harmonic,1.45,word,m,,,,,,,
,,,,2023-11-28_11h38.09.014,VH_v3,2023.2.3,MacIntel,58.82352941,,,,,,,,,,,,152.63,153.627,,,,,,,,,,,,,,,,,,,,,,,,,,153.627,154.093,m,1,0.452,,154.093,154.093,,0,16,16,159,1,160,derece,4766,216.5481,4462,0.4878,6,harmonic,,word,m,,,,,,,
,,,,2023-11-28_11h38.09.014,VH_v3,2023.2.3,MacIntel,58.82352941,,,,,,,,,,,,154.093,155.091,,,,,,,,,,,,,,,,,,,,,,,,,,155.091,155.589,m,1,0.476,,155.589,155.589,,0,17,17,155,1,156,devlet,5766,261.9842,4854,0.5306,6,harmonic,,word,m,,,,,,,
,,,,2023-11-28_11h38.09.014,VH_v3,2023.2.3,MacIntel,58.82352941,,,,,,,,,,,,155.589,156.587,,,,,,,,,,,,,,,,,,,,,,,,,,156.587,157.003,m,1,0.394,,157.003,157.003,,0,18,18,125,1,126,hızlı,4167,189.332,3688,0.4032,5,harmonic,,word,m,,,,,,,
,,,,2023-11-28_11h38.09.014,VH_v3,2023.2.3,MacIntel,58.82352941,,,,,,,,,,,,157.004,158,,,,,,,,,,,,,,,,,,,,,,,,,,158,158.748,z,1,0.726,,158.749,158.749,,0,19,19,316,1,317,karkiş,,,,,6,notharmonic,2,nw,z,,,,,,,
,,,,2023-11-28_11h38.09.014,VH_v3,2023.2.3,MacIntel,58.82352941,,,,,,,,,,,,158.75,159.746,,,,,,,,,,,,,,,,,,,,,,,,,,159.746,160.694,z,1,0.924,,160.694,160.694,,0,20,20,258,1,259,meryeş,,,,,6,harmonic,2.35,nw,z,,,,,,,
,,,,2023-11-28_11h38.09.014,VH_v3,2023.2.3,MacIntel,58.82352941,,,,,,,,,,,,160.694,161.691,,,,,,,,,,,,,,,,,,,,,,,,,,161.691,162.474,z,1,0.762,,162.474,162.474,,0,21,21,348,1,349,minsar,,,,,6,notharmonic,2,nw,z,,,,,,,
,,,,2023-11-28_11h38.09.014,VH_v3,2023.2.3,MacIntel,58.82352941,,,,,,,,,,,,162.474,163.471,,,,,,,,,,,,,,,,,,,,,,,,,,163.471,164.052,m,1,0.568,,164.052,164.053,,0,22,22,123,1,124,güneş,4371,198.6009,3610,0.3946,5,harmonic,,word,m,,,,,,,
,,,,2023-11-28_11h38.09.014,VH_v3,2023.2.3,MacIntel,58.82352941,,,,,,,,,,,,164.053,165.05,,,,,,,,,,,,,,,,,,,,,,,,,,165.05,165.482,m,1,0.42,,165.482,165.483,,0,23,23,96,1,97,mutlu,11447,520.1063,10279,1.1237,5,harmonic,,word,m,,,,,,,
,,,,2023-11-28_11h38.09.014,VH_v3,2023.2.3,MacIntel,58.82352941,,,,,,,,,,,,165.483,166.48,,,,,,,,,,,,,,,,,,,,,,,,,,166.481,166.946,m,0,0.446,,166.946,166.946,,0,24,24,339,1,340,halip,,,,,5,notharmonic,1.5,nw,z,,,,,,,
,,,,2023-11-28_11h38.09.014,VH_v3,2023.2.3,MacIntel,58.82352941,,,,,,,,,,,,166.946,167.943,,,,,,,,,,,,,,,,,,,,,,,,,,167.943,168.492,z,0,0.536,,168.492,168.492,,0,25,25,176,1,177,tebrik,1117,50.7521,1102,0.1205,6,harmonic,,word,m,,,,,,,
,,,,2023-11-28_11h38.09.014,VH_v3,2023.2.3,MacIntel,58.82352941,,,,,,,,,,,,168.493,169.49,,,,,,,,,,,,,,,,,,,,,,,,,,169.49,170.172,m,0,0.668,,170.172,170.172,,0,26,26,290,1,291,nüda,,,,,4,notharmonic,1.9,nw,z,,,,,,,
,,,,2023-11-28_11h38.09.014,VH_v3,2023.2.3,MacIntel,58.82352941,,,,,,,,,,,,170.173,171.17,,,,,,,,,,,,,,,,,,,,,,,,,,171.17,171.984,z,1,0.801,,171.984,171.984,,0,27,27,266,1,267,yannoz,,,,,6,harmonic,2.85,nw,z,,,,,,,
,,,,2023-11-28_11h38.09.014,VH_v3,2023.2.3,MacIntel,58.82352941,,,,,,,,,,,,171.984,172.982,,,,,,,,,,,,,,,,,,,,,,,,,,172.982,173.896,z,1,0.898,,173.896,173.896,,0,28,28,229,1,230,ilgent,,,,,6,harmonic,2.7,nw,z,,,,,,,
,,,,2023-11-28_11h38.09.014,VH_v3,2023.2.3,MacIntel,58.82352941,,,,,,,,,,,,173.897,174.893,,,,,,,,,,,,,,,,,,,,,,,,,,174.893,175.443,z,1,0.528,,175.443,175.443,,0,29,29,247,1,248,fonta,,,,,5,harmonic,1.75,nw,z,,,,,,,
,,,,2023-11-28_11h38.09.014,VH_v3,2023.2.3,MacIntel,58.82352941,,,,,,,,,,,,175.444,176.441,,,,,,,,,,,,,,,,,,,,,,,,,,176.441,177.072,m,1,0.611,,177.072,177.072,,0,30,30,141,1,142,kuru,2669,121.2688,2372,0.2593,4,harmonic,,word,m,,,,,,,
,,,,2023-11-28_11h38.09.014,VH_v3,2023.2.3,MacIntel,58.82352941,,,,,,,,,,,,177.072,178.07,,,,,,,,,,,,,,,,,,,,,,,,,,178.07,178.818,z,1,0.735,,178.818,178.818,,0,31,31,313,1,314,hahih,,,,,5,notharmonic,1.95,nw,z,,,,,,,
,,,,2023-11-28_11h38.09.014,VH_v3,2023.2.3,MacIntel,58.82352941,,,,,,,,,,,,178.819,179.816,,,,,,,,,,,,,,,,,,,,,,,,,,179.816,180.597,m,1,0.767,,180.597,180.597,,0,32,32,33,1,34,moda,1381,62.7472,1231,0.1346,4,harmonic,1.55,word,m,,,,,,,
,,,,2023-11-28_11h38.09.014,VH_v3,2023.2.3,MacIntel,58.82352941,,,,,,,,,,,,180.598,181.594,,,,,,,,,,,,,,,,,,,,,,,,,,181.594,182.377,z,1,0.767,,182.377,182.377,,0,33,33,351,1,352,eula,,,,,4,notharmonic,1.65,nw,z,,,,,,,
,,,,2023-11-28_11h38.09.014,VH_v3,2023.2.3,MacIntel,58.82352941,,,,,,,,,,,,182.377,183.374,,,,,,,,,,,,,,,,,,,,,,,,,,183.374,183.989,z,1,0.602,,183.989,183.989,,0,34,34,275,1,276,makis,,,,,5,notharmonic,1.8,nw,z,,,,,,,
,,,,2023-11-28_11h38.09.014,VH_v3,2023.2.3,MacIntel,58.82352941,,,,,,,,,,,,183.989,184.987,,,,,,,,,,,,,,,,,,,,,,,,,,184.987,185.635,m,1,0.634,,185.635,185.635,,0,35,35,29,1,30,huzur,1911,86.8283,1799,0.1967,5,harmonic,1.8,word,m,,,,,,,
,,,,2023-11-28_11h38.09.014,VH_v3,2023.2.3,MacIntel,58.82352941,,,,,,,,,,,,185.636,186.632,,,,,,,,,,,,,,,,,,,,,,,,,,186.632,187.448,z,1,0.797,,187.448,187.448,,0,36,36,209,1,210,çirre,,,,,5,harmonic,2,nw,z,,,,,,,
,,,,2023-11-28_11h38.09.014,VH_v3,2023.2.3,MacIntel,58.82352941,,,,,,,,,,,,187.449,188.445,,,,,,,,,,,,,,,,,,,,,,,,,,188.445,188.844,m,0,0.378,,188.844,188.844,,0,37,37,226,1,227,mara,,,,,4,harmonic,1,nw,z,,,,,,,
,,,,2023-11-28_11h38.09.014,VH_v3,2023.2.3,MacIntel,58.82352941,,,,,,,,,,,,188.845,189.842,,,,,,,,,,,,,,,,,,,,,,,,,,189.842,190.523,m,1,0.669,,190.523,190.525,,0,38,38,19,1,20,ödül,1063,48.2985,926,0.1012,4,harmonic,1.7,word,m,,,,,,,
,,,,2023-11-28_11h38.09.014,VH_v3,2023.2.3,MacIntel,58.82352941,,,,,,,,,,,,190.525,191.522,,,,,,,,,,,,,,,,,,,,,,,,,,191.522,192.22,z,1,0.678,,192.22,192.22,,0,39,39,278,1,279,camet,,,,,5,notharmonic,1.8,nw,z,,,,,,,
,,,,2023-11-28_11h38.09.014,VH_v3,2023.2.3,MacIntel,58.82352941,,,,,,,,,,,,192.22,193.218,,,,,,,,,,,,,,,,,,,,,,,,,,193.218,194.082,m,0,0.843,,194.082,194.082,,0,40,40,285,1,286,safiç,,,,,5,notharmonic,1.9,nw,z,,,,,,,
,,,,2023-11-28_11h38.09.014,VH_v3,2023.2.3,MacIntel,58.82352941,,,,,,,,,,,,194.083,195.08,,,,,,,,,,,,,,,,,,,,,,,,,,195.08,195.995,z,1,0.895,,195.995,195.995,,0,41,41,203,1,204,yırdun,,,,,6,harmonic,2.8,nw,z,,,,,,,
,,,,2023-11-28_11h38.09.014,VH_v3,2023.2.3,MacIntel,58.82352941,,,,,,,,,,,,195.995,196.991,,,,,,,,,,,,,,,,,,,,,,,,,,196.992,197.691,m,1,0.685,,197.691,197.691,,0,42,42,105,1,106,hafta,9257,420.6014,8254,0.9023,5,harmonic,,word,m,,,,,,,
,,,,2023-11-28_11h38.09.014,VH_v3,2023.2.3,MacIntel,58.82352941,,,,,,,,,,,,197.691,198.687,,,,,,,,,,,,,,,,,,,,,,,,,,198.688,199.486,z,1,0.785,,199.486,199.486,,0,43,43,183,1,184,titik,,,,,5,harmonic,1.7,nw,z,,,,,,,
,,,,2023-11-28_11h38.09.014,VH_v3,2023.2.3,MacIntel,58.82352941,,,,,,,,,,,,199.487,200.483,,,,,,,,,,,,,,,,,,,,,,,,,,200.483,201.098,m,1,0.596,,201.098,201.099,,0,44,44,38,1,39,dönem,2820,128.1296,2437,0.2664,5,harmonic,1.4,word,m,,,,,,,
,,,,2023-11-28_11h38.09.014,VH_v3,2023.2.3,MacIntel,58.82352941,,,,,,,,,,,,201.099,202.096,,,,,,,,,,,,,,,,,,,,,,,,,,202.096,202.762,m,1,0.643,,202.762,202.762,,0,45,45,152,1,153,sene,6752,306.7841,5843,0.6388,4,harmonic,,word,m,,,,,,,
,,,,2023-11-28_11h38.09.014,VH_v3,2023.2.3,MacIntel,58.82352941,,,,,,,,,,,,202.762,203.76,,,,,,,,,,,,,,,,,,,,,,,,,,203.76,204.657,m,1,0.886,,204.657,204.658,,0,46,46,136,1,137,süper,3256,147.9397,2989,0.3268,5,harmonic,,word,m,,,,,,,
,,,,2023-11-28_11h38.09.014,VH_v3,2023.2.3,MacIntel,58.82352941,,,,,,,,,,,,204.658,205.654,,,,,,,,,,,,,,,,,,,,,,,,,,205.654,206.369,z,1,0.695,,206.369,206.369,,0,47,47,207,1,208,çallak,,,,,6,harmonic,1.75,nw,z,,,,,,,
,,,,2023-11-28_11h38.09.014,VH_v3,2023.2.3,MacIntel,58.82352941,,,,,,,,,,,,206.37,207.367,,,,,,,,,,,,,,,,,,,,,,,,,,207.367,208.032,m,0,0.648,,208.033,208.033,,0,48,48,325,1,326,icanat,,,,,6,notharmonic,2.25,nw,z,,,,,,,
,,,,2023-11-28_11h38.09.014,VH_v3,2023.2.3,MacIntel,58.82352941,,,,,,,,,,,,208.033,209.03,,,,,,,,,,,,,,,,,,,,,,,,,,209.031,209.662,m,1,0.612,,209.662,209.663,,0,49,49,158,1,159,tercih,4577,207.9607,4282,0.4681,6,harmonic,,word,m,,,,,,,
,,,,2023-11-28_11h38.09.014,VH_v3,2023.2.3,MacIntel,58.82352941,,,,,,,,,,,,209.663,210.66,,,,,,,,,,,,,,,,,,,,,,,,,,210.66,211.341,z,1,0.668,,211.341,211.342,,0,50,50,299,1,300,kurüs,,,,,5,notharmonic,1.95,nw,z,,,,,,,
,,,,2023-11-28_11h38.09.014,VH_v3,2023.2.3,MacIntel,58.82352941,,,,,,,,,,,,211.342,212.339,,,,,,,,,,,,,,,,,,,,,,,,,,212.339,212.921,z,1,0.571,,212.921,212.921,,0,51,51,302,1,303,desum,,,,,5,notharmonic,2,nw,z,,,,,,,
,,,,2023-11-28_11h38.09.014,VH_v3,2023.2.3,MacIntel,58.82352941,,,,,,,,,,,,212.922,213.919,,,,,,,,,,,,,,,,,,,,,,,,,,213.919,214.617,m,0,0.687,,214.617,214.617,,0,52,52,224,1,225,binci,,,,,5,harmonic,1.5,nw,z,,,,,,,
,,,,2023-11-28_11h38.09.014,VH_v3,2023.2.3,MacIntel,58.82352941,,,,,,,,,,,,214.618,215.614,,,,,,,,,,,,,,,,,,,,,,,,,,215.614,216.379,m,1,0.745,,216.379,216.379,,0,53,53,94,1,95,bütün,18630,846.4733,16711,1.8269,5,harmonic,,word,m,,,,,,,
,,,,2023-11-28_11h38.09.014,VH_v3,2023.2.3,MacIntel,58.82352941,,,,,,,,,,,,216.38,217.377,,,,,,,,,,,,,,,,,,,,,,,,,,217.377,217.942,m,1,0.544,,217.942,217.942,,0,54,54,120,1,121,doğal,4821,219.0471,4328,0.4731,5,harmonic,,word,m,,,,,,,
,,,,2023-11-28_11h38.09.014,VH_v3,2023.2.3,MacIntel,58.82352941,,,,,,,,,,,,217.943,218.94,,,,,,,,,,,,,,,,,,,,,,,,,,218.94,219.489,z,1,0.537,,219.489,219.489,,0,55,55,260,1,261,abaf,,,,,4,harmonic,1.85,nw,z,,,,,,,
,,,,2023-11-28_11h38.09.014,VH_v3,2023.2.3,MacIntel,58.82352941,,,,,,,,,,,,219.49,220.486,,,,,,,,,,,,,,,,,,,,,,,,,,220.486,221.052,m,1,0.545,,221.052,221.052,,0,56,56,129,1,130,yorum,3801,172.7024,3473,0.3797,5,harmonic,,word,m,,,,,,,
,,,,2023-11-28_11h38.09.014,VH_v3,2023.2.3,MacIntel,58.82352941,,,,,,,,,,,,221.052,222.05,,,,,,,,,,,,,,,,,,,,,,,,,,222.05,222.93,z,1,0.862,,222.93,222.93,,0,57,57,241,1,242,sılman,,,,,6,harmonic,2,nw,z,,,,,,,
,,,,2023-11-28_11h38.09.014,VH_v3,2023.2.3,MacIntel,58.82352941,,,,,,,,,,,,222.931,223.929,,,,,,,,,,,,,,,,,,,,,,,,,,223.929,224.56,m,1,0.616,,224.56,224.56,,0,58,58,170,1,171,parmak,1268,57.6129,1165,0.1274,6,harmonic,,word,m,,,,,,,
,,,,2023-11-28_11h38.09.014,VH_v3,2023.2.3,MacIntel,58.82352941,,,,,,,,,,,,224.56,225.558,,,,,,,,,,,,,,,,,,,,,,,,,,225.558,226.24,m,1,0.671,,226.24,226.24,,0,59,59,9,1,10,karar,8108,368.3954,7436,0.8129,5,harmonic,1.6,word,m,,,,,,,
,,,,2023-11-28_11h38.09.014,VH_v3,2023.2.3,MacIntel,58.82352941,,,,,,,,,,,,226.241,227.237,,,,,,,,,,,,,,,,,,,,,,,,,,227.237,227.853,m,0,0.603,,227.853,227.853,,0,60,60,214,1,215,yapa,,,,,4,harmonic,1,nw,z,,,,,,,
,,,,2023-11-28_11h38.09.014,VH_v3,2023.2.3,MacIntel,58.82352941,,,,,,,,,,,,227.854,228.85,,,,,,,,,,,,,,,,,,,,,,,,,,228.851,229.648,z,1,0.776,,229.648,229.648,,0,61,61,326,1,327,melaş,,,,,5,notharmonic,1.8,nw,z,,,,,,,
,,,,2023-11-28_11h38.09.014,VH_v3,2023.2.3,MacIntel,58.82352941,,,,,,,,,,,,229.648,230.646,,,,,,,,,,,,,,,,,,,,,,,,,,230.646,231.977,z,1,1.318,,231.977,231.978,,0,62,62,292,1,293,semun,,,,,5,notharmonic,1.85,nw,z,,,,,,,
,,,,2023-11-28_11h38.09.014,VH_v3,2023.2.3,MacIntel,58.82352941,,,,,,,,,,,,231.979,232.974,,,,,,,,,,,,,,,,,,,,,,,,,,232.974,233.538,z,1,0.546,,233.539,233.539,,0,63,63,355,1,356,daneta,,,,,6,notharmonic,2.4,nw,z,,,,,,,
,,,,2023-11-28_11h38.09.014,VH_v3,2023.2.3,MacIntel,58.82352941,,,,,,,,,,,,233.539,234.537,,,,,,,,,,,,,,,,,,,,,,,,,,234.537,235.152,z,0,0.595,,235.152,235.152,,0,64,64,139,1,140,okul,2685,121.9958,2381,0.2603,4,harmonic,,word,m,,,,,,,
,,,,2023-11-28_11h38.09.014,VH_v3,2023.2.3,MacIntel,58.82352941,,,,,,,,,,,,235.153,236.149,,,,,,,,,,,,,,,,,,,,,,,,,,236.149,237.048,z,1,0.878,,237.048,237.048,,0,65,65,342,1,343,çaneke,,,,,6,notharmonic,2.6,nw,z,,,,,,,
,,,,2023-11-28_11h38.09.014,VH_v3,2023.2.3,MacIntel,58.82352941,,,,,,,,,,,,237.049,238.045,,,,,,,,,,,,,,,,,,,,,,,,,,238.045,238.728,m,1,0.666,,238.728,238.728,,0,66,66,42,1,43,ürün,2268,103.0489,1954,0.2136,4,harmonic,1.1,word,m,,,,,,,
,,,,2023-11-28_11h38.09.014,VH_v3,2023.2.3,MacIntel,58.82352941,,,,,,,,,,,,238.728,239.725,,,,,,,,,,,,,,,,,,,,,,,,,,239.725,240.755,m,1,1.009,,240.755,240.755,,0,67,67,63,1,64,sultan,1756,79.7857,1368,0.1496,6,harmonic,1.55,word,m,,,,,,,
,,,,2023-11-28_11h38.09.014,VH_v3,2023.2.3,MacIntel,58.82352941,,,,,,,,,,,,240.756,241.753,,,,,,,,,,,,,,,,,,,,,,,,,,241.754,242.585,z,1,0.813,,242.585,242.585,,0,68,68,346,1,347,mamit,,,,,5,notharmonic,1.85,nw,z,,,,,,,
,,,,2023-11-28_11h38.09.014,VH_v3,2023.2.3,MacIntel,58.82352941,,,,,,,,,,,,242.585,243.582,,,,,,,,,,,,,,,,,,,,,,,,,,243.582,244.331,m,1,0.728,,244.331,244.331,,0,69,69,6,1,7,hayal,4498,204.3713,4079,0.4459,5,harmonic,1.45,word,m,,,,,,,
,,,,2023-11-28_11h38.09.014,VH_v3,2023.2.3,MacIntel,58.82352941,,,,,,,,,,,,244.331,245.328,,,,,,,,,,,,,,,,,,,,,,,,,,245.328,245.926,m,1,0.582,,245.926,245.926,,0,70,70,90,1,91,güzel,42841,1946.5251,37209,4.0677,5,harmonic,,word,m,,,,,,,
,,,,2023-11-28_11h38.09.014,VH_v3,2023.2.3,MacIntel,58.82352941,,,,,,,,,,,,245.926,246.924,,,,,,,,,,,,,,,,,,,,,,,,,,246.924,247.723,z,1,0.778,,247.723,247.723,,0,71,71,243,1,244,şiker,,,,,5,harmonic,1.85,nw,z,,,,,,,
,,,,2023-11-28_11h38.09.014,VH_v3,2023.2.3,MacIntel,58.82352941,,,,,,,,,,,,247.723,248.72,,,,,,,,,,,,,,,,,,,,,,,,,,248.72,249.518,z,1,0.775,,249.518,249.518,,0,72,72,347,1,348,şeylam,,,,,6,notharmonic,2.4,nw,z,,,,,,,
,,,,2023-11-28_11h38.09.014,VH_v3,2023.2.3,MacIntel,58.82352941,,,,,,,,,,,,249.519,250.516,,,,,,,,,,,,,,,,,,,,,,,,,,250.516,251.93,z,1,1.394,,251.93,251.93,,0,73,73,304,1,305,irak,,,,,4,notharmonic,1.55,nw,z,,,,,,,
,,,,2023-11-28_11h38.09.014,VH_v3,2023.2.3,MacIntel,58.82352941,,,,,,,,,,,,251.93,252.927,,,,,,,,,,,,,,,,,,,,,,,,,,252.927,253.758,z,1,0.81,,253.758,253.758,,0,74,74,251,1,252,bellet,,,,,6,harmonic,1.8,nw,z,,,,,,,
,,,,2023-11-28_11h38.09.014,VH_v3,2023.2.3,MacIntel,58.82352941,,,,,,,,,,,,253.758,254.756,,,,,,,,,,,,,,,,,,,,,,,,,,254.756,255.354,m,1,0.579,,255.354,255.354,,0,75,75,164,1,165,toprak,1989,90.3723,1762,0.1926,6,harmonic,,word,m,,,,,,,
,,,,2023-11-28_11h38.09.014,VH_v3,2023.2.3,MacIntel,58.82352941,,,,,,,,,,,,255.355,256.352,,,,,,,,,,,,,,,,,,,,,,,,,,256.352,257.017,z,1,0.646,,257.017,257.017,,0,76,76,294,1,295,fiyan,,,,,5,notharmonic,1.65,nw,z,,,,,,,
,,,,2023-11-28_11h38.09.014,VH_v3,2023.2.3,MacIntel,58.82352941,,,,,,,,,,,,257.018,258.015,,,,,,,,,,,,,,,,,,,,,,,,,,258.015,258.763,z,1,0.735,,258.763,258.763,,0,77,77,295,1,296,takime,,,,,6,notharmonic,1.9,nw,z,,,,,,,
,,,,2023-11-28_11h38.09.014,VH_v3,2023.2.3,MacIntel,58.82352941,,,,,,,,,,,,258.763,259.76,,,,,,,,,,,,,,,,,,,,,,,,,,259.76,260.475,m,1,0.696,,260.475,260.475,,0,78,78,27,1,28,bölge,1283,58.2944,1123,0.1228,5,harmonic,1.65,word,m,,,,,,,
,,,,2023-11-28_11h38.09.014,VH_v3,2023.2.3,MacIntel,58.82352941,,,,,,,,,,,,260.476,261.473,,,,,,,,,,,,,,,,,,,,,,,,,,261.473,262.288,z,1,0.796,,262.288,262.288,,0,79,79,198,1,199,ıdol,,,,,4,harmonic,1.9,nw,z,,,,,,,
,,,,2023-11-28_11h38.09.014,VH_v3,2023.2.3,MacIntel,58.82352941,,,,,,,,,,,,262.289,263.285,,,,,,,,,,,,,,,,,,,,,,,,,,263.286,264.151,m,1,0.845,,264.151,264.151,,0,80,80,103,1,104,yemek,9626,437.3673,8311,0.9086,5,harmonic,,word,m,,,,,,,
,,,,2023-11-28_11h38.09.014,VH_v3,2023.2.3,MacIntel,58.82352941,,,,,,,,,,,,264.151,265.148,,,,,,,,,,,,,,,,,,,,,,,,,,265.148,265.995,z,1,0.828,,265.995,265.995,,0,81,81,186,1,187,yadal,,,,,5,harmonic,1.85,nw,z,,,,,,,
,,,,2023-11-28_11h38.09.014,VH_v3,2023.2.3,MacIntel,58.82352941,,,,,,,,,,,,265.996,266.994,,,,,,,,,,,,,,,,,,,,,,,,,,266.994,267.841,z,1,0.835,,267.841,267.842,,0,82,82,259,1,260,üreyeş,,,,,6,harmonic,2.9,nw,z,,,,,,,
,,,,2023-11-28_11h38.09.014,VH_v3,2023.2.3,MacIntel,58.82352941,,,,,,,,,,,,267.842,268.84,,,,,,,,,,,,,,,,,,,,,,,,,,268.84,269.554,m,1,0.7,,269.554,269.554,,0,83,83,55,1,56,akıl,2208,100.3228,2004,0.2191,4,harmonic,1,word,m,,,,,,,
,,,,2023-11-28_11h38.09.014,VH_v3,2023.2.3,MacIntel,58.82352941,,,,,,,,,,,,269.555,270.552,,,,,,,,,,,,,,,,,,,,,,,,,,270.552,271.532,m,1,0.968,,271.532,271.533,,0,84,84,45,1,46,bilgi,5981,271.7529,5353,0.5852,5,harmonic,1.5,word,m,,,,,,,
,,,,2023-11-28_11h38.09.014,VH_v3,2023.2.3,MacIntel,58.82352941,,,,,,,,,,,,271.533,272.531,,,,,,,,,,,,,,,,,,,,,,,,,,272.531,273.096,m,1,0.549,,273.096,273.096,,0,85,85,112,1,113,genel,7752,352.2201,6893,0.7535,5,harmonic,,word,m,,,,,,,
,,,,2023-11-28_11h38.09.014,VH_v3,2023.2.3,MacIntel,58.82352941,,,,,,,,,,,,273.096,274.093,,,,,,,,,,,,,,,,,,,,,,,,,,274.094,274.842,z,1,0.735,,274.842,274.842,,0,86,86,324,1,325,başi,,,,,4,notharmonic,1.5,nw,z,,,,,,,
,,,,2023-11-28_11h38.09.014,VH_v3,2023.2.3,MacIntel,58.82352941,,,,,,,,,,,,274.843,275.84,,,,,,,,,,,,,,,,,,,,,,,,,,275.84,276.688,z,1,0.832,,276.688,276.688,,0,87,87,289,1,290,minkon,,,,,6,notharmonic,2.2,nw,z,,,,,,,
,,,,2023-11-28_11h38.09.014,VH_v3,2023.2.3,MacIntel,58.82352941,,,,,,,,,,,,276.689,277.685,,,,,,,,,,,,,,,,,,,,,,,,,,277.685,278.316,m,1,0.611,,278.316,278.317,,0,88,88,40,1,41,tepki,1695,77.0141,1578,0.1725,5,harmonic,1.55,word,m,,,,,,,
,,,,2023-11-28_11h38.09.014,VH_v3,2023.2.3,MacIntel,58.82352941,,,,,,,,,,,,278.317,279.315,,,,,,,,,,,,,,,,,,,,,,,,,,279.315,279.747,m,0,0.419,,279.747,279.747,,0,89,89,338,1,339,kunik,,,,,5,notharmonic,1.8,nw,z,,,,,,,
,,,,2023-11-28_11h38.09.014,VH_v3,2023.2.3,MacIntel,58.82352941,,,,,,,,,,,,279.748,280.745,,,,,,,,,,,,,,,,,,,,,,,,,,280.745,281.16,z,1,0.395,,281.16,281.16,,0,90,90,246,1,247,ülmet,,,,,5,harmonic,1.9,nw,z,,,,,,,
,,,,2023-11-28_11h38.09.014,VH_v3,2023.2.3,MacIntel,58.82352941,,,,,,,,,,,,281.16,282.158,,,,,,,,,,,,,,,,,,,,,,,,,,282.158,282.707,z,1,0.526,,282.707,282.707,,0,91,91,195,1,196,habaş,,,,,5,harmonic,1.95,nw,z,,,,,,,
,,,,2023-11-28_11h38.09.014,VH_v3,2023.2.3,MacIntel,58.82352941,,,,,,,,,,,,282.708,283.705,,,,,,,,,,,,,,,,,,,,,,,,,,283.705,284.154,z,1,0.437,,284.154,284.154,,0,92,92,264,1,265,yerfek,,,,,6,harmonic,2,nw,z,,,,,,,
,,,,2023-11-28_11h38.09.014,VH_v3,2023.2.3,MacIntel,58.82352941,,,,,,,,,,,,284.154,285.151,,,,,,,,,,,,,,,,,,,,,,,,,,285.151,285.634,z,1,0.47,,285.634,285.634,,0,93,93,216,1,217,halban,,,,,6,harmonic,2,nw,z,,,,,,,
,,,,2023-11-28_11h38.09.014,VH_v3,2023.2.3,MacIntel,58.82352941,,,,,,,,,,,,285.635,286.631,,,,,,,,,,,,,,,,,,,,,,,,,,286.631,287.229,m,1,0.578,,287.229,287.229,,0,94,94,137,1,138,yoğun,3189,144.8955,3026,0.3308,5,harmonic,,word,m,,,,,,,
,,,,2023-11-28_11h38.09.014,VH_v3,2023.2.3,MacIntel,58.82352941,,,,,,,,,,,,287.23,288.227,,,,,,,,,,,,,,,,,,,,,,,,,,288.227,288.908,z,1,0.669,,288.908,288.908,,0,95,95,257,1,258,dulom,,,,,5,harmonic,2.3,nw,z,,,,,,,
,,,,2023-11-28_11h38.09.014,VH_v3,2023.2.3,MacIntel,58.82352941,,,,,,,,,,,,288.909,289.906,,,,,,,,,,,,,,,,,,,,,,,,,,289.906,290.554,z,1,0.629,,290.555,290.555,,0,96,96,182,1,183,rafto,,,,,5,harmonic,2,nw,z,,,,,,,
,,,,2023-11-28_11h38.09.014,VH_v3,2023.2.3,MacIntel,58.82352941,,,,,,,,,,,,290.555,291.552,,,,,,,,,,,,,,,,,,,,,,,,,,291.552,292.25,m,1,0.68,,292.25,292.251,,0,97,97,10,1,11,bardak,1728,78.5135,1569,0.1715,6,harmonic,1.6,word,m,,,,,,,
,,,,2023-11-28_11h38.09.014,VH_v3,2023.2.3,MacIntel,58.82352941,,,,,,,,,,,,292.251,293.248,,,,,,,,,,,,,,,,,,,,,,,,,,293.248,293.647,z,0,0.382,,293.647,293.648,,0,98,98,117,1,118,yavaş,5087,231.1331,2886,0.3155,5,harmonic,,word,m,,,,,,,
,,,,2023-11-28_11h38.09.014,VH_v3,2023.2.3,MacIntel,58.82352941,,,,,,,,,,,,293.648,294.645,,,,,,,,,,,,,,,,,,,,,,,,,,294.645,295.26,m,1,0.595,,295.26,295.26,,0,99,99,124,1,125,yarım,4177,189.7863,3852,0.4211,5,harmonic,,word,m,,,,,,,
,,,,2023-11-28_11h38.09.014,VH_v3,2023.2.3,MacIntel,58.82352941,,,,,,,,,,,,295.26,296.258,,,,,,,,,,,,,,,,,,,,,,,,,,296.258,296.857,m,1,0.586,,296.857,296.858,,0,100,100,36,1,37,meslek,1082,49.1618,976,0.1067,6,harmonic,1.9,word,m,,,,,,,
,,,,2023-11-28_11h38.09.014,VH_v3,2023.2.3,MacIntel,58.82352941,,,,,,,,,,,,296.858,297.855,,,,,,,,,,,,,,,,,,,,,,,,,,297.855,298.353,m,1,0.485,,298.353,298.353,,0,101,101,89,1,90,etki,1234,56.0681,1169,0.1278,4,harmonic,1.4,word,m,,,,,,,
,,,,2023-11-28_11h38.09.014,VH_v3,2023.2.3,MacIntel,58.82352941,,,,,,,,,,,,298.354,299.35,,,,,,,,,,,,,,,,,,,,,,,,,,299.35,300.299,z,1,0.926,,300.299,300.299,,0,102,102,343,1,344,tazen,,,,,5,notharmonic,1.8,nw,z,,,,,,,
,,,,2023-11-28_11h38.09.014,VH_v3,2023.2.3,MacIntel,58.82352941,,,,,,,,,,,,300.299,301.296,,,,,,,,,,,,,,,,,,,,,,,,,,301.296,301.911,m,1,0.6,,301.911,301.911,,0,103,103,13,1,14,nokta,2085,94.7341,1939,0.212,5,harmonic,1.5,word,m,,,,,,,
,,,,2023-11-28_11h38.09.014,VH_v3,2023.2.3,MacIntel,58.82352941,,,,,,,,,,,,301.912,302.909,,,,,,,,,,,,,,,,,,,,,,,,,,302.91,303.591,z,1,0.661,,303.591,303.591,,0,104,104,217,1,218,dötim,,,,,5,harmonic,2,nw,z,,,,,,,
,,,,2023-11-28_11h38.09.014,VH_v3,2023.2.3,MacIntel,58.82352941,,,,,,,,,,,,303.592,304.589,,,,,,,,,,,,,,,,,,,,,,,,,,304.589,305.42,z,1,0.816,,305.42,305.42,,0,105,105,211,1,212,metel,,,,,5,harmonic,1.75,nw,z,,,,,,,
,,,,2023-11-28_11h38.09.014,VH_v3,2023.2.3,MacIntel,58.82352941,,,,,,,,,,,,305.42,306.418,,,,,,,,,,,,,,,,,,,,,,,,,,306.418,307.115,m,0,0.679,,307.115,307.116,,0,106,106,231,1,232,çekir,,,,,5,harmonic,1.45,nw,z,,,,,,,
,,,,2023-11-28_11h38.09.014,VH_v3,2023.2.3,MacIntel,58.82352941,,,,,,,,,,,,307.116,308.113,,,,,,,,,,,,,,,,,,,,,,,,,,308.113,309.077,z,1,0.948,,309.077,309.077,,0,107,107,192,1,193,kusu,,,,,4,harmonic,1.5,nw,z,,,,,,,
,,,,2023-11-28_11h38.09.014,VH_v3,2023.2.3,MacIntel,58.82352941,,,,,,,,,,,,309.078,310.075,,,,,,,,,,,,,,,,,,,,,,,,,,310.075,310.74,m,1,0.644,,310.74,310.74,,0,108,108,163,1,164,teknik,3297,149.8026,2798,0.3059,6,harmonic,,word,m,,,,,,,
,,,,2023-11-28_11h38.09.014,VH_v3,2023.2.3,MacIntel,58.82352941,,,,,,,,,,,,310.741,311.738,,,,,,,,,,,,,,,,,,,,,,,,,,311.738,312.336,m,1,0.581,,312.337,312.337,,0,109,109,31,1,32,fazla,18293,831.1614,16694,1.825,5,harmonic,1,word,m,,,,,,,
,,,,2023-11-28_11h38.09.014,VH_v3,2023.2.3,MacIntel,58.82352941,,,,,,,,,,,,312.337,313.334,,,,,,,,,,,,,,,,,,,,,,,,,,313.334,313.916,m,1,0.562,,313.916,313.917,,0,110,110,146,1,147,sarı,2072,94.1435,1838,0.2009,4,harmonic,,word,m,,,,,,,
,,,,2023-11-28_11h38.09.014,VH_v3,2023.2.3,MacIntel,58.82352941,,,,,,,,,,,,313.917,314.914,,,,,,,,,,,,,,,,,,,,,,,,,,314.914,315.48,m,1,0.545,,315.48,315.48,,0,111,111,110,1,111,beden,1333,60.5662,1119,0.1223,5,harmonic,,word,m,,,,,,,
,,,,2023-11-28_11h38.09.014,VH_v3,2023.2.3,MacIntel,58.82352941,,,,,,,,,,,,315.48,316.477,,,,,,,,,,,,,,,,,,,,,,,,,,316.477,316.943,m,1,0.451,,316.943,316.943,,0,112,112,174,1,175,hayran,1171,53.2056,1073,0.1173,6,harmonic,,word,m,,,,,,,
,,,,2023-11-28_11h38.09.014,VH_v3,2023.2.3,MacIntel,58.82352941,,,,,,,,,,,,316.944,317.94,,,,,,,,,,,,,,,,,,,,,,,,,,317.94,318.439,m,1,0.477,,318.439,318.439,,0,113,113,30,1,31,çevre,1662,75.5147,1409,0.154,5,harmonic,1.55,word,m,,,,,,,
,,,,2023-11-28_11h38.09.014,VH_v3,2023.2.3,MacIntel,58.82352941,,,,,,,,,,,,318.44,319.436,,,,,,,,,,,,,,,,,,,,,,,,,,319.436,319.869,m,1,0.42,,319.869,319.869,,0,114,114,98,1,99,yerel,1399,63.565,1187,0.1298,5,harmonic,,word,m,,,,,,,
,,,,2023-11-28_11h38.09.014,VH_v3,2023.2.3,MacIntel,58.82352941,,,,,,,,,,,,319.869,320.866,,,,,,,,,,,,,,,,,,,,,,,,,,320.866,321.615,z,1,0.728,,321.615,321.615,,0,115,115,354,1,355,dizdat,,,,,6,notharmonic,2.4,nw,z,,,,,,,
,,,,2023-11-28_11h38.09.014,VH_v3,2023.2.3,MacIntel,58.82352941,,,,,,,,,,,,321.616,322.613,,,,,,,,,,,,,,,,,,,,,,,,,,322.613,324.176,z,1,1.547,,324.176,324.176,,0,116,116,223,1,224,kamut,,,,,5,harmonic,1.5,nw,z,,,,,,,
,,,,2023-11-28_11h38.09.014,VH_v3,2023.2.3,MacIntel,58.82352941,,,,,,,,,,,,324.177,325.173,,,,,,,,,,,,,,,,,,,,,,,,,,325.173,325.888,m,1,0.697,,325.888,325.888,,0,117,117,168,1,169,peynir,1421,64.5646,1248,0.1364,6,harmonic,,word,m,,,,,,,
,,,,2023-11-28_11h38.09.014,VH_v3,2023.2.3,MacIntel,58.82352941,,,,,,,,,,,,325.889,326.886,,,,,,,,,,,,,,,,,,,,,,,,,,326.886,327.767,z,1,0.866,,327.767,327.768,,0,118,118,218,1,219,yaltın,,,,,6,harmonic,1.8,nw,z,,,,,,,
,,,,2023-11-28_11h38.09.014,VH_v3,2023.2.3,MacIntel,58.82352941,,,,,,,,,,,,327.768,328.764,,,,,,,,,,,,,,,,,,,,,,,,,,328.765,329.563,m,1,0.777,,329.563,329.563,,0,119,119,87,1,88,mümkün,6604,300.0596,6264,0.6848,6,harmonic,1.9,word,m,,,,,,,
,,,,2023-11-28_11h38.09.014,VH_v3,2023.2.3,MacIntel,58.82352941,,,,,,,,,,,,329.564,330.561,,,,,,,,,,,,,,,,,,,,,,,,,,330.561,331.075,m,1,0.502,,331.075,336.213,space,0,120,120,18,1,19,normal,4154,188.7413,3788,0.4141,6,harmonic,1.75,word,m,5.123,,,,,,
,,,,2023-11-28_11h38.09.014,VH_v3,2023.2.3,MacIntel,58.82352941,,,,,,,,,,,,336.214,337.211,,,,,,,,,,,,,,,,,,,,,,,,,,337.211,338.591,m,1,1.368,,338.591,338.591,,0,121,121,67,1,68,bayram,1948,88.5094,1648,0.1802,6,harmonic,1.85,word,m,,,,,,,
,,,,2023-11-28_11h38.09.014,VH_v3,2023.2.3,MacIntel,58.82352941,,,,,,,,,,,,338.592,339.589,,,,,,,,,,,,,,,,,,,,,,,,,,339.589,340.504,z,1,0.893,,340.504,340.504,,0,122,122,280,1,281,düktan,,,,,6,notharmonic,2.35,nw,z,,,,,,,
,,,,2023-11-28_11h38.09.014,VH_v3,2023.2.3,MacIntel,58.82352941,,,,,,,,,,,,340.504,341.501,,,,,,,,,,,,,,,,,,,,,,,,,,341.501,342.116,z,1,0.604,,342.116,342.116,,0,123,123,240,1,241,şünle,,,,,5,harmonic,1.9,nw,z,,,,,,,
,,,,2023-11-28_11h38.09.014,VH_v3,2023.2.3,MacIntel,58.82352941,,,,,,,,,,,,342.117,343.115,,,,,,,,,,,,,,,,,,,,,,,,,,343.115,343.746,m,1,0.612,,343.746,343.746,,0,124,124,165,1,166,fırsat,1952,88.6911,1863,0.2037,6,harmonic,,word,m,,,,,,,
,,,,2023-11-28_11h38.09.014,VH_v3,2023.2.3,MacIntel,58.82352941,,,,,,,,,,,,343.747,344.743,,,,,,,,,,,,,,,,,,,,,,,,,,344.743,345.392,m,1,0.629,,345.392,345.393,,0,125,125,135,1,136,değer,3333,151.4383,3084,0.3371,5,harmonic,,word,m,,,,,,,
,,,,2023-11-28_11h38.09.014,VH_v3,2023.2.3,MacIntel,58.82352941,,,,,,,,,,,,345.393,346.39,,,,,,,,,,,,,,,,,,,,,,,,,,346.39,347.122,z,1,0.716,,347.122,347.122,,0,126,126,282,1,283,edap,,,,,4,notharmonic,1.7,nw,z,,,,,,,
,,,,2023-11-28_11h38.09.014,VH_v3,2023.2.3,MacIntel,58.82352941,,,,,,,,,,,,347.122,348.118,,,,,,,,,,,,,,,,,,,,,,,,,,348.118,348.901,z,1,0.763,,348.901,348.901,,0,127,127,323,1,324,itkea,,,,,5,notharmonic,2.35,nw,z,,,,,,,
,,,,2023-11-28_11h38.09.014,VH_v3,2023.2.3,MacIntel,58.82352941,,,,,,,,,,,,348.901,349.898,,,,,,,,,,,,,,,,,,,,,,,,,,349.898,350.53,m,1,0.61,,350.531,350.531,,0,128,128,49,1,50,şeker,4708,213.9128,4170,0.4559,5,harmonic,1.6,word,m,,,,,,,
,,,,2023-11-28_11h38.09.014,VH_v3,2023.2.3,MacIntel,58.82352941,,,,,,,,,,,,350.531,351.528,,,,,,,,,,,,,,,,,,,,,,,,,,351.528,352.408,z,1,0.859,,352.408,352.409,,0,129,129,188,1,189,hüyen,,,,,5,harmonic,2,nw,z,,,,,,,
,,,,2023-11-28_11h38.09.014,VH_v3,2023.2.3,MacIntel,58.82352941,,,,,,,,,,,,352.409,353.406,,,,,,,,,,,,,,,,,,,,,,,,,,353.406,353.988,m,1,0.571,,353.988,353.989,,0,130,130,74,1,75,başarı,1398,63.5196,1300,0.1421,6,harmonic,1.2,word,m,,,,,,,
,,,,2023-11-28_11h38.09.014,VH_v3,2023.2.3,MacIntel,58.82352941,,,,,,,,,,,,353.99,354.986,,,,,,,,,,,,,,,,,,,,,,,,,,354.986,355.618,z,1,0.612,,355.618,355.618,,0,131,131,208,1,209,guzır,,,,,5,harmonic,2.05,nw,z,,,,,,,
,,,,2023-11-28_11h38.09.014,VH_v3,2023.2.3,MacIntel,58.82352941,,,,,,,,,,,,355.619,356.616,,,,,,,,,,,,,,,,,,,,,,,,,,356.616,357.181,m,0,0.546,,357.181,357.182,,0,132,132,199,1,200,repes,,,,,5,harmonic,2,nw,z,,,,,,,
,,,,2023-11-28_11h38.09.014,VH_v3,2023.2.3,MacIntel,58.82352941,,,,,,,,,,,,357.182,358.179,,,,,,,,,,,,,,,,,,,,,,,,,,358.179,358.811,m,1,0.611,,358.811,358.811,,0,133,133,75,1,76,roman,1499,68.1086,1281,0.14,5,harmonic,1.6,word,m,,,,,,,
,,,,2023-11-28_11h38.09.014,VH_v3,2023.2.3,MacIntel,58.82352941,,,,,,,,,,,,358.811,359.808,,,,,,,,,,,,,,,,,,,,,,,,,,359.809,360.456,z,1,0.628,,360.456,360.457,,0,134,134,196,1,197,gakık,,,,,5,harmonic,2,nw,z,,,,,,,
,,,,2023-11-28_11h38.09.014,VH_v3,2023.2.3,MacIntel,58.82352941,,,,,,,,,,,,360.457,361.454,,,,,,,,,,,,,,,,,,,,,,,,,,361.455,362.768,z,1,1.294,,362.768,362.768,,0,135,135,242,1,243,ziye,,,,,4,harmonic,1.75,nw,z,,,,,,,
,,,,2023-11-28_11h38.09.014,VH_v3,2023.2.3,MacIntel,58.82352941,,,,,,,,,,,,362.768,363.766,,,,,,,,,,,,,,,,,,,,,,,,,,363.766,364.38,m,0,0.603,,364.38,364.381,,0,136,136,350,1,351,bügun,,,,,5,notharmonic,2,nw,z,,,,,,,
,,,,2023-11-28_11h38.09.014,VH_v3,2023.2.3,MacIntel,58.82352941,,,,,,,,,,,,364.381,365.379,,,,,,,,,,,,,,,,,,,,,,,,,,365.379,366.193,m,1,0.801,,366.193,366.193,,0,137,137,126,1,127,ciddi,4147,188.4232,3686,0.403,5,harmonic,,word,m,,,,,,,
,,,,2023-11-28_11h38.09.014,VH_v3,2023.2.3,MacIntel,58.82352941,,,,,,,,,,,,366.194,367.191,,,,,,,,,,,,,,,,,,,,,,,,,,367.191,367.839,z,1,0.635,,367.839,367.84,,0,138,138,221,1,222,ülük,,,,,4,harmonic,1.55,nw,z,,,,,,,
,,,,2023-11-28_11h38.09.014,VH_v3,2023.2.3,MacIntel,58.82352941,,,,,,,,,,,,367.84,368.836,,,,,,,,,,,,,,,,,,,,,,,,,,368.836,369.385,z,0,0.535,,369.385,369.385,,0,139,139,104,1,105,çizgi,1340,60.8843,1074,0.1174,5,harmonic,,word,m,,,,,,,
,,,,2023-11-28_11h38.09.014,VH_v3,2023.2.3,MacIntel,58.82352941,,,,,,,,,,,,369.386,370.383,,,,,,,,,,,,,,,,,,,,,,,,,,370.383,371.048,m,1,0.652,,371.048,371.048,,0,140,140,114,1,115,türlü,7010,318.5066,6559,0.717,5,harmonic,,word,m,,,,,,,
,,,,2023-11-28_11h38.09.014,VH_v3,2023.2.3,MacIntel,58.82352941,,,,,,,,,,,,371.048,372.046,,,,,,,,,,,,,,,,,,,,,,,,,,372.046,372.428,m,1,0.371,,372.428,372.429,,0,141,141,131,1,132,derin,3689,167.6135,3328,0.3638,5,harmonic,,word,m,,,,,,,
,,,,2023-11-28_11h38.09.014,VH_v3,2023.2.3,MacIntel,58.82352941,,,,,,,,,,,,372.429,373.425,,,,,,,,,,,,,,,,,,,,,,,,,,373.425,373.942,m,1,0.495,,373.942,373.942,,0,142,142,172,1,173,halka,1196,54.3415,1014,0.1109,6,harmonic,,word,m,,,,,,,
,,,,2023-11-28_11h38.09.014,VH_v3,2023.2.3,MacIntel,58.82352941,,,,,,,,,,,,373.943,374.939,,,,,,,,,,,,,,,,,,,,,,,,,,374.939,375.67,z,1,0.718,,375.67,375.67,,0,143,143,312,1,313,izmal,,,,,5,notharmonic,1.8,nw,z,,,,,,,
,,,,2023-11-28_11h38.09.014,VH_v3,2023.2.3,MacIntel,58.82352941,,,,,,,,,,,,375.671,376.669,,,,,,,,,,,,,,,,,,,,,,,,,,376.669,377.45,z,1,0.76,,377.45,377.45,,0,144,144,210,1,211,şatla,,,,,5,harmonic,1.5,nw,z,,,,,,,
,,,,2023-11-28_11h38.09.014,VH_v3,2023.2.3,MacIntel,58.82352941,,,,,,,,,,,,377.45,378.447,,,,,,,,,,,,,,,,,,,,,,,,,,378.447,379.063,z,0,0.601,,379.063,379.063,,0,145,145,48,1,49,teşvik,932,42.3464,867,0.0948,6,harmonic,1.8,word,m,,,,,,,
,,,,2023-11-28_11h38.09.014,VH_v3,2023.2.3,MacIntel,58.82352941,,,,,,,,,,,,379.064,380.06,,,,,,,,,,,,,,,,,,,,,,,,,,380.06,380.941,m,1,0.864,,380.941,380.941,,0,146,146,34,1,35,hoca,1893,86.0104,1526,0.1668,4,harmonic,1.45,word,m,,,,,,,
,,,,2023-11-28_11h38.09.014,VH_v3,2023.2.3,MacIntel,58.82352941,,,,,,,,,,,,380.942,381.94,,,,,,,,,,,,,,,,,,,,,,,,,,381.94,382.637,z,1,0.686,,382.637,382.638,,0,147,147,296,1,297,taeri,,,,,5,notharmonic,2,nw,z,,,,,,,
,,,,2023-11-28_11h38.09.014,VH_v3,2023.2.3,MacIntel,58.82352941,,,,,,,,,,,,382.638,383.636,,,,,,,,,,,,,,,,,,,,,,,,,,383.636,384.35,m,1,0.7,,384.35,384.35,,0,148,148,140,1,141,ünlü,2684,121.9503,2457,0.2686,4,harmonic,,word,m,,,,,,,
,,,,2023-11-28_11h38.09.014,VH_v3,2023.2.3,MacIntel,58.82352941,,,,,,,,,,,,384.35,385.348,,,,,,,,,,,,,,,,,,,,,,,,,,385.348,386.046,z,1,0.678,,386.046,386.046,,0,149,149,181,1,182,erben,,,,,5,harmonic,1.8,nw,z,,,,,,,
,,,,2023-11-28_11h38.09.014,VH_v3,2023.2.3,MacIntel,58.82352941,,,,,,,,,,,,386.047,387.044,,,,,,,,,,,,,,,,,,,,,,,,,,387.044,387.626,m,1,0.56,,387.626,387.626,,0,150,150,86,1,87,gerçek,8983,408.1519,8058,0.8809,6,harmonic,1.7,word,m,,,,,,,
,,,,2023-11-28_11h38.09.014,VH_v3,2023.2.3,MacIntel,58.82352941,,,,,,,,,,,,387.627,388.624,,,,,,,,,,,,,,,,,,,,,,,,,,388.624,389.241,z,0,0.594,,389.242,389.242,,0,151,151,171,1,172,şirket,1227,55.75,1022,0.1117,6,harmonic,,word,m,,,,,,,
,,,,2023-11-28_11h38.09.014,VH_v3,2023.2.3,MacIntel,58.82352941,,,,,,,,,,,,389.242,390.236,,,,,,,,,,,,,,,,,,,,,,,,,,390.236,390.718,m,1,0.467,,390.719,390.719,,0,152,152,122,1,123,sorun,4653,211.4139,4296,0.4696,5,harmonic,,word,m,,,,,,,
,,,,2023-11-28_11h38.09.014,VH_v3,2023.2.3,MacIntel,58.82352941,,,,,,,,,,,,390.72,391.716,,,,,,,,,,,,,,,,,,,,,,,,,,391.716,392.431,z,1,0.693,,392.431,392.431,,0,153,153,352,1,353,yarema,,,,,6,notharmonic,1.95,nw,z,,,,,,,
,,,,2023-11-28_11h38.09.014,VH_v3,2023.2.3,MacIntel,58.82352941,,,,,,,,,,,,392.432,393.429,,,,,,,,,,,,,,,,,,,,,,,,,,393.429,394.128,z,1,0.676,,394.128,394.128,,0,154,154,184,1,185,medme,,,,,5,harmonic,1.95,nw,z,,,,,,,
,,,,2023-11-28_11h38.09.014,VH_v3,2023.2.3,MacIntel,58.82352941,,,,,,,,,,,,394.128,395.124,,,,,,,,,,,,,,,,,,,,,,,,,,395.125,395.691,z,1,0.543,,395.691,395.691,,0,155,155,249,1,250,öldek,,,,,5,harmonic,1.85,nw,z,,,,,,,
,,,,2023-11-28_11h38.09.014,VH_v3,2023.2.3,MacIntel,58.82352941,,,,,,,,,,,,395.691,396.688,,,,,,,,,,,,,,,,,,,,,,,,,,396.688,397.287,z,1,0.576,,397.287,397.287,,0,156,156,263,1,264,geğniş,,,,,6,harmonic,2.35,nw,z,,,,,,,
,,,,2023-11-28_11h38.09.014,VH_v3,2023.2.3,MacIntel,58.82352941,,,,,,,,,,,,397.287,398.285,,,,,,,,,,,,,,,,,,,,,,,,,,398.285,398.899,m,1,0.593,,398.899,398.899,,0,157,157,57,1,58,bölüm,1910,86.7828,1605,0.1755,5,harmonic,1.45,word,m,,,,,,,
,,,,2023-11-28_11h38.09.014,VH_v3,2023.2.3,MacIntel,58.82352941,,,,,,,,,,,,398.899,399.897,,,,,,,,,,,,,,,,,,,,,,,,,,399.897,400.679,m,1,0.761,,400.679,400.679,,0,158,158,179,1,180,mesele,995,45.2089,929,0.1016,6,harmonic,,word,m,,,,,,,
,,,,2023-11-28_11h38.09.014,VH_v3,2023.2.3,MacIntel,58.82352941,,,,,,,,,,,,400.68,401.676,,,,,,,,,,,,,,,,,,,,,,,,,,401.676,402.325,z,1,0.63,,402.325,402.325,,0,159,159,345,1,346,kiru,,,,,4,notharmonic,1.8,nw,z,,,,,,,
,,,,2023-11-28_11h38.09.014,VH_v3,2023.2.3,MacIntel,58.82352941,,,,,,,,,,,,402.325,403.323,,,,,,,,,,,,,,,,,,,,,,,,,,403.323,403.97,z,1,0.628,,403.97,403.97,,0,160,160,341,1,342,sizika,,,,,6,notharmonic,2.45,nw,z,,,,,,,
,,,,2023-11-28_11h38.09.014,VH_v3,2023.2.3,MacIntel,58.82352941,,,,,,,,,,,,403.971,404.968,,,,,,,,,,,,,,,,,,,,,,,,,,404.968,405.649,m,1,0.661,,405.649,405.65,,0,161,161,102,1,103,kaşık,1355,61.5658,1177,0.1287,5,harmonic,,word,m,,,,,,,
,,,,2023-11-28_11h38.09.014,VH_v3,2023.2.3,MacIntel,58.82352941,,,,,,,,,,,,405.65,406.647,,,,,,,,,,,,,,,,,,,,,,,,,,406.647,407.114,z,1,0.445,,407.114,407.114,,0,162,162,269,1,270,kanon,,,,,5,harmonic,,nw,z,,,,,,,
,,,,2023-11-28_11h38.09.014,VH_v3,2023.2.3,MacIntel,58.82352941,,,,,,,,,,,,407.115,408.111,,,,,,,,,,,,,,,,,,,,,,,,,,408.111,408.693,m,1,0.568,,408.693,408.693,,0,163,163,53,1,54,gelir,7578,344.3143,7014,0.7668,5,harmonic,1.4,word,m,,,,,,,
,,,,2023-11-28_11h38.09.014,VH_v3,2023.2.3,MacIntel,58.82352941,,,,,,,,,,,,408.694,409.691,,,,,,,,,,,,,,,,,,,,,,,,,,409.691,410.356,z,1,0.646,,410.356,410.356,,0,164,164,329,1,330,aniş,,,,,4,notharmonic,1.7,nw,z,,,,,,,
,,,,2023-11-28_11h38.09.014,VH_v3,2023.2.3,MacIntel,58.82352941,,,,,,,,,,,,410.356,411.353,,,,,,,,,,,,,,,,,,,,,,,,,,411.354,411.835,m,1,0.467,,411.835,411.835,,0,165,165,119,1,120,rahat,4833,219.5924,4316,0.4718,5,harmonic,,word,m,,,,,,,
,,,,2023-11-28_11h38.09.014,VH_v3,2023.2.3,MacIntel,58.82352941,,,,,,,,,,,,411.835,412.833,,,,,,,,,,,,,,,,,,,,,,,,,,412.833,413.382,m,1,0.536,,413.382,413.382,,0,166,166,15,1,16,hayat,7922,359.9443,7314,0.7996,5,harmonic,1.9,word,m,,,,,,,
,,,,2023-11-28_11h38.09.014,VH_v3,2023.2.3,MacIntel,58.82352941,,,,,,,,,,,,413.383,414.38,,,,,,,,,,,,,,,,,,,,,,,,,,414.38,415.028,z,1,0.627,,415.028,415.029,,0,167,167,261,1,262,kübün,,,,,5,harmonic,2,nw,z,,,,,,,
,,,,2023-11-28_11h38.09.014,VH_v3,2023.2.3,MacIntel,58.82352941,,,,,,,,,,,,415.029,416.025,,,,,,,,,,,,,,,,,,,,,,,,,,416.025,416.691,m,1,0.646,,416.691,416.691,,0,168,168,62,1,63,cümle,1911,86.8283,1765,0.193,5,harmonic,1.85,word,m,,,,,,,
,,,,2023-11-28_11h38.09.014,VH_v3,2023.2.3,MacIntel,58.82352941,,,,,,,,,,,,416.692,417.688,,,,,,,,,,,,,,,,,,,,,,,,,,417.689,418.619,m,1,0.91,,418.619,418.619,,0,169,169,25,1,26,rapor,703,31.9415,617,0.0675,5,harmonic,1.8,word,m,,,,,,,
,,,,2023-11-28_11h38.09.014,VH_v3,2023.2.3,MacIntel,58.82352941,,,,,,,,,,,,418.62,419.617,,,,,,,,,,,,,,,,,,,,,,,,,,419.617,420.248,z,1,0.615,,420.248,420.249,,0,170,170,283,1,284,sate,,,,,4,notharmonic,1.45,nw,z,,,,,,,
,,,,2023-11-28_11h38.09.014,VH_v3,2023.2.3,MacIntel,58.82352941,,,,,,,,,,,,420.249,421.246,,,,,,,,,,,,,,,,,,,,,,,,,,421.247,421.878,m,1,0.619,,421.878,421.878,,0,171,171,92,1,93,büyük,32406,1472.4001,28224,3.0855,5,harmonic,,word,m,,,,,,,
,,,,2023-11-28_11h38.09.014,VH_v3,2023.2.3,MacIntel,58.82352941,,,,,,,,,,,,421.879,422.876,,,,,,,,,,,,,,,,,,,,,,,,,,422.876,423.424,m,1,0.534,,423.424,423.424,,0,172,172,14,1,15,yaşam,4348,197.5559,3918,0.4283,5,harmonic,1.4,word,m,,,,,,,
,,,,2023-11-28_11h38.09.014,VH_v3,2023.2.3,MacIntel,58.82352941,,,,,,,,,,,,423.425,424.422,,,,,,,,,,,,,,,,,,,,,,,,,,424.422,425.188,z,1,0.744,,425.188,425.188,,0,173,173,359,1,360,hisaye,,,,,6,notharmonic,,nw,z,,,,,,,
,,,,2023-11-28_11h38.09.014,VH_v3,2023.2.3,MacIntel,58.82352941,,,,,,,,,,,,425.188,426.185,,,,,,,,,,,,,,,,,,,,,,,,,,426.185,426.617,m,0,0.411,,426.617,426.617,,0,174,174,274,1,275,rikal,,,,,5,notharmonic,1.85,nw,z,,,,,,,
,,,,2023-11-28_11h38.09.014,VH_v3,2023.2.3,MacIntel,58.82352941,,,,,,,,,,,,426.617,427.615,,,,,,,,,,,,,,,,,,,,,,,,,,427.615,428.197,m,1,0.561,,428.198,428.198,,0,175,175,78,1,79,ulusal,1551,70.4713,1355,0.1481,6,harmonic,1.75,word,m,,,,,,,
,,,,2023-11-28_11h38.09.014,VH_v3,2023.2.3,MacIntel,58.82352941,,,,,,,,,,,,428.198,429.194,,,,,,,,,,,,,,,,,,,,,,,,,,429.194,429.993,m,1,0.786,,429.993,429.993,,0,176,176,66,1,67,sanık,768,34.8949,699,0.0764,5,harmonic,1.85,word,m,,,,,,,
,,,,2023-11-28_11h38.09.014,VH_v3,2023.2.3,MacIntel,58.82352941,,,,,,,,,,,,429.993,430.991,,,,,,,,,,,,,,,,,,,,,,,,,,430.991,431.606,z,1,0.595,,431.606,431.606,,0,177,177,281,1,282,ikva,,,,,4,notharmonic,1.85,nw,z,,,,,,,
,,,,2023-11-28_11h38.09.014,VH_v3,2023.2.3,MacIntel,58.82352941,,,,,,,,,,,,431.606,432.604,,,,,,,,,,,,,,,,,,,,,,,,,,432.604,433.185,m,1,0.56,,433.185,433.185,,0,178,178,37,1,38,hayvan,2363,107.3653,1894,0.2071,6,harmonic,1.5,word,m,,,,,,,
,,,,2023-11-28_11h38.09.014,VH_v3,2023.2.3,MacIntel,58.82352941,,,,,,,,,,,,433.185,434.183,,,,,,,,,,,,,,,,,,,,,,,,,,434.183,434.798,m,1,0.594,,434.798,434.798,,0,179,179,144,1,145,şiir,2213,100.5499,1690,0.1848,4,harmonic,,word,m,,,,,,,
,,,,2023-11-28_11h38.09.014,VH_v3,2023.2.3,MacIntel,58.82352941,,,,,,,,,,,,434.799,435.796,,,,,,,,,,,,,,,,,,,,,,,,,,435.796,436.278,m,0,0.47,,436.278,436.278,,0,180,180,222,1,223,çetiş,,,,,5,harmonic,1.7,nw,z,,,,,,,
,,,,2023-11-28_11h38.09.014,VH_v3,2023.2.3,MacIntel,58.82352941,,,,,,,,,,,,436.278,437.276,,,,,,,,,,,,,,,,,,,,,,,,,,437.276,437.89,m,1,0.594,,437.89,437.89,,0,181,181,160,1,161,günlük,3421,155.4367,3201,0.3499,6,harmonic,,word,m,,,,,,,
,,,,2023-11-28_11h38.09.014,VH_v3,2023.2.3,MacIntel,58.82352941,,,,,,,,,,,,437.891,438.888,,,,,,,,,,,,,,,,,,,,,,,,,,438.888,439.637,m,1,0.728,,439.637,439.637,,0,182,182,16,1,17,yavaş,5087,231.1331,2886,0.3155,5,harmonic,1.6,word,m,,,,,,,
,,,,2023-11-28_11h38.09.014,VH_v3,2023.2.3,MacIntel,58.82352941,,,,,,,,,,,,439.638,440.635,,,,,,,,,,,,,,,,,,,,,,,,,,440.635,441.366,z,1,0.712,,441.366,441.366,,0,183,183,332,1,333,makik,,,,,5,notharmonic,1.6,nw,z,,,,,,,
,,,,2023-11-28_11h38.09.014,VH_v3,2023.2.3,MacIntel,58.82352941,,,,,,,,,,,,441.367,442.364,,,,,,,,,,,,,,,,,,,,,,,,,,442.364,443.062,z,1,0.678,,443.062,443.062,,0,184,184,228,1,229,nekir,,,,,5,harmonic,1.65,nw,z,,,,,,,
,,,,2023-11-28_11h38.09.014,VH_v3,2023.2.3,MacIntel,58.82352941,,,,,,,,,,,,443.063,444.06,,,,,,,,,,,,,,,,,,,,,,,,,,444.06,444.674,z,1,0.594,,444.675,444.675,,0,185,185,314,1,315,betaş,,,,,5,notharmonic,1.9,nw,z,,,,,,,
,,,,2023-11-28_11h38.09.014,VH_v3,2023.2.3,MacIntel,58.82352941,,,,,,,,,,,,444.675,445.673,,,,,,,,,,,,,,,,,,,,,,,,,,445.673,446.221,m,1,0.537,,446.221,446.222,,0,186,186,12,1,13,konu,5400,245.3546,5110,0.5586,4,harmonic,1,word,m,,,,,,,
,,,,2023-11-28_11h38.09.014,VH_v3,2023.2.3,MacIntel,58.82352941,,,,,,,,,,,,446.222,447.218,,,,,,,,,,,,,,,,,,,,,,,,,,447.218,447.8,m,1,0.568,,447.8,447.8,,0,187,187,21,1,22,duygu,1877,85.2834,1760,0.1924,5,harmonic,1.8,word,m,,,,,,,
,,,,2023-11-28_11h38.09.014,VH_v3,2023.2.3,MacIntel,58.82352941,,,,,,,,,,,,447.801,448.799,,,,,,,,,,,,,,,,,,,,,,,,,,448.799,449.264,z,1,0.446,,449.264,449.265,,0,188,188,358,1,359,ksalik,,,,,6,notharmonic,,nw,z,,,,,,,
,,,,2023-11-28_11h38.09.014,VH_v3,2023.2.3,MacIntel,58.82352941,,,,,,,,,,,,449.265,450.261,,,,,,,,,,,,,,,,,,,,,,,,,,450.261,451.076,z,1,0.796,,451.076,451.076,,0,189,189,253,1,254,notan,,,,,5,harmonic,1.85,nw,z,,,,,,,
,,,,2023-11-28_11h38.09.014,VH_v3,2023.2.3,MacIntel,58.82352941,,,,,,,,,,,,451.076,452.074,,,,,,,,,,,,,,,,,,,,,,,,,,452.074,452.706,m,1,0.611,,452.706,452.706,,0,190,190,127,1,128,müzik,3999,181.6987,3340,0.3651,5,harmonic,,word,m,,,,,,,
,,,,2023-11-28_11h38.09.014,VH_v3,2023.2.3,MacIntel,58.82352941,,,,,,,,,,,,452.707,453.704,,,,,,,,,,,,,,,,,,,,,,,,,,453.704,454.202,m,1,0.485,,454.202,454.202,,0,191,191,128,1,129,güçlü,3924,178.291,3614,0.3951,5,harmonic,,word,m,,,,,,,
,,,,2023-11-28_11h38.09.014,VH_v3,2023.2.3,MacIntel,58.82352941,,,,,,,,,,,,454.203,455.2,,,,,,,,,,,,,,,,,,,,,,,,,,455.2,455.981,z,1,0.761,,455.981,455.981,,0,192,192,277,1,278,melbut,,,,,6,notharmonic,1.95,nw,z,,,,,,,
,,,,2023-11-28_11h38.09.014,VH_v3,2023.2.3,MacIntel,58.82352941,,,,,,,,,,,,455.982,456.979,,,,,,,,,,,,,,,,,,,,,,,,,,456.98,458.059,m,0,1.064,,458.059,458.06,,0,193,193,298,1,299,memzur,,,,,6,notharmonic,1.95,nw,z,,,,,,,
,,,,2023-11-28_11h38.09.014,VH_v3,2023.2.3,MacIntel,58.82352941,,,,,,,,,,,,458.06,459.058,,,,,,,,,,,,,,,,,,,,,,,,,,459.058,459.69,z,1,0.613,,459.69,459.69,,0,194,194,315,1,316,çarki,,,,,5,notharmonic,1.85,nw,z,,,,,,,
,,,,2023-11-28_11h38.09.014,VH_v3,2023.2.3,MacIntel,58.82352941,,,,,,,,,,,,459.69,460.687,,,,,,,,,,,,,,,,,,,,,,,,,,460.687,461.402,z,1,0.696,,461.402,461.402,,0,195,195,185,1,186,bebin,,,,,5,harmonic,1.7,nw,z,,,,,,,
,,,,2023-11-28_11h38.09.014,VH_v3,2023.2.3,MacIntel,58.82352941,,,,,,,,,,,,461.403,462.4,,,,,,,,,,,,,,,,,,,,,,,,,,462.4,463.014,m,1,0.604,,463.014,463.014,,0,196,196,0,1,1,sanat,3121,141.8059,2485,0.2717,5,harmonic,1.4,word,m,,,,,,,
,,,,2023-11-28_11h38.09.014,VH_v3,2023.2.3,MacIntel,58.82352941,,,,,,,,,,,,463.015,464.012,,,,,,,,,,,,,,,,,,,,,,,,,,464.012,464.494,z,1,0.464,,464.494,464.494,,0,197,197,335,1,336,askif,,,,,5,notharmonic,2,nw,z,,,,,,,
,,,,2023-11-28_11h38.09.014,VH_v3,2023.2.3,MacIntel,58.82352941,,,,,,,,,,,,464.495,465.492,,,,,,,,,,,,,,,,,,,,,,,,,,465.492,466.124,m,1,0.621,,466.124,466.124,,0,198,198,143,1,144,isim,2366,107.5017,2163,0.2365,4,harmonic,,word,m,,,,,,,
,,,,2023-11-28_11h38.09.014,VH_v3,2023.2.3,MacIntel,58.82352941,,,,,,,,,,,,466.125,467.122,,,,,,,,,,,,,,,,,,,,,,,,,,467.122,467.854,z,1,0.713,,467.854,467.854,,0,199,199,337,1,338,yakim,,,,,5,notharmonic,1.75,nw,z,,,,,,,
,,,,2023-11-28_11h38.09.014,VH_v3,2023.2.3,MacIntel,58.82352941,,,,,,,,,,,,467.854,468.851,,,,,,,,,,,,,,,,,,,,,,,,,,468.851,469.516,m,1,0.648,,469.516,469.516,,0,200,200,162,1,163,destek,3328,151.2111,3065,0.3351,6,harmonic,,word,m,,,,,,,
,,,,2023-11-28_11h38.09.014,VH_v3,2023.2.3,MacIntel,58.82352941,,,,,,,,,,,,469.516,470.514,,,,,,,,,,,,,,,,,,,,,,,,,,470.514,471.578,m,0,1.043,,471.578,471.578,,0,201,201,287,1,288,beran,,,,,5,notharmonic,1.75,nw,z,,,,,,,
,,,,2023-11-28_11h38.09.014,VH_v3,2023.2.3,MacIntel,58.82352941,,,,,,,,,,,,471.579,472.576,,,,,,,,,,,,,,,,,,,,,,,,,,472.576,473.074,m,1,0.483,,473.074,473.074,,0,202,202,101,1,102,kabul,10003,454.4967,9014,0.9854,5,harmonic,,word,m,,,,,,,
,,,,2023-11-28_11h38.09.014,VH_v3,2023.2.3,MacIntel,58.82352941,,,,,,,,,,,,473.075,474.072,,,,,,,,,,,,,,,,,,,,,,,,,,474.072,474.605,m,1,0.512,,474.605,474.605,,0,203,203,1,1,2,erkek,6188,281.1582,5195,0.5679,5,harmonic,1.65,word,m,,,,,,,
,,,,2023-11-28_11h38.09.014,VH_v3,2023.2.3,MacIntel,58.82352941,,,,,,,,,,,,474.605,475.601,,,,,,,,,,,,,,,,,,,,,,,,,,475.601,476.434,m,1,0.816,,476.434,476.434,,0,204,204,58,1,59,ayak,2143,97.3694,1931,0.2111,4,harmonic,1,word,m,,,,,,,
,,,,2023-11-28_11h38.09.014,VH_v3,2023.2.3,MacIntel,58.82352941,,,,,,,,,,,,476.434,477.43,,,,,,,,,,,,,,,,,,,,,,,,,,477.43,478.196,z,1,0.747,,478.196,478.196,,0,205,205,248,1,249,harık,,,,,5,harmonic,1.55,nw,z,,,,,,,
,,,,2023-11-28_11h38.09.014,VH_v3,2023.2.3,MacIntel,58.82352941,,,,,,,,,,,,478.197,479.194,,,,,,,,,,,,,,,,,,,,,,,,,,479.194,479.909,m,1,0.702,,479.909,479.909,,0,206,206,151,1,152,uzak,4809,218.5019,4564,0.4989,4,harmonic,,word,m,,,,,,,
,,,,2023-11-28_11h38.09.014,VH_v3,2023.2.3,MacIntel,58.82352941,,,,,,,,,,,,479.91,480.906,,,,,,,,,,,,,,,,,,,,,,,,,,480.906,481.438,m,1,0.513,,481.439,481.439,,0,207,207,11,1,12,umut,1988,90.3268,1818,0.1987,4,harmonic,1.55,word,m,,,,,,,
,,,,2023-11-28_11h38.09.014,VH_v3,2023.2.3,MacIntel,58.82352941,,,,,,,,,,,,481.439,482.436,,,,,,,,,,,,,,,,,,,,,,,,,,482.436,483.101,z,1,0.645,,483.101,483.101,,0,208,208,235,1,236,mörüm,,,,,5,harmonic,1.9,nw,z,,,,,,,
,,,,2023-11-28_11h38.09.014,VH_v3,2023.2.3,MacIntel,58.82352941,,,,,,,,,,,,483.102,484.099,,,,,,,,,,,,,,,,,,,,,,,,,,484.099,484.78,z,1,0.662,,484.78,484.78,,0,209,209,230,1,231,redem,,,,,5,harmonic,2,nw,z,,,,,,,
,,,,2023-11-28_11h38.09.014,VH_v3,2023.2.3,MacIntel,58.82352941,,,,,,,,,,,,484.78,485.778,,,,,,,,,,,,,,,,,,,,,,,,,,485.778,486.592,z,0,0.801,,486.592,486.592,,0,210,210,23,1,24,kurum,986,44.7999,882,0.0964,5,harmonic,1.75,word,m,,,,,,,
,,,,2023-11-28_11h38.09.014,VH_v3,2023.2.3,MacIntel,58.82352941,,,,,,,,,,,,486.593,487.591,,,,,,,,,,,,,,,,,,,,,,,,,,487.591,488.521,z,1,0.915,,488.521,488.521,,0,211,211,262,1,263,ürze,,,,,4,harmonic,1.95,nw,z,,,,,,,
,,,,2023-11-28_11h38.09.014,VH_v3,2023.2.3,MacIntel,58.82352941,,,,,,,,,,,,488.522,489.519,,,,,,,,,,,,,,,,,,,,,,,,,,489.519,490.333,z,1,0.796,,490.333,490.334,,0,212,212,237,1,238,küyek,,,,,5,harmonic,1.8,nw,z,,,,,,,
,,,,2023-11-28_11h38.09.014,VH_v3,2023.2.3,MacIntel,58.82352941,,,,,,,,,,,,490.334,491.332,,,,,,,,,,,,,,,,,,,,,,,,,,491.332,492.1,z,1,0.752,,492.1,492.1,,0,213,213,319,1,320,mafke,,,,,5,notharmonic,1.9,nw,z,,,,,,,
,,,,2023-11-28_11h38.09.014,VH_v3,2023.2.3,MacIntel,58.82352941,,,,,,,,,,,,492.1,493.094,,,,,,,,,,,,,,,,,,,,,,,,,,493.094,493.842,m,1,0.727,,493.842,493.842,,0,214,214,80,1,81,merkez,1445,65.6551,1255,0.1372,6,harmonic,1.8,word,m,,,,,,,
,,,,2023-11-28_11h38.09.014,VH_v3,2023.2.3,MacIntel,58.82352941,,,,,,,,,,,,493.843,494.839,,,,,,,,,,,,,,,,,,,,,,,,,,494.839,495.555,z,1,0.695,,495.555,495.555,,0,215,215,215,1,216,maflek,,,,,6,harmonic,2.15,nw,z,,,,,,,
,,,,2023-11-28_11h38.09.014,VH_v3,2023.2.3,MacIntel,58.82352941,,,,,,,,,,,,495.556,496.552,,,,,,,,,,,,,,,,,,,,,,,,,,496.552,497.301,z,1,0.738,,497.301,497.301,,0,216,216,279,1,280,ikaza,,,,,5,notharmonic,1.9,nw,z,,,,,,,
,,,,2023-11-28_11h38.09.014,VH_v3,2023.2.3,MacIntel,58.82352941,,,,,,,,,,,,497.302,498.298,,,,,,,,,,,,,,,,,,,,,,,,,,498.298,499.013,z,1,0.702,,499.014,499.014,,0,217,217,238,1,239,bodu,,,,,4,harmonic,1.85,nw,z,,,,,,,
,,,,2023-11-28_11h38.09.014,VH_v3,2023.2.3,MacIntel,58.82352941,,,,,,,,,,,,499.014,500.011,,,,,,,,,,,,,,,,,,,,,,,,,,500.011,500.726,z,1,0.694,,500.726,500.726,,0,218,218,202,1,203,kulom,,,,,5,harmonic,2,nw,z,,,,,,,
,,,,2023-11-28_11h38.09.014,VH_v3,2023.2.3,MacIntel,58.82352941,,,,,,,,,,,,500.726,501.724,,,,,,,,,,,,,,,,,,,,,,,,,,501.724,502.489,m,1,0.744,,502.489,502.489,,0,219,219,20,1,21,nefes,2871,130.4469,2553,0.2791,5,harmonic,1.8,word,m,,,,,,,
,,,,2023-11-28_11h38.09.014,VH_v3,2023.2.3,MacIntel,58.82352941,,,,,,,,,,,,502.49,503.486,,,,,,,,,,,,,,,,,,,,,,,,,,503.486,504.118,m,1,0.614,,504.118,504.119,,0,220,220,77,1,78,ufak,3252,147.758,2980,0.3258,4,harmonic,1.5,word,m,,,,,,,
,,,,2023-11-28_11h38.09.014,VH_v3,2023.2.3,MacIntel,58.82352941,,,,,,,,,,,,504.119,505.116,,,,,,,,,,,,,,,,,,,,,,,,,,505.116,505.664,m,1,0.528,,505.664,505.664,,0,221,221,61,1,62,yıldız,1775,80.649,1532,0.1675,6,harmonic,1.6,word,m,,,,,,,
,,,,2023-11-28_11h38.09.014,VH_v3,2023.2.3,MacIntel,58.82352941,,,,,,,,,,,,505.665,506.661,,,,,,,,,,,,,,,,,,,,,,,,,,506.661,507.41,z,1,0.733,,507.41,507.41,,0,222,222,204,1,205,cabor,,,,,5,harmonic,2.1,nw,z,,,,,,,
,,,,2023-11-28_11h38.09.014,VH_v3,2023.2.3,MacIntel,58.82352941,,,,,,,,,,,,507.41,508.408,,,,,,,,,,,,,,,,,,,,,,,,,,508.408,509.09,m,1,0.66,,509.09,509.09,,0,223,223,83,1,84,küçük,14048,638.2854,12467,1.3629,5,harmonic,1.75,word,m,,,,,,,
,,,,2023-11-28_11h38.09.014,VH_v3,2023.2.3,MacIntel,58.82352941,,,,,,,,,,,,509.091,510.088,,,,,,,,,,,,,,,,,,,,,,,,,,510.088,510.835,m,0,0.726,,510.835,510.835,,0,224,224,244,1,245,tazık,,,,,5,harmonic,1.7,nw,z,,,,,,,
,,,,2023-11-28_11h38.09.014,VH_v3,2023.2.3,MacIntel,58.82352941,,,,,,,,,,,,510.836,511.833,,,,,,,,,,,,,,,,,,,,,,,,,,511.834,512.431,m,1,0.585,,512.431,512.431,,0,225,225,153,1,154,para,7124,323.6863,5953,0.6508,4,harmonic,,word,m,,,,,,,
,,,,2023-11-28_11h38.09.014,VH_v3,2023.2.3,MacIntel,58.82352941,,,,,,,,,,,,512.432,513.43,,,,,,,,,,,,,,,,,,,,,,,,,,513.43,514.045,z,1,0.595,,514.045,514.045,,0,226,226,307,1,308,masil,,,,,5,notharmonic,1.65,nw,z,,,,,,,
,,,,2023-11-28_11h38.09.014,VH_v3,2023.2.3,MacIntel,58.82352941,,,,,,,,,,,,514.046,515.042,,,,,,,,,,,,,,,,,,,,,,,,,,515.042,515.757,m,1,0.696,,515.758,515.758,,0,227,227,22,1,23,anlam,1730,78.6043,1617,0.1768,5,harmonic,1.25,word,m,,,,,,,
,,,,2023-11-28_11h38.09.014,VH_v3,2023.2.3,MacIntel,58.82352941,,,,,,,,,,,,515.758,516.755,,,,,,,,,,,,,,,,,,,,,,,,,,516.755,517.386,m,1,0.612,,517.386,517.386,,0,228,228,41,1,42,zengin,2193,99.6412,2015,0.2203,6,harmonic,1.65,word,m,,,,,,,
,,,,2023-11-28_11h38.09.014,VH_v3,2023.2.3,MacIntel,58.82352941,,,,,,,,,,,,517.387,518.385,,,,,,,,,,,,,,,,,,,,,,,,,,518.385,519.232,z,1,0.828,,519.232,519.233,,0,229,229,190,1,191,banyak,,,,,6,harmonic,1.85,nw,z,,,,,,,
,,,,2023-11-28_11h38.09.014,VH_v3,2023.2.3,MacIntel,58.82352941,,,,,,,,,,,,519.233,520.231,,,,,,,,,,,,,,,,,,,,,,,,,,520.231,520.912,m,1,0.66,,520.912,520.912,,0,230,230,118,1,119,deniz,5006,227.4528,4256,0.4653,5,harmonic,,word,m,,,,,,,
,,,,2023-11-28_11h38.09.014,VH_v3,2023.2.3,MacIntel,58.82352941,,,,,,,,,,,,520.913,521.909,,,,,,,,,,,,,,,,,,,,,,,,,,521.909,522.674,m,1,0.744,,522.674,522.675,,0,231,231,2,1,3,radyo,763,34.6677,636,0.0695,5,harmonic,1.85,word,m,,,,,,,
,,,,2023-11-28_11h38.09.014,VH_v3,2023.2.3,MacIntel,58.82352941,,,,,,,,,,,,522.675,523.672,,,,,,,,,,,,,,,,,,,,,,,,,,523.673,525.335,z,1,1.646,,525.335,525.335,,0,232,232,322,1,323,galiç,,,,,5,notharmonic,1.8,nw,z,,,,,,,
,,,,2023-11-28_11h38.09.014,VH_v3,2023.2.3,MacIntel,58.82352941,,,,,,,,,,,,525.335,526.332,,,,,,,,,,,,,,,,,,,,,,,,,,526.332,526.83,m,1,0.485,,526.83,526.831,,0,233,233,169,1,170,düzgün,1384,62.8835,1310,0.1432,6,harmonic,,word,m,,,,,,,
,,,,2023-11-28_11h38.09.014,VH_v3,2023.2.3,MacIntel,58.82352941,,,,,,,,,,,,526.831,527.829,,,,,,,,,,,,,,,,,,,,,,,,,,527.829,528.877,m,1,1.028,,528.877,528.877,,0,234,234,70,1,71,yarın,3440,156.3,3222,0.3522,5,harmonic,1.85,word,m,,,,,,,
,,,,2023-11-28_11h38.09.014,VH_v3,2023.2.3,MacIntel,58.82352941,,,,,,,,,,,,528.877,529.874,,,,,,,,,,,,,,,,,,,,,,,,,,529.874,530.987,z,1,1.094,,530.987,530.987,,0,235,235,234,1,235,taslam,,,,,6,harmonic,1.9,nw,z,,,,,,,
,,,,2023-11-28_11h38.09.014,VH_v3,2023.2.3,MacIntel,58.82352941,,,,,,,,,,,,530.988,531.986,,,,,,,,,,,,,,,,,,,,,,,,,,531.986,532.684,m,1,0.688,,532.684,532.684,,0,236,236,54,1,55,yedek,825,37.4847,732,0.08,5,harmonic,1.65,word,m,,,,,,,
,,,,2023-11-28_11h38.09.014,VH_v3,2023.2.3,MacIntel,58.82352941,,,,,,,,,,,,532.685,533.682,,,,,,,,,,,,,,,,,,,,,,,,,,533.682,534.48,z,1,0.777,,534.48,534.48,,0,237,237,318,1,319,sapel,,,,,5,notharmonic,1.9,nw,z,,,,,,,
,,,,2023-11-28_11h38.09.014,VH_v3,2023.2.3,MacIntel,58.82352941,,,,,,,,,,,,534.481,535.477,,,,,,,,,,,,,,,,,,,,,,,,,,535.477,536.325,m,1,0.828,,536.325,536.325,,0,238,238,93,1,94,başka,23223,1055.161,20976,2.2931,5,harmonic,,word,m,,,,,,,
,,,,2023-11-28_11h38.09.014,VH_v3,2023.2.3,MacIntel,58.82352941,,,,,,,,,,,,536.326,537.323,,,,,,,,,,,,,,,,,,,,,,,,,,537.323,538.037,z,1,0.695,,538.037,538.038,,0,239,239,265,1,266,münrün,,,,,6,harmonic,2.75,nw,z,,,,,,,
,,,,2023-11-28_11h38.09.014,VH_v3,2023.2.3,MacIntel,58.82352941,,,,,,,,,,,,538.038,539.035,,,,,,,,,,,,,,,,,,,,,,,,,,539.035,540.016,z,1,0.969,,540.016,576.331,space,0,240,240,328,1,329,tadit,,,,,5,notharmonic,1.8,nw,z,36.298,,,,,,
,,,,2023-11-28_11h38.09.014,VH_v3,2023.2.3,MacIntel,58.82352941,,,,,,,,,,,,576.331,577.328,,,,,,,,,,,,,,,,,,,,,,,,,,577.328,578.626,z,1,1.277,,578.626,578.626,,0,241,241,331,1,332,ilcaet,,,,,6,notharmonic,2.7,nw,z,,,,,,,
,,,,2023-11-28_11h38.09.014,VH_v3,2023.2.3,MacIntel,58.82352941,,,,,,,,,,,,578.626,579.623,,,,,,,,,,,,,,,,,,,,,,,,,,579.623,580.753,z,1,1.108,,580.754,580.754,,0,242,242,293,1,294,mosil,,,,,5,notharmonic,1.85,nw,z,,,,,,,
,,,,2023-11-28_11h38.09.014,VH_v3,2023.2.3,MacIntel,58.82352941,,,,,,,,,,,,580.754,581.752,,,,,,,,,,,,,,,,,,,,,,,,,,581.752,582.35,m,1,0.584,,582.35,582.35,,0,243,243,177,1,178,mutfak,1110,50.434,1032,0.1128,6,harmonic,,word,m,,,,,,,
,,,,2023-11-28_11h38.09.014,VH_v3,2023.2.3,MacIntel,58.82352941,,,,,,,,,,,,582.35,583.348,,,,,,,,,,,,,,,,,,,,,,,,,,583.348,583.946,z,1,0.575,,583.946,583.946,,0,244,244,272,1,273,sakke,,,,,5,notharmonic,1.85,nw,z,,,,,,,
,,,,2023-11-28_11h38.09.014,VH_v3,2023.2.3,MacIntel,58.82352941,,,,,,,,,,,,583.947,584.944,,,,,,,,,,,,,,,,,,,,,,,,,,584.944,585.908,z,1,0.941,,585.908,585.908,,0,245,245,180,1,181,manıt,,,,,5,harmonic,1.75,nw,z,,,,,,,
,,,,2023-11-28_11h38.09.014,VH_v3,2023.2.3,MacIntel,58.82352941,,,,,,,,,,,,585.908,586.907,,,,,,,,,,,,,,,,,,,,,,,,,,586.907,587.538,z,1,0.61,,587.538,587.539,,0,246,246,320,1,321,sivaka,,,,,6,notharmonic,2.3,nw,z,,,,,,,
,,,,2023-11-28_11h38.09.014,VH_v3,2023.2.3,MacIntel,58.82352941,,,,,,,,,,,,587.539,588.535,,,,,,,,,,,,,,,,,,,,,,,,,,588.535,589.134,m,1,0.587,,589.134,589.134,,0,247,247,149,1,150,ince,4045,183.7888,3429,0.3749,4,harmonic,,word,m,,,,,,,
,,,,2023-11-28_11h38.09.014,VH_v3,2023.2.3,MacIntel,58.82352941,,,,,,,,,,,,589.135,590.131,,,,,,,,,,,,,,,,,,,,,,,,,,590.132,590.831,z,1,0.677,,590.831,590.831,,0,248,248,310,1,311,moderp,,,,,6,notharmonic,,nw,z,,,,,,,
,,,,2023-11-28_11h38.09.014,VH_v3,2023.2.3,MacIntel,58.82352941,,,,,,,,,,,,590.831,591.828,,,,,,,,,,,,,,,,,,,,,,,,,,591.828,592.36,m,1,0.512,,592.36,592.36,,0,249,249,47,1,48,kaza,740,33.6227,679,0.0742,4,harmonic,1.85,word,m,,,,,,,
,,,,2023-11-28_11h38.09.014,VH_v3,2023.2.3,MacIntel,58.82352941,,,,,,,,,,,,592.361,593.358,,,,,,,,,,,,,,,,,,,,,,,,,,593.358,593.922,z,1,0.551,,593.922,593.923,,0,250,250,239,1,240,yulçız,,,,,6,harmonic,2.75,nw,z,,,,,,,
,,,,2023-11-28_11h38.09.014,VH_v3,2023.2.3,MacIntel,58.82352941,,,,,,,,,,,,593.923,594.92,,,,,,,,,,,,,,,,,,,,,,,,,,594.92,595.453,m,1,0.512,,595.453,595.453,,0,251,251,5,1,6,bebek,3301,149.9843,2794,0.3054,5,harmonic,1.6,word,m,,,,,,,
,,,,2023-11-28_11h38.09.014,VH_v3,2023.2.3,MacIntel,58.82352941,,,,,,,,,,,,595.454,596.45,,,,,,,,,,,,,,,,,,,,,,,,,,596.45,597.015,m,1,0.544,,597.015,597.015,,0,252,252,68,1,69,ücret,734,33.35,634,0.0693,5,harmonic,1.85,word,m,,,,,,,
,,,,2023-11-28_11h38.09.014,VH_v3,2023.2.3,MacIntel,58.82352941,,,,,,,,,,,,597.016,598.014,,,,,,,,,,,,,,,,,,,,,,,,,,598.014,598.546,m,1,0.511,,598.546,598.546,,0,253,253,173,1,174,koruma,1187,53.9326,1066,0.1165,6,harmonic,,word,m,,,,,,,
,,,,2023-11-28_11h38.09.014,VH_v3,2023.2.3,MacIntel,58.82352941,,,,,,,,,,,,598.546,599.543,,,,,,,,,,,,,,,,,,,,,,,,,,599.543,600.325,z,1,0.768,,600.325,600.325,,0,254,254,245,1,246,mahram,,,,,6,harmonic,1.85,nw,z,,,,,,,
,,,,2023-11-28_11h38.09.014,VH_v3,2023.2.3,MacIntel,58.82352941,,,,,,,,,,,,600.326,601.322,,,,,,,,,,,,,,,,,,,,,,,,,,601.322,601.971,m,1,0.633,,601.971,601.971,,0,255,255,100,1,101,zayıf,1359,61.7476,1285,0.1405,5,harmonic,,word,m,,,,,,,
,,,,2023-11-28_11h38.09.014,VH_v3,2023.2.3,MacIntel,58.82352941,,,,,,,,,,,,601.971,602.969,,,,,,,,,,,,,,,,,,,,,,,,,,602.969,603.65,z,1,0.666,,603.65,603.65,,0,256,256,271,1,272,icazi,,,,,5,notharmonic,1.95,nw,z,,,,,,,
,,,,2023-11-28_11h38.09.014,VH_v3,2023.2.3,MacIntel,58.82352941,,,,,,,,,,,,603.651,604.647,,,,,,,,,,,,,,,,,,,,,,,,,,604.647,605.263,m,0,0.594,,605.263,605.263,,0,257,257,206,1,207,bülse,,,,,5,harmonic,2,nw,z,,,,,,,
,,,,2023-11-28_11h38.09.014,VH_v3,2023.2.3,MacIntel,58.82352941,,,,,,,,,,,,605.264,606.26,,,,,,,,,,,,,,,,,,,,,,,,,,606.261,606.858,m,1,0.578,,606.858,606.859,,0,258,258,150,1,151,ağır,4441,201.7814,3961,0.433,4,harmonic,,word,m,,,,,,,
,,,,2023-11-28_11h38.09.014,VH_v3,2023.2.3,MacIntel,58.82352941,,,,,,,,,,,,606.859,607.857,,,,,,,,,,,,,,,,,,,,,,,,,,607.857,608.488,m,0,0.619,,608.488,608.488,,0,259,259,267,1,268,eşti,,,,,4,harmonic,1.85,nw,z,,,,,,,
,,,,2023-11-28_11h38.09.014,VH_v3,2023.2.3,MacIntel,58.82352941,,,,,,,,,,,,608.489,609.487,,,,,,,,,,,,,,,,,,,,,,,,,,609.487,611.432,z,0,1.932,,611.432,611.432,,0,260,260,65,1,66,fikir,2552,115.9528,2413,0.2638,5,harmonic,1.9,word,m,,,,,,,
,,,,2023-11-28_11h38.09.014,VH_v3,2023.2.3,MacIntel,58.82352941,,,,,,,,,,,,611.433,612.43,,,,,,,,,,,,,,,,,,,,,,,,,,612.43,613.211,m,1,0.763,,613.211,613.211,,0,261,261,52,1,53,resim,2506,113.8627,2188,0.2392,5,harmonic,1.4,word,m,,,,,,,
,,,,2023-11-28_11h38.09.014,VH_v3,2023.2.3,MacIntel,58.82352941,,,,,,,,,,,,613.212,614.209,,,,,,,,,,,,,,,,,,,,,,,,,,614.209,614.94,m,1,0.711,,614.94,614.94,,0,262,262,178,1,179,aykırı,1094,49.707,1022,0.1117,6,harmonic,,word,m,,,,,,,
,,,,2023-11-28_11h38.09.014,VH_v3,2023.2.3,MacIntel,58.82352941,,,,,,,,,,,,614.941,615.937,,,,,,,,,,,,,,,,,,,,,,,,,,615.937,616.719,z,1,0.769,,616.719,616.719,,0,263,263,197,1,198,şortal,,,,,6,harmonic,1.95,nw,z,,,,,,,
,,,,2023-11-28_11h38.09.014,VH_v3,2023.2.3,MacIntel,58.82352941,,,,,,,,,,,,616.719,617.717,,,,,,,,,,,,,,,,,,,,,,,,,,617.717,618.565,z,1,0.835,,618.565,618.565,,0,264,264,336,1,337,zanit,,,,,5,notharmonic,1.85,nw,z,,,,,,,
,,,,2023-11-28_11h38.09.014,VH_v3,2023.2.3,MacIntel,58.82352941,,,,,,,,,,,,618.566,619.563,,,,,,,,,,,,,,,,,,,,,,,,,,619.563,620.261,m,1,0.679,,620.261,620.261,,0,265,265,28,1,29,parlak,1142,51.888,1088,0.1189,6,harmonic,1.7,word,m,,,,,,,
,,,,2023-11-28_11h38.09.014,VH_v3,2023.2.3,MacIntel,58.82352941,,,,,,,,,,,,620.262,621.258,,,,,,,,,,,,,,,,,,,,,,,,,,621.258,621.94,z,1,0.66,,621.94,621.94,,0,266,266,200,1,201,duftu,,,,,5,harmonic,2.5,nw,z,,,,,,,
,,,,2023-11-28_11h38.09.014,VH_v3,2023.2.3,MacIntel,58.82352941,,,,,,,,,,,,621.94,622.938,,,,,,,,,,,,,,,,,,,,,,,,,,622.938,623.935,z,1,0.979,,623.935,623.935,,0,267,267,301,1,302,meyav,,,,,5,notharmonic,1.85,nw,z,,,,,,,
,,,,2023-11-28_11h38.09.014,VH_v3,2023.2.3,MacIntel,58.82352941,,,,,,,,,,,,623.936,624.933,,,,,,,,,,,,,,,,,,,,,,,,,,624.933,625.549,z,1,0.594,,625.549,625.549,,0,268,268,250,1,251,çonsa,,,,,5,harmonic,1.9,nw,z,,,,,,,
,,,,2023-11-28_11h38.09.014,VH_v3,2023.2.3,MacIntel,58.82352941,,,,,,,,,,,,625.549,626.546,,,,,,,,,,,,,,,,,,,,,,,,,,626.546,627.211,z,1,0.645,,627.211,627.211,,0,269,269,353,1,354,medrar,,,,,6,notharmonic,2.05,nw,z,,,,,,,
,,,,2023-11-28_11h38.09.014,VH_v3,2023.2.3,MacIntel,58.82352941,,,,,,,,,,,,627.211,628.208,,,,,,,,,,,,,,,,,,,,,,,,,,628.208,628.941,z,0,0.712,,628.941,628.941,,0,270,270,134,1,135,hanım,3564,161.934,3151,0.3445,5,harmonic,,word,m,,,,,,,
,,,,2023-11-28_11h38.09.014,VH_v3,2023.2.3,MacIntel,58.82352941,,,,,,,,,,,,628.941,629.938,,,,,,,,,,,,,,,,,,,,,,,,,,629.938,630.57,m,1,0.617,,630.57,630.57,,0,271,271,116,1,117,tatlı,5515,250.5797,4949,0.541,5,harmonic,,word,m,,,,,,,
,,,,2023-11-28_11h38.09.014,VH_v3,2023.2.3,MacIntel,58.82352941,,,,,,,,,,,,630.571,631.567,,,,,,,,,,,,,,,,,,,,,,,,,,631.567,632.266,z,1,0.677,,632.266,632.267,,0,272,272,284,1,285,zebap,,,,,5,notharmonic,1.8,nw,z,,,,,,,
,,,,2023-11-28_11h38.09.014,VH_v3,2023.2.3,MacIntel,58.82352941,,,,,,,,,,,,632.267,633.264,,,,,,,,,,,,,,,,,,,,,,,,,,633.264,634.061,z,1,0.787,,634.061,634.061,,0,273,273,286,1,287,elsaf,,,,,5,notharmonic,1.9,nw,z,,,,,,,
,,,,2023-11-28_11h38.09.014,VH_v3,2023.2.3,MacIntel,58.82352941,,,,,,,,,,,,634.062,635.059,,,,,,,,,,,,,,,,,,,,,,,,,,635.059,636.189,z,1,1.119,,636.189,636.19,,0,274,274,256,1,257,ulosız,,,,,6,harmonic,3,nw,z,,,,,,,
,,,,2023-11-28_11h38.09.014,VH_v3,2023.2.3,MacIntel,58.82352941,,,,,,,,,,,,636.19,637.188,,,,,,,,,,,,,,,,,,,,,,,,,,637.188,637.902,m,1,0.694,,637.902,637.902,,0,275,275,32,1,33,temel,4231,192.2399,3851,0.421,5,harmonic,1.55,word,m,,,,,,,
,,,,2023-11-28_11h38.09.014,VH_v3,2023.2.3,MacIntel,58.82352941,,,,,,,,,,,,637.903,638.901,,,,,,,,,,,,,,,,,,,,,,,,,,638.901,639.648,m,1,0.725,,639.648,639.648,,0,276,276,8,1,9,güven,1433,65.1098,1300,0.1421,5,harmonic,1.35,word,m,,,,,,,
,,,,2023-11-28_11h38.09.014,VH_v3,2023.2.3,MacIntel,58.82352941,,,,,,,,,,,,639.648,640.646,,,,,,,,,,,,,,,,,,,,,,,,,,640.646,641.179,m,1,0.512,,641.179,641.179,,0,277,277,175,1,176,gündüz,1167,53.0239,1088,0.1189,6,harmonic,,word,m,,,,,,,
,,,,2023-11-28_11h38.09.014,VH_v3,2023.2.3,MacIntel,58.82352941,,,,,,,,,,,,641.179,642.176,,,,,,,,,,,,,,,,,,,,,,,,,,642.176,643.107,z,1,0.911,,643.108,643.108,,0,278,278,193,1,194,şıkta,,,,,5,harmonic,2,nw,z,,,,,,,
,,,,2023-11-28_11h38.09.014,VH_v3,2023.2.3,MacIntel,58.82352941,,,,,,,,,,,,643.108,644.105,,,,,,,,,,,,,,,,,,,,,,,,,,644.105,644.852,z,1,0.729,,644.852,644.852,,0,279,279,340,1,341,zizon,,,,,5,notharmonic,1.85,nw,z,,,,,,,
,,,,2023-11-28_11h38.09.014,VH_v3,2023.2.3,MacIntel,58.82352941,,,,,,,,,,,,644.853,645.85,,,,,,,,,,,,,,,,,,,,,,,,,,645.85,646.666,m,1,0.795,,646.666,646.666,,0,280,280,145,1,146,ilgi,2144,97.4149,2041,0.2231,4,harmonic,,word,m,,,,,,,
,,,,2023-11-28_11h38.09.014,VH_v3,2023.2.3,MacIntel,58.82352941,,,,,,,,,,,,646.666,647.663,,,,,,,,,,,,,,,,,,,,,,,,,,647.663,648.361,m,1,0.683,,648.361,648.361,,0,281,281,132,1,133,soğuk,3676,167.0229,3359,0.3672,5,harmonic,,word,m,,,,,,,
,,,,2023-11-28_11h38.09.014,VH_v3,2023.2.3,MacIntel,58.82352941,,,,,,,,,,,,648.362,649.359,,,,,,,,,,,,,,,,,,,,,,,,,,649.359,649.891,m,1,0.514,,649.891,649.891,,0,282,282,81,1,82,üretim,1593,72.3796,1283,0.1403,6,harmonic,1.6,word,m,,,,,,,
,,,,2023-11-28_11h38.09.014,VH_v3,2023.2.3,MacIntel,58.82352941,,,,,,,,,,,,649.892,650.889,,,,,,,,,,,,,,,,,,,,,,,,,,650.889,651.637,z,1,0.729,,651.637,651.637,,0,283,283,327,1,328,zena,,,,,4,notharmonic,1.65,nw,z,,,,,,,
,,,,2023-11-28_11h38.09.014,VH_v3,2023.2.3,MacIntel,58.82352941,,,,,,,,,,,,651.638,652.634,,,,,,,,,,,,,,,,,,,,,,,,,,652.634,653.333,m,1,0.687,,653.333,653.333,,0,284,284,35,1,36,hava,4975,226.0443,4398,0.4808,4,harmonic,1,word,m,,,,,,,
,,,,2023-11-28_11h38.09.014,VH_v3,2023.2.3,MacIntel,58.82352941,,,,,,,,,,,,653.334,654.331,,,,,,,,,,,,,,,,,,,,,,,,,,654.331,654.995,m,1,0.643,,654.995,654.995,,0,285,285,88,1,89,yalnız,5891,267.6637,5440,0.5947,6,harmonic,1.6,word,m,,,,,,,
,,,,2023-11-28_11h38.09.014,VH_v3,2023.2.3,MacIntel,58.82352941,,,,,,,,,,,,654.996,655.994,,,,,,,,,,,,,,,,,,,,,,,,,,655.994,656.724,z,1,0.712,,656.725,656.725,,0,286,286,276,1,277,dapel,,,,,5,notharmonic,1.9,nw,z,,,,,,,
,,,,2023-11-28_11h38.09.014,VH_v3,2023.2.3,MacIntel,58.82352941,,,,,,,,,,,,656.725,657.723,,,,,,,,,,,,,,,,,,,,,,,,,,657.723,658.703,z,1,0.969,,658.704,658.704,,0,287,287,270,1,271,sarip,,,,,5,notharmonic,1.65,nw,z,,,,,,,
,,,,2023-11-28_11h38.09.014,VH_v3,2023.2.3,MacIntel,58.82352941,,,,,,,,,,,,658.704,659.701,,,,,,,,,,,,,,,,,,,,,,,,,,659.701,660.366,m,1,0.644,,660.366,660.366,,0,288,288,161,1,162,servis,3344,151.9381,2968,0.3245,6,harmonic,,word,m,,,,,,,
,,,,2023-11-28_11h38.09.014,VH_v3,2023.2.3,MacIntel,58.82352941,,,,,,,,,,,,660.366,661.364,,,,,,,,,,,,,,,,,,,,,,,,,,661.364,662.062,m,1,0.686,,662.062,662.062,,0,289,289,43,1,44,geniş,3380,153.5738,3185,0.3482,5,harmonic,1.35,word,m,,,,,,,
,,,,2023-11-28_11h38.09.014,VH_v3,2023.2.3,MacIntel,58.82352941,,,,,,,,,,,,662.062,663.059,,,,,,,,,,,,,,,,,,,,,,,,,,663.059,663.808,m,1,0.727,,663.808,663.809,,0,290,290,121,1,122,şeker,4708,213.9128,4170,0.4559,5,harmonic,,word,m,,,,,,,
,,,,2023-11-28_11h38.09.014,VH_v3,2023.2.3,MacIntel,58.82352941,,,,,,,,,,,,663.809,664.808,,,,,,,,,,,,,,,,,,,,,,,,,,664.808,665.438,m,1,0.609,,665.438,665.438,,0,291,291,73,1,74,millet,1658,75.3329,1508,0.1649,6,harmonic,1.7,word,m,,,,,,,
,,,,2023-11-28_11h38.09.014,VH_v3,2023.2.3,MacIntel,58.82352941,,,,,,,,,,,,665.439,666.435,,,,,,,,,,,,,,,,,,,,,,,,,,666.435,667.284,m,1,0.833,,667.284,667.284,,0,292,292,107,1,108,sivil,1334,60.6117,1151,0.1258,5,harmonic,,word,m,,,,,,,
,,,,2023-11-28_11h38.09.014,VH_v3,2023.2.3,MacIntel,58.82352941,,,,,,,,,,,,667.284,668.281,,,,,,,,,,,,,,,,,,,,,,,,,,668.281,668.946,z,1,0.649,,668.946,668.946,,0,293,293,232,1,233,çemek,,,,,5,harmonic,1.5,nw,z,,,,,,,
,,,,2023-11-28_11h38.09.014,VH_v3,2023.2.3,MacIntel,58.82352941,,,,,,,,,,,,668.946,669.944,,,,,,,,,,,,,,,,,,,,,,,,,,669.944,671.939,,0,,,671.94,671.94,,0,294,294,288,1,289,talif,,,,,5,notharmonic,1.5,nw,z,,,,,,,
,,,,2023-11-28_11h38.09.014,VH_v3,2023.2.3,MacIntel,58.82352941,,,,,,,,,,,,671.94,672.936,,,,,,,,,,,,,,,,,,,,,,,,,,672.937,673.818,m,1,0.866,,673.818,673.819,,0,295,295,167,1,168,yoğurt,1484,67.4271,1359,0.1486,6,harmonic,,word,m,,,,,,,
,,,,2023-11-28_11h38.09.014,VH_v3,2023.2.3,MacIntel,58.82352941,,,,,,,,,,,,673.819,674.816,,,,,,,,,,,,,,,,,,,,,,,,,,674.816,675.696,z,1,0.867,,675.696,675.696,,0,296,296,227,1,228,temzik,,,,,6,harmonic,1.9,nw,z,,,,,,,
,,,,2023-11-28_11h38.09.014,VH_v3,2023.2.3,MacIntel,58.82352941,,,,,,,,,,,,675.697,676.694,,,,,,,,,,,,,,,,,,,,,,,,,,676.694,677.293,m,1,0.579,,677.293,677.294,,0,297,297,4,1,5,metre,1156,52.5241,1015,0.111,5,harmonic,1.7,word,m,,,,,,,
,,,,2023-11-28_11h38.09.014,VH_v3,2023.2.3,MacIntel,58.82352941,,,,,,,,,,,,677.294,678.291,,,,,,,,,,,,,,,,,,,,,,,,,,678.291,678.806,z,1,0.502,,678.806,678.806,,0,298,298,333,1,334,uleç,,,,,4,notharmonic,1.95,nw,z,,,,,,,
,,,,2023-11-28_11h38.09.014,VH_v3,2023.2.3,MacIntel,58.82352941,,,,,,,,,,,,678.806,679.803,,,,,,,,,,,,,,,,,,,,,,,,,,679.803,680.618,m,1,0.8,,680.618,680.619,,0,299,299,142,1,143,aşık,2464,111.9544,2129,0.2327,4,harmonic,,word,m,,,,,,,
,,,,2023-11-28_11h38.09.014,VH_v3,2023.2.3,MacIntel,58.82352941,,,,,,,,,,,,680.619,681.617,,,,,,,,,,,,,,,,,,,,,,,,,,681.617,682.531,m,1,0.897,,682.531,682.532,,0,300,300,157,1,158,eğitim,4784,217.366,3846,0.4204,6,harmonic,,word,m,,,,,,,
,,,,2023-11-28_11h38.09.014,VH_v3,2023.2.3,MacIntel,58.82352941,,,,,,,,,,,,682.532,683.528,,,,,,,,,,,,,,,,,,,,,,,,,,683.528,684.259,m,1,0.71,,684.259,684.26,,0,301,301,39,1,40,yaygın,1061,48.2076,1019,0.1114,6,harmonic,1.35,word,m,,,,,,,
,,,,2023-11-28_11h38.09.014,VH_v3,2023.2.3,MacIntel,58.82352941,,,,,,,,,,,,684.26,685.258,,,,,,,,,,,,,,,,,,,,,,,,,,685.258,685.772,m,1,0.496,,685.772,685.773,,0,302,302,79,1,80,durum,6783,308.1926,6431,0.703,5,harmonic,1.7,word,m,,,,,,,
,,,,2023-11-28_11h38.09.014,VH_v3,2023.2.3,MacIntel,58.82352941,,,,,,,,,,,,685.773,686.771,,,,,,,,,,,,,,,,,,,,,,,,,,686.771,687.569,z,1,0.777,,687.569,687.569,,0,303,303,255,1,256,ubar,,,,,4,harmonic,1.7,nw,z,,,,,,,
,,,,2023-11-28_11h38.09.014,VH_v3,2023.2.3,MacIntel,58.82352941,,,,,,,,,,,,687.57,688.566,,,,,,,,,,,,,,,,,,,,,,,,,,688.566,690.562,,0,,,690.562,690.562,,0,304,304,297,1,298,şasep,,,,,5,notharmonic,1.9,nw,z,,,,,,,
,,,,2023-11-28_11h38.09.014,VH_v3,2023.2.3,MacIntel,58.82352941,,,,,,,,,,,,690.562,691.559,,,,,,,,,,,,,,,,,,,,,,,,,,691.559,692.375,z,1,0.8,,692.375,692.375,,0,305,305,201,1,202,azlaş,,,,,5,harmonic,1.8,nw,z,,,,,,,
,,,,2023-11-28_11h38.09.014,VH_v3,2023.2.3,MacIntel,58.82352941,,,,,,,,,,,,692.375,693.372,,,,,,,,,,,,,,,,,,,,,,,,,,693.372,694.17,z,1,0.783,,694.17,694.17,,0,306,306,308,1,309,tasnin,,,,,6,notharmonic,1.85,nw,z,,,,,,,
,,,,2023-11-28_11h38.09.014,VH_v3,2023.2.3,MacIntel,58.82352941,,,,,,,,,,,,694.171,695.168,,,,,,,,,,,,,,,,,,,,,,,,,,695.168,695.833,m,1,0.652,,695.833,695.833,,0,307,307,111,1,112,soğan,1315,59.7484,1202,0.1314,5,harmonic,,word,m,,,,,,,
,,,,2023-11-28_11h38.09.014,VH_v3,2023.2.3,MacIntel,58.82352941,,,,,,,,,,,,695.834,696.83,,,,,,,,,,,,,,,,,,,,,,,,,,696.83,697.529,z,1,0.679,,697.529,697.529,,0,308,308,344,1,345,adalüt,,,,,6,notharmonic,,nw,z,,,,,,,
,,,,2023-11-28_11h38.09.014,VH_v3,2023.2.3,MacIntel,58.82352941,,,,,,,,,,,,697.529,698.527,,,,,,,,,,,,,,,,,,,,,,,,,,698.527,699.208,m,1,0.671,,699.208,699.208,,0,309,309,3,1,4,minik,2916,132.4915,2594,0.2836,5,harmonic,1.6,word,m,,,,,,,
,,,,2023-11-28_11h38.09.014,VH_v3,2023.2.3,MacIntel,58.82352941,,,,,,,,,,,,699.209,700.206,,,,,,,,,,,,,,,,,,,,,,,,,,700.206,700.92,z,1,0.702,,700.92,700.921,,0,310,310,212,1,213,toya,,,,,4,harmonic,1.6,nw,z,,,,,,,
,,,,2023-11-28_11h38.09.014,VH_v3,2023.2.3,MacIntel,58.82352941,,,,,,,,,,,,700.921,701.918,,,,,,,,,,,,,,,,,,,,,,,,,,701.918,702.633,m,1,0.703,,702.633,702.633,,0,311,311,50,1,51,kanun,1198,54.4324,1010,0.1104,5,harmonic,1.6,word,m,,,,,,,
,,,,2023-11-28_11h38.09.014,VH_v3,2023.2.3,MacIntel,58.82352941,,,,,,,,,,,,702.633,703.631,,,,,,,,,,,,,,,,,,,,,,,,,,703.631,704.179,m,1,0.535,,704.179,704.179,,0,312,312,138,1,139,yazar,3175,144.2594,2877,0.3145,5,harmonic,,word,m,,,,,,,
,,,,2023-11-28_11h38.09.014,VH_v3,2023.2.3,MacIntel,58.82352941,,,,,,,,,,,,704.18,705.178,,,,,,,,,,,,,,,,,,,,,,,,,,705.178,705.643,m,1,0.446,,705.643,705.643,,0,313,313,130,1,131,sonuç,3768,171.203,3626,0.3964,5,harmonic,,word,m,,,,,,,
,,,,2023-11-28_11h38.09.014,VH_v3,2023.2.3,MacIntel,58.82352941,,,,,,,,,,,,705.644,706.64,,,,,,,,,,,,,,,,,,,,,,,,,,706.64,707.339,z,1,0.676,,707.339,707.34,,0,314,314,303,1,304,hahir,,,,,5,notharmonic,1.55,nw,z,,,,,,,
,,,,2023-11-28_11h38.09.014,VH_v3,2023.2.3,MacIntel,58.82352941,,,,,,,,,,,,707.34,708.336,,,,,,,,,,,,,,,,,,,,,,,,,,708.336,708.919,m,0,0.561,,708.919,708.919,,0,315,315,220,1,221,lingin,,,,,6,harmonic,1.85,nw,z,,,,,,,
,,,,2023-11-28_11h38.09.014,VH_v3,2023.2.3,MacIntel,58.82352941,,,,,,,,,,,,708.92,709.917,,,,,,,,,,,,,,,,,,,,,,,,,,709.917,710.548,z,0,0.615,,710.548,710.548,,0,316,316,166,1,167,tespit,1929,87.6461,1745,0.1908,6,harmonic,,word,m,,,,,,,
,,,,2023-11-28_11h38.09.014,VH_v3,2023.2.3,MacIntel,58.82352941,,,,,,,,,,,,710.549,711.546,,,,,,,,,,,,,,,,,,,,,,,,,,711.546,712.244,m,1,0.686,,712.244,712.244,,0,317,317,24,1,25,yorgun,1153,52.3877,1108,0.1211,6,harmonic,1.55,word,m,,,,,,,
,,,,2023-11-28_11h38.09.014,VH_v3,2023.2.3,MacIntel,58.82352941,,,,,,,,,,,,712.245,713.242,,,,,,,,,,,,,,,,,,,,,,,,,,713.242,714.007,z,1,0.748,,714.007,714.007,,0,318,318,321,1,322,kibas,,,,,5,notharmonic,1.9,nw,z,,,,,,,
,,,,2023-11-28_11h38.09.014,VH_v3,2023.2.3,MacIntel,58.82352941,,,,,,,,,,,,714.008,715.005,,,,,,,,,,,,,,,,,,,,,,,,,,715.005,715.47,m,1,0.444,,715.47,715.47,,0,319,319,95,1,96,koyun,1431,65.019,1292,0.1412,5,harmonic,,word,m,,,,,,,
,,,,2023-11-28_11h38.09.014,VH_v3,2023.2.3,MacIntel,58.82352941,,,,,,,,,,,,715.47,716.468,,,,,,,,,,,,,,,,,,,,,,,,,,716.468,717.033,m,1,0.553,,717.033,717.033,,0,320,320,59,1,60,köpek,1044,47.4352,901,0.0985,5,harmonic,1.75,word,m,,,,,,,
,,,,2023-11-28_11h38.09.014,VH_v3,2023.2.3,MacIntel,58.82352941,,,,,,,,,,,,717.033,718.03,,,,,,,,,,,,,,,,,,,,,,,,,,718.03,718.812,m,1,0.763,,718.812,718.812,,0,321,321,69,1,70,forma,719,32.6685,597,0.0653,5,harmonic,1.8,word,m,,,,,,,
,,,,2023-11-28_11h38.09.014,VH_v3,2023.2.3,MacIntel,58.82352941,,,,,,,,,,,,718.813,719.809,,,,,,,,,,,,,,,,,,,,,,,,,,719.809,720.741,m,1,0.917,,720.741,720.741,,0,322,322,76,1,77,ilişki,1675,76.1054,1524,0.1666,6,harmonic,1.8,word,m,,,,,,,
,,,,2023-11-28_11h38.09.014,VH_v3,2023.2.3,MacIntel,58.82352941,,,,,,,,,,,,720.741,721.739,,,,,,,,,,,,,,,,,,,,,,,,,,721.739,722.304,m,1,0.543,,722.304,722.304,,0,323,323,109,1,110,dalga,1307,59.3849,1117,0.1221,5,harmonic,,word,m,,,,,,,
,,,,2023-11-28_11h38.09.014,VH_v3,2023.2.3,MacIntel,58.82352941,,,,,,,,,,,,722.305,723.301,,,,,,,,,,,,,,,,,,,,,,,,,,723.301,724.083,z,1,0.76,,724.083,724.083,,0,324,324,225,1,226,sakam,,,,,5,harmonic,1.45,nw,z,,,,,,,
,,,,2023-11-28_11h38.09.014,VH_v3,2023.2.3,MacIntel,58.82352941,,,,,,,,,,,,724.084,725.08,,,,,,,,,,,,,,,,,,,,,,,,,,725.08,726.012,z,1,0.918,,726.012,726.012,,0,325,325,291,1,292,kasge,,,,,5,notharmonic,2,nw,z,,,,,,,
,,,,2023-11-28_11h38.09.014,VH_v3,2023.2.3,MacIntel,58.82352941,,,,,,,,,,,,726.012,727.009,,,,,,,,,,,,,,,,,,,,,,,,,,727.009,727.84,z,1,0.818,,727.84,727.841,,0,326,326,334,1,335,mecda,,,,,5,notharmonic,1.95,nw,z,,,,,,,
,,,,2023-11-28_11h38.09.014,VH_v3,2023.2.3,MacIntel,58.82352941,,,,,,,,,,,,727.841,728.838,,,,,,,,,,,,,,,,,,,,,,,,,,728.838,729.52,z,1,0.672,,729.521,729.521,,0,327,327,309,1,310,yanele,,,,,6,notharmonic,1.85,nw,z,,,,,,,
,,,,2023-11-28_11h38.09.014,VH_v3,2023.2.3,MacIntel,58.82352941,,,,,,,,,,,,729.521,730.518,,,,,,,,,,,,,,,,,,,,,,,,,,730.518,731.099,z,1,0.561,,731.099,731.099,,0,328,328,191,1,192,unot,,,,,4,harmonic,1.85,nw,z,,,,,,,
,,,,2023-11-28_11h38.09.014,VH_v3,2023.2.3,MacIntel,58.82352941,,,,,,,,,,,,731.1,732.098,,,,,,,,,,,,,,,,,,,,,,,,,,732.098,733.195,z,1,1.077,,733.195,733.195,,0,329,329,252,1,253,savanı,,,,,6,harmonic,1.85,nw,z,,,,,,,
,,,,2023-11-28_11h38.09.014,VH_v3,2023.2.3,MacIntel,58.82352941,,,,,,,,,,,,733.196,734.193,,,,,,,,,,,,,,,,,,,,,,,,,,734.193,734.991,z,1,0.777,,734.991,734.991,,0,330,330,189,1,190,kanak,,,,,5,harmonic,1.1,nw,z,,,,,,,
,,,,2023-11-28_11h38.09.014,VH_v3,2023.2.3,MacIntel,58.82352941,,,,,,,,,,,,734.992,735.987,,,,,,,,,,,,,,,,,,,,,,,,,,735.988,736.736,z,1,0.731,,736.737,736.737,,0,331,331,233,1,234,alıt,,,,,4,harmonic,1.15,nw,z,,,,,,,
,,,,2023-11-28_11h38.09.014,VH_v3,2023.2.3,MacIntel,58.82352941,,,,,,,,,,,,736.737,737.734,,,,,,,,,,,,,,,,,,,,,,,,,,737.734,738.416,z,1,0.662,,738.416,738.416,,0,332,332,311,1,312,mase,,,,,4,notharmonic,1.75,nw,z,,,,,,,
,,,,2023-11-28_11h38.09.014,VH_v3,2023.2.3,MacIntel,58.82352941,,,,,,,,,,,,738.417,739.413,,,,,,,,,,,,,,,,,,,,,,,,,,739.413,740.145,m,1,0.719,,740.145,740.145,,0,333,333,72,1,73,çorba,1674,76.0599,1513,0.1654,5,harmonic,1.75,word,m,,,,,,,
,,,,2023-11-28_11h38.09.014,VH_v3,2023.2.3,MacIntel,58.82352941,,,,,,,,,,,,740.146,741.142,,,,,,,,,,,,,,,,,,,,,,,,,,741.142,741.707,m,1,0.543,,741.707,741.707,,0,334,334,26,1,27,sebze,1094,49.707,961,0.1051,5,harmonic,1.9,word,m,,,,,,,
,,,,2023-11-28_11h38.09.014,VH_v3,2023.2.3,MacIntel,58.82352941,,,,,,,,,,,,741.708,742.706,,,,,,,,,,,,,,,,,,,,,,,,,,742.706,743.653,z,1,0.925,,743.653,743.653,,0,335,335,300,1,301,iştal,,,,,5,notharmonic,1.8,nw,z,,,,,,,
,,,,2023-11-28_11h38.09.014,VH_v3,2023.2.3,MacIntel,58.82352941,,,,,,,,,,,,743.654,744.651,,,,,,,,,,,,,,,,,,,,,,,,,,744.651,745.448,m,1,0.785,,745.449,745.449,,0,336,336,71,1,72,örnek,3463,157.345,3266,0.357,5,harmonic,1.85,word,m,,,,,,,
,,,,2023-11-28_11h38.09.014,VH_v3,2023.2.3,MacIntel,58.82352941,,,,,,,,,,,,745.449,746.447,,,,,,,,,,,,,,,,,,,,,,,,,,746.447,747.461,m,1,0.992,,747.461,747.461,,0,337,337,147,1,148,dizi,1995,90.6449,1689,0.1846,4,harmonic,,word,m,,,,,,,
,,,,2023-11-28_11h38.09.014,VH_v3,2023.2.3,MacIntel,58.82352941,,,,,,,,,,,,747.462,748.459,,,,,,,,,,,,,,,,,,,,,,,,,,748.459,749.124,z,1,0.644,,749.124,749.124,,0,338,338,194,1,195,yabum,,,,,5,harmonic,2,nw,z,,,,,,,
,,,,2023-11-28_11h38.09.014,VH_v3,2023.2.3,MacIntel,58.82352941,,,,,,,,,,,,749.125,750.121,,,,,,,,,,,,,,,,,,,,,,,,,,750.121,750.953,z,1,0.813,,750.953,750.953,,0,339,339,330,1,331,tevaze,,,,,6,notharmonic,2.05,nw,z,,,,,,,
,,,,2023-11-28_11h38.09.014,VH_v3,2023.2.3,MacIntel,58.82352941,,,,,,,,,,,,750.953,751.95,,,,,,,,,,,,,,,,,,,,,,,,,,751.95,752.665,z,1,0.695,,752.665,752.665,,0,340,340,187,1,188,hücmet,,,,,6,harmonic,1.85,nw,z,,,,,,,
,,,,2023-11-28_11h38.09.014,VH_v3,2023.2.3,MacIntel,58.82352941,,,,,,,,,,,,752.666,753.664,,,,,,,,,,,,,,,,,,,,,,,,,,753.664,754.178,z,1,0.494,,754.178,754.178,,0,341,341,317,1,318,zila,,,,,4,notharmonic,1.65,nw,z,,,,,,,
,,,,2023-11-28_11h38.09.014,VH_v3,2023.2.3,MacIntel,58.82352941,,,,,,,,,,,,754.179,755.176,,,,,,,,,,,,,,,,,,,,,,,,,,755.176,755.708,z,1,0.518,,755.708,755.708,,0,342,342,268,1,269,hayot,,,,,5,harmonic,,nw,z,,,,,,,
,,,,2023-11-28_11h38.09.014,VH_v3,2023.2.3,MacIntel,58.82352941,,,,,,,,,,,,755.708,756.706,,,,,,,,,,,,,,,,,,,,,,,,,,756.706,757.437,z,1,0.717,,757.437,757.437,,0,343,343,356,1,357,ated,,,,,4,notharmonic,,nw,z,,,,,,,
,,,,2023-11-28_11h38.09.014,VH_v3,2023.2.3,MacIntel,58.82352941,,,,,,,,,,,,757.438,758.435,,,,,,,,,,,,,,,,,,,,,,,,,,758.435,759.033,m,1,0.578,,759.033,759.033,,0,344,344,115,1,116,uygun,6757,307.0113,6297,0.6884,5,harmonic,,word,m,,,,,,,
,,,,2023-11-28_11h38.09.014,VH_v3,2023.2.3,MacIntel,58.82352941,,,,,,,,,,,,759.034,760.032,,,,,,,,,,,,,,,,,,,,,,,,,,760.032,760.896,m,1,0.846,,760.896,760.897,,0,345,345,113,1,114,akşam,7480,339.8615,6833,0.747,5,harmonic,,word,m,,,,,,,
,,,,2023-11-28_11h38.09.014,VH_v3,2023.2.3,MacIntel,58.82352941,,,,,,,,,,,,760.897,761.894,,,,,,,,,,,,,,,,,,,,,,,,,,761.894,762.559,z,1,0.645,,762.56,762.56,,0,346,346,205,1,206,sefbe,,,,,5,harmonic,2,nw,z,,,,,,,
,,,,2023-11-28_11h38.09.014,VH_v3,2023.2.3,MacIntel,58.82352941,,,,,,,,,,,,762.56,763.556,,,,,,,,,,,,,,,,,,,,,,,,,,763.556,764.388,z,1,0.817,,764.388,764.388,,0,347,347,236,1,237,abar,,,,,4,harmonic,1.1,nw,z,,,,,,,
,,,,2023-11-28_11h38.09.014,VH_v3,2023.2.3,MacIntel,58.82352941,,,,,,,,,,,,764.389,765.386,,,,,,,,,,,,,,,,,,,,,,,,,,765.386,766.266,z,1,0.868,,766.266,766.267,,0,348,348,273,1,274,sisaf,,,,,5,notharmonic,2,nw,z,,,,,,,
,,,,2023-11-28_11h38.09.014,VH_v3,2023.2.3,MacIntel,58.82352941,,,,,,,,,,,,766.267,767.264,,,,,,,,,,,,,,,,,,,,,,,,,,767.264,767.747,m,1,0.468,,767.747,767.747,,0,349,349,156,1,157,sosyal,5290,240.3566,4372,0.4779,6,harmonic,,word,m,,,,,,,
,,,,2023-11-28_11h38.09.014,VH_v3,2023.2.3,MacIntel,58.82352941,,,,,,,,,,,,767.747,768.745,,,,,,,,,,,,,,,,,,,,,,,,,,768.745,769.342,m,1,0.577,,769.343,769.343,,0,350,350,106,1,107,sağlık,8866,402.8359,8289,0.9062,5,harmonic,,word,m,,,,,,,
,,,,2023-11-28_11h38.09.014,VH_v3,2023.2.3,MacIntel,58.82352941,,,,,,,,,,,,769.343,770.341,,,,,,,,,,,,,,,,,,,,,,,,,,770.341,770.856,m,1,0.503,,770.856,770.856,,0,351,351,84,1,85,ülke,3121,141.8059,2801,0.3062,4,harmonic,1.65,word,m,,,,,,,
,,,,2023-11-28_11h38.09.014,VH_v3,2023.2.3,MacIntel,58.82352941,,,,,,,,,,,,770.856,771.854,,,,,,,,,,,,,,,,,,,,,,,,,,771.854,772.352,m,1,0.487,,772.352,772.353,,0,352,352,64,1,65,lise,888,40.3472,816,0.0892,4,harmonic,1.5,word,m,,,,,,,
,,,,2023-11-28_11h38.09.014,VH_v3,2023.2.3,MacIntel,58.82352941,,,,,,,,,,,,772.353,773.35,,,,,,,,,,,,,,,,,,,,,,,,,,773.35,774.265,m,1,0.894,,774.265,774.265,,0,353,353,99,1,100,çocuk,10612,482.1672,8979,0.9816,5,harmonic,,word,m,,,,,,,
,,,,2023-11-28_11h38.09.014,VH_v3,2023.2.3,MacIntel,58.82352941,,,,,,,,,,,,774.266,775.262,,,,,,,,,,,,,,,,,,,,,,,,,,775.263,775.978,z,1,0.695,,775.978,775.978,,0,354,354,219,1,220,tefsi,,,,,5,harmonic,1.8,nw,z,,,,,,,
,,,,2023-11-28_11h38.09.014,VH_v3,2023.2.3,MacIntel,58.82352941,,,,,,,,,,,,775.978,776.975,,,,,,,,,,,,,,,,,,,,,,,,,,776.975,778.971,,0,,,778.971,778.971,,0,355,355,17,1,18,yakın,7990,363.0339,7595,0.8303,5,harmonic,1.8,word,m,,,,,,,
,,,,2023-11-28_11h38.09.014,VH_v3,2023.2.3,MacIntel,58.82352941,,,,,,,,,,,,778.971,779.968,,,,,,,,,,,,,,,,,,,,,,,,,,779.968,780.532,m,1,0.545,,780.533,780.533,,0,356,356,56,1,57,sağlam,1818,82.6027,1720,0.188,6,harmonic,1.6,word,m,,,,,,,
,,,,2023-11-28_11h38.09.014,VH_v3,2023.2.3,MacIntel,58.82352941,,,,,,,,,,,,780.533,781.53,,,,,,,,,,,,,,,,,,,,,,,,,,781.531,781.963,m,1,0.421,,781.963,781.963,,0,357,357,97,1,98,kadın,10751,488.4828,8665,0.9473,5,harmonic,,word,m,,,,,,,
,,,,2023-11-28_11h38.09.014,VH_v3,2023.2.3,MacIntel,58.82352941,,,,,,,,,,,,781.964,782.961,,,,,,,,,,,,,,,,,,,,,,,,,,782.961,784.324,m,1,1.341,,784.324,784.324,,0,358,358,51,1,52,ilginç,2803,127.3572,2690,0.2941,6,harmonic,1.8,word,m,,,,,,,
,,,,2023-11-28_11h38.09.014,VH_v3,2023.2.3,MacIntel,58.82352941,,,,,,,,,,,,784.324,785.321,,,,,,,,,,,,,,,,,,,,,,,,,,785.321,786.02,z,1,0.678,,786.02,786.021,,0,359,359,306,1,307,napare,,,,,6,notharmonic,2.15,nw,z,,,,,,,
,,,,2023-11-28_11h38.09.014,VH_v3,2023.2.3,MacIntel,58.82352941,,,,,,,,,,,,,,,,,,,,,,,,,,,,,,,,,,,,,,,,,,,,,,,,,,,,,,,,,,,,,,,,,,786.021,788.133,space,2.098,