anket.started,anket.stopped,participant,session,date,expName,psychopyVersion,OS,frameRate,Welcome_screen.started,Welcome_screen.stopped,key_respwelcome.keys,key_respwelcome.rt,key_respwelcome.duration,intro_x.thisRepN,intro_x.thisTrialN,intro_x.thisN,intro_x.thisIndex,intro_x.ran,Introduction,Fixation.started,Fixation.stopped,Studypractice.started,Studypractice.stopped,key_respstudy.keys,key_respstudy.corr,key_respstudy.rt,key_respstudy.duration,rt,corr,Feedback.started,Feedback.stopped,practice_loop.thisRepN,practice_loop.thisTrialN,practice_loop.thisN,practice_loop.thisIndex,practice_loop.ran,item_nr_p,target_p,isHarmonic_p,target_cond_p,CorrAns_p,Instraction.started,Instraction.stopped,key_respınstraction.keys,key_respınstraction.rt,key_respınstraction.duration,TestTrial.started,TestTrial.stopped,key_respTest.keys,key_respTest.corr,key_respTest.rt,key_respTest.duration,Pause.started,Pause.stopped,key_resp_xx.keys,test_loop.thisRepN,test_loop.thisTrialN,test_loop.thisN,test_loop.thisIndex,test_loop.ran,item_nr,target,BlogFreq_A1,BlogFreqpm_A1,BlogCD_A1,BlogCDPc_A1,WordLength_A1,isHarmonic_A1,old20,target_cond,CorrAns,key_resp_xx.rt,key_resp_xx.duration,Goodbye_screen.started,Goodbye_screen.stopped,key_respgoodbye.keys,key_respgoodbye.rt,key_respgoodbye.duration
0.0005,0.0009,,,2023-11-28_01h10.21.305,VH_v3,2023.2.3,Win32,59.98440405,,,,,,,,,,,,,,,,,,,,,,,,,,,,,,,,,,,,,,,,,,,,,,,,,,,,,,,,,,,,,,,,,,,,,,
,,,,2023-11-28_01h10.21.305,VH_v3,2023.2.3,Win32,59.98440405,0.0329,3.4464,space,3.3939,,0,0,0,0,1,"Deneye hoş geldiniz,

Devam etmek için BOŞLUK tuşuna basınız.",,,,,,,,,,,,,,,,,,,,,,,,,,,,,,,,,,,,,,,,,,,,,,,,,,,,,,,,,,,
,,,,2023-11-28_01h10.21.305,VH_v3,2023.2.3,Win32,59.98440405,3.4468,5.0653,space,1.599,,0,1,1,1,1,"Bu çalışma Valencia Üniversitesi kapsamında yürütülmektedir. Deneydeki göreviniz, ekrana çıkacak Türkçe sözcüklerin kelime olup olmadığını belirlemenizdir. Eğer sözcük gerçek bir kelime ise ""m"" tuşuna, değil ise ""z"" tuşuna basınız.   

Devam etmek için BOŞLUK tuşuna basınız.",,,,,,,,,,,,,,,,,,,,,,,,,,,,,,,,,,,,,,,,,,,,,,,,,,,,,,,,,,,
,,,,2023-11-28_01h10.21.305,VH_v3,2023.2.3,Win32,59.98440405,5.0657,7.5283,space,2.4457,,0,2,2,2,1,"Her sözcük için en fazla iki saniyede cevap vermeniz beklenmektedir. Aksi takdirde deney bir sonraki sözcük ile devam eder. 
Bu çalışmada oldukça hızlı ve doğru cevaplama yapmanız beklenmektedir.

Devam etmek için BOŞLUK tuşuna basınız.",,,,,,,,,,,,,,,,,,,,,,,,,,,,,,,,,,,,,,,,,,,,,,,,,,,,,,,,,,,
,,,,2023-11-28_01h10.21.305,VH_v3,2023.2.3,Win32,59.98440405,7.5286,11.9748,space,4.4178,,0,3,3,3,1,"Çalışmaya başlamadan önce ufak bir pratik yer almaktadır.
Kelimedir: ""m""
Kelime değildir: ""z""

Pratik teste başlamak için BOŞLUK tuşuna basınız. ",,,,,,,,,,,,,,,,,,,,,,,,,,,,,,,,,,,,,,,,,,,,,,,,,,,,,,,,,,,
,,,,2023-11-28_01h10.21.305,VH_v3,2023.2.3,Win32,59.98440405,,,,,,,,,,,,12.0017,12.9914,12.9916,14.2414,m,1,1.2261,,1.2261,1,14.2415,15.7409,0,0,0,2,1,3,yardım,harmonic,word,m,,,,,,,,,,,,,,,,,,,,,,,,,,,,,,,,,,,,,
,,,,2023-11-28_01h10.21.305,VH_v3,2023.2.3,Win32,59.98440405,,,,,,,,,,,,15.7413,16.7406,16.7406,18.0739,z,1,1.3151,,1.3151,1,18.0739,19.5737,0,1,1,20,1,21,yoğuk,harmonic,nw,z,,,,,,,,,,,,,,,,,,,,,,,,,,,,,,,,,,,,,
,,,,2023-11-28_01h10.21.305,VH_v3,2023.2.3,Win32,59.98440405,,,,,,,,,,,,19.5752,20.5737,20.5737,21.3235,z,1,0.7317,,0.7317,1,21.3236,22.8233,0,2,2,15,1,16,geki,harmonic,nw,z,,,,,,,,,,,,,,,,,,,,,,,,,,,,,,,,,,,,,
,,,,2023-11-28_01h10.21.305,VH_v3,2023.2.3,Win32,59.98440405,,,,,,,,,,,,22.8236,23.8231,23.8232,24.523,m,0,0.6848,,0.6848,0,24.5231,26.0228,0,3,3,12,1,13,tahip,notharmonic,nw,z,,,,,,,,,,,,,,,,,,,,,,,,,,,,,,,,,,,,,
,,,,2023-11-28_01h10.21.305,VH_v3,2023.2.3,Win32,59.98440405,,,,,,,,,,,,26.0231,27.0227,27.0227,28.6893,m,1,1.6475,,1.6475,1,28.6893,30.1889,0,4,4,4,1,5,soğuk,harmonic,word,m,,,,,,,,,,,,,,,,,,,,,,,,,,,,,,,,,,,,,
,,,,2023-11-28_01h10.21.305,VH_v3,2023.2.3,Win32,59.98440405,,,,,,,,,,,,30.1891,31.189,31.189,31.7888,m,1,0.5796,,0.5796,1,31.7888,33.2886,0,5,5,3,1,4,sevgi,harmonic,word,m,,,,,,,,,,,,,,,,,,,,,,,,,,,,,,,,,,,,,
,,,,2023-11-28_01h10.21.305,VH_v3,2023.2.3,Win32,59.98440405,,,,,,,,,,,,33.2889,34.2885,34.2885,35.105,z,1,0.7998,,0.7998,1,35.1051,36.6047,0,6,6,22,1,23,gizım,notharmonic,nw,z,,,,,,,,,,,,,,,,,,,,,,,,,,,,,,,,,,,,,
,,,,2023-11-28_01h10.21.305,VH_v3,2023.2.3,Win32,59.98440405,,,,,,,,,,,,36.605,37.6047,37.6047,38.2545,m,1,0.6308,,0.6308,1,38.2546,39.7544,0,7,7,7,1,8,oran,harmonic,word,m,,,,,,,,,,,,,,,,,,,,,,,,,,,,,,,,,,,,,
,,,,2023-11-28_01h10.21.305,VH_v3,2023.2.3,Win32,59.98440405,,,,,,,,,,,,39.7547,40.7543,40.7543,41.3044,m,1,0.5341,,0.5341,1,41.3044,42.804,0,8,8,11,1,12,teslim,harmonic,word,m,,,,,,,,,,,,,,,,,,,,,,,,,,,,,,,,,,,,,
,,,,2023-11-28_01h10.21.305,VH_v3,2023.2.3,Win32,59.98440405,,,,,,,,,,,,42.8043,43.8038,43.8038,44.5371,z,1,0.7171,,0.7171,1,44.5371,46.0369,0,9,9,16,1,17,ihlot,notharmonic,nw,z,,,,,,,,,,,,,,,,,,,,,,,,,,,,,,,,,,,,,
,,,,2023-11-28_01h10.21.305,VH_v3,2023.2.3,Win32,59.98440405,,,,,,,,,,,,46.0371,47.0368,47.0368,47.8533,z,1,0.798,,0.798,1,47.8534,49.3532,0,10,10,14,1,15,mahne,notharmonic,nw,z,,,,,,,,,,,,,,,,,,,,,,,,,,,,,,,,,,,,,
,,,,2023-11-28_01h10.21.305,VH_v3,2023.2.3,Win32,59.98440405,,,,,,,,,,,,49.3535,50.3531,50.3531,51.1363,z,1,0.7692,,0.7692,1,51.1363,52.6361,0,11,11,13,1,14,orat,harmonic,nw,z,,,,,,,,,,,,,,,,,,,,,,,,,,,,,,,,,,,,,
,,,,2023-11-28_01h10.21.305,VH_v3,2023.2.3,Win32,59.98440405,,,,,,,,,,,,52.6364,53.636,53.636,54.5525,z,1,0.8987,,0.8987,1,54.5525,56.0523,0,12,12,18,1,19,pimer,harmonic,nw,z,,,,,,,,,,,,,,,,,,,,,,,,,,,,,,,,,,,,,
,,,,2023-11-28_01h10.21.305,VH_v3,2023.2.3,Win32,59.98440405,,,,,,,,,,,,56.0526,57.0522,57.0522,57.7188,m,1,0.6484,,0.6484,1,57.7189,59.2186,0,13,13,0,1,1,hazır,harmonic,word,m,,,,,,,,,,,,,,,,,,,,,,,,,,,,,,,,,,,,,
,,,,2023-11-28_01h10.21.305,VH_v3,2023.2.3,Win32,59.98440405,,,,,,,,,,,,59.2189,60.2184,60.2185,60.835,z,1,0.6005,,0.6005,1,60.8351,62.3349,0,14,14,19,1,20,mımal,harmonic,nw,z,,,,,,,,,,,,,,,,,,,,,,,,,,,,,,,,,,,,,
,,,,2023-11-28_01h10.21.305,VH_v3,2023.2.3,Win32,59.98440405,,,,,,,,,,,,62.3351,63.3347,63.3347,64.0346,z,1,0.6819,,0.6819,1,64.0346,65.5344,0,15,15,21,1,22,güçli,harmonic,nw,z,,,,,,,,,,,,,,,,,,,,,,,,,,,,,,,,,,,,,
,,,,2023-11-28_01h10.21.305,VH_v3,2023.2.3,Win32,59.98440405,,,,,,,,,,,,65.5347,66.5343,66.5343,67.2175,m,1,0.6654,,0.6654,1,67.2176,68.7173,0,16,16,8,1,9,bilim,harmonic,word,m,,,,,,,,,,,,,,,,,,,,,,,,,,,,,,,,,,,,,
,,,,2023-11-28_01h10.21.305,VH_v3,2023.2.3,Win32,59.98440405,,,,,,,,,,,,68.7176,69.7172,69.7172,70.4005,m,1,0.6712,,0.6712,1,70.4005,71.9003,0,17,17,10,1,11,nefret,harmonic,word,m,,,,,,,,,,,,,,,,,,,,,,,,,,,,,,,,,,,,,
,,,,2023-11-28_01h10.21.305,VH_v3,2023.2.3,Win32,59.98440405,,,,,,,,,,,,71.9005,72.9002,72.9003,73.4501,z,1,0.5308,,0.5308,1,73.4501,74.9498,0,18,18,17,1,18,pilar,notharmonic,nw,z,,,,,,,,,,,,,,,,,,,,,,,,,,,,,,,,,,,,,
,,,,2023-11-28_01h10.21.305,VH_v3,2023.2.3,Win32,59.98440405,,,,,,,,,,,,74.9501,75.9498,75.9498,76.6996,m,1,0.7361,,0.7361,1,76.6997,78.1995,0,19,19,9,1,10,zarar,harmonic,word,m,,,,,,,,,,,,,,,,,,,,,,,,,,,,,,,,,,,,,
,,,,2023-11-28_01h10.21.305,VH_v3,2023.2.3,Win32,59.98440405,,,,,,,,,,,,78.1996,79.1994,79.1994,79.7992,m,1,0.5913,,0.5913,1,79.7993,81.299,0,20,20,6,1,7,sebep,harmonic,word,m,,,,,,,,,,,,,,,,,,,,,,,,,,,,,,,,,,,,,
,,,,2023-11-28_01h10.21.305,VH_v3,2023.2.3,Win32,59.98440405,,,,,,,,,,,,81.2992,82.2991,82.2991,82.9489,m,1,0.6317,,0.6317,1,82.9489,84.4486,0,21,21,1,1,2,veri,harmonic,word,m,,,,,,,,,,,,,,,,,,,,,,,,,,,,,,,,,,,,,
,,,,2023-11-28_01h10.21.305,VH_v3,2023.2.3,Win32,59.98440405,,,,,,,,,,,,84.4489,85.4485,85.4485,86.6816,m,1,1.2145,,1.2145,1,86.6817,88.1815,0,22,22,5,1,6,gizli,harmonic,word,m,,,,,,,,,,,,,,,,,,,,,,,,,,,,,,,,,,,,,
,,,,2023-11-28_01h10.21.305,VH_v3,2023.2.3,Win32,59.98440405,,,,,,,,,,,,88.1817,89.1814,89.1814,89.7813,z,1,0.5864,,0.5864,1,89.7813,91.2811,0,23,23,23,1,24,zarim,notharmonic,nw,z,,,,,,,,,,,,,,,,,,,,,,,,,,,,,,,,,,,,,
,,,,2023-11-28_01h10.21.305,VH_v3,2023.2.3,Win32,59.98440405,,,,,,,,,,,,,,,,,,,,,,,,,,,,,,,,,,91.2815,102.4969,space,11.2042,,,,,,,,,,,,,,,,,,,,,,,,,,,,,,,,,
,,,,2023-11-28_01h10.21.305,VH_v3,2023.2.3,Win32,59.98440405,,,,,,,,,,,,102.6062,103.5129,,,,,,,,,,,,,,,,,,,,,,,,,,103.5131,104.6796,z,1,1.1331,,104.6797,104.6806,,0,0,0,189,1,190,kanak,,,,,5,harmonic,1.1,nw,z,,,,,,,
,,,,2023-11-28_01h10.21.305,VH_v3,2023.2.3,Win32,59.98440405,,,,,,,,,,,,104.6808,105.6793,,,,,,,,,,,,,,,,,,,,,,,,,,105.6793,106.5958,z,1,0.8836,,106.5958,106.5959,,0,1,1,272,1,273,sakke,,,,,5,notharmonic,1.85,nw,z,,,,,,,
,,,,2023-11-28_01h10.21.305,VH_v3,2023.2.3,Win32,59.98440405,,,,,,,,,,,,106.5962,107.5849,,,,,,,,,,,,,,,,,,,,,,,,,,107.5849,108.8484,z,1,1.2469,,108.8484,108.8484,,0,2,2,330,1,331,tevaze,,,,,6,notharmonic,2.05,nw,z,,,,,,,
,,,,2023-11-28_01h10.21.305,VH_v3,2023.2.3,Win32,59.98440405,,,,,,,,,,,,108.8486,109.8454,,,,,,,,,,,,,,,,,,,,,,,,,,109.8454,110.4454,m,1,0.5691,,110.4454,110.4455,,0,3,3,109,1,110,dalga,1307,59.3849,1117,0.1221,5,harmonic,,word,m,,,,,,,
,,,,2023-11-28_01h10.21.305,VH_v3,2023.2.3,Win32,59.98440405,,,,,,,,,,,,110.4456,111.4452,,,,,,,,,,,,,,,,,,,,,,,,,,111.4452,112.5452,z,1,1.0716,,112.5452,112.5453,,0,4,4,342,1,343,çaneke,,,,,6,notharmonic,2.6,nw,z,,,,,,,
,,,,2023-11-28_01h10.21.305,VH_v3,2023.2.3,Win32,59.98440405,,,,,,,,,,,,112.5539,113.5449,,,,,,,,,,,,,,,,,,,,,,,,,,113.545,114.9447,m,0,1.3758,,114.9447,114.9448,,0,5,5,193,1,194,şıkta,,,,,5,harmonic,2,nw,z,,,,,,,
,,,,2023-11-28_01h10.21.305,VH_v3,2023.2.3,Win32,59.98440405,,,,,,,,,,,,114.9451,115.9473,,,,,,,,,,,,,,,,,,,,,,,,,,115.9474,116.8778,z,1,0.9089,,116.8779,116.8779,,0,6,6,237,1,238,küyek,,,,,5,harmonic,1.8,nw,z,,,,,,,
,,,,2023-11-28_01h10.21.305,VH_v3,2023.2.3,Win32,59.98440405,,,,,,,,,,,,116.8781,117.8777,,,,,,,,,,,,,,,,,,,,,,,,,,117.8778,118.661,m,1,0.7586,,118.661,118.6611,,0,7,7,8,1,9,güven,1433,65.1098,1300,0.1421,5,harmonic,1.35,word,m,,,,,,,
,,,,2023-11-28_01h10.21.305,VH_v3,2023.2.3,Win32,59.98440405,,,,,,,,,,,,118.6615,119.6609,,,,,,,,,,,,,,,,,,,,,,,,,,119.6609,120.5834,z,1,0.9002,,120.5834,120.5835,,0,8,8,319,1,320,mafke,,,,,5,notharmonic,1.9,nw,z,,,,,,,
,,,,2023-11-28_01h10.21.305,VH_v3,2023.2.3,Win32,59.98440405,,,,,,,,,,,,120.5837,121.5773,,,,,,,,,,,,,,,,,,,,,,,,,,121.5773,123.027,z,1,1.4168,,123.0271,123.0271,,0,9,9,230,1,231,redem,,,,,5,harmonic,2,nw,z,,,,,,,
,,,,2023-11-28_01h10.21.305,VH_v3,2023.2.3,Win32,59.98440405,,,,,,,,,,,,123.0274,124.027,,,,,,,,,,,,,,,,,,,,,,,,,,124.027,124.5995,m,1,0.5501,,124.5995,124.5996,,0,10,10,175,1,176,gündüz,1167,53.0239,1088,0.1189,6,harmonic,,word,m,,,,,,,
,,,,2023-11-28_01h10.21.305,VH_v3,2023.2.3,Win32,59.98440405,,,,,,,,,,,,124.5998,125.5934,,,,,,,,,,,,,,,,,,,,,,,,,,125.5934,126.3266,z,1,0.7014,,126.3267,126.3268,,0,11,11,254,1,255,ileşçe,,,,,6,harmonic,2.65,nw,z,,,,,,,
,,,,2023-11-28_01h10.21.305,VH_v3,2023.2.3,Win32,59.98440405,,,,,,,,,,,,126.327,127.3266,,,,,,,,,,,,,,,,,,,,,,,,,,127.3266,128.1764,z,1,0.8171,,128.1764,128.1765,,0,12,12,284,1,285,zebap,,,,,5,notharmonic,1.8,nw,z,,,,,,,
,,,,2023-11-28_01h10.21.305,VH_v3,2023.2.3,Win32,59.98440405,,,,,,,,,,,,128.1767,129.1763,,,,,,,,,,,,,,,,,,,,,,,,,,129.1763,129.7762,m,1,0.5668,,129.7763,129.7763,,0,13,13,31,1,32,fazla,18293,831.1614,16694,1.825,5,harmonic,1,word,m,,,,,,,
,,,,2023-11-28_01h10.21.305,VH_v3,2023.2.3,Win32,59.98440405,,,,,,,,,,,,129.7767,130.7761,,,,,,,,,,,,,,,,,,,,,,,,,,130.7761,131.4326,m,1,0.634,,131.4326,131.4327,,0,14,14,147,1,148,dizi,1995,90.6449,1689,0.1846,4,harmonic,,word,m,,,,,,,
,,,,2023-11-28_01h10.21.305,VH_v3,2023.2.3,Win32,59.98440405,,,,,,,,,,,,131.433,132.4259,,,,,,,,,,,,,,,,,,,,,,,,,,132.4259,133.4982,m,0,1.0501,,133.4983,133.4984,,0,15,15,333,1,334,uleç,,,,,4,notharmonic,1.95,nw,z,,,,,,,
,,,,2023-11-28_01h10.21.305,VH_v3,2023.2.3,Win32,59.98440405,,,,,,,,,,,,133.4985,134.4922,,,,,,,,,,,,,,,,,,,,,,,,,,134.4923,136.492,,0,,,136.492,136.4921,,0,16,16,279,1,280,ikaza,,,,,5,notharmonic,1.9,nw,z,,,,,,,
,,,,2023-11-28_01h10.21.305,VH_v3,2023.2.3,Win32,59.98440405,,,,,,,,,,,,136.4924,137.4918,,,,,,,,,,,,,,,,,,,,,,,,,,137.4919,138.2251,m,1,0.7002,,138.2251,138.2252,,0,17,17,80,1,81,merkez,1445,65.6551,1255,0.1372,6,harmonic,1.8,word,m,,,,,,,
,,,,2023-11-28_01h10.21.305,VH_v3,2023.2.3,Win32,59.98440405,,,,,,,,,,,,138.2254,139.2307,,,,,,,,,,,,,,,,,,,,,,,,,,139.2308,140.4082,z,1,1.1502,,140.4082,140.4083,,0,18,18,299,1,300,kurüs,,,,,5,notharmonic,1.95,nw,z,,,,,,,
,,,,2023-11-28_01h10.21.305,VH_v3,2023.2.3,Win32,59.98440405,,,,,,,,,,,,140.4085,141.4108,,,,,,,,,,,,,,,,,,,,,,,,,,141.4108,141.9246,m,1,0.4905,,141.9246,141.9246,,0,19,19,77,1,78,ufak,3252,147.758,2980,0.3258,4,harmonic,1.5,word,m,,,,,,,
,,,,2023-11-28_01h10.21.305,VH_v3,2023.2.3,Win32,59.98440405,,,,,,,,,,,,141.9249,142.9245,,,,,,,,,,,,,,,,,,,,,,,,,,142.9246,144.0577,z,1,1.1036,,144.0577,144.0577,,0,20,20,249,1,250,öldek,,,,,5,harmonic,1.85,nw,z,,,,,,,
,,,,2023-11-28_01h10.21.305,VH_v3,2023.2.3,Win32,59.98440405,,,,,,,,,,,,144.0581,145.0576,,,,,,,,,,,,,,,,,,,,,,,,,,145.0576,145.9074,z,1,0.8275,,145.9075,145.9075,,0,21,21,244,1,245,tazık,,,,,5,harmonic,1.7,nw,z,,,,,,,
,,,,2023-11-28_01h10.21.305,VH_v3,2023.2.3,Win32,59.98440405,,,,,,,,,,,,145.9077,146.9074,,,,,,,,,,,,,,,,,,,,,,,,,,146.9074,147.4465,m,1,0.5169,,147.4465,147.4466,,0,22,22,106,1,107,sağlık,8866,402.8359,8289,0.9062,5,harmonic,,word,m,,,,,,,
,,,,2023-11-28_01h10.21.305,VH_v3,2023.2.3,Win32,59.98440405,,,,,,,,,,,,147.4468,148.4405,,,,,,,,,,,,,,,,,,,,,,,,,,148.4405,149.0571,m,1,0.5873,,149.0571,149.0571,,0,23,23,57,1,58,bölüm,1910,86.7828,1605,0.1755,5,harmonic,1.45,word,m,,,,,,,
,,,,2023-11-28_01h10.21.305,VH_v3,2023.2.3,Win32,59.98440405,,,,,,,,,,,,149.0573,150.0569,,,,,,,,,,,,,,,,,,,,,,,,,,150.0569,150.6735,m,1,0.5873,,150.6735,150.6736,,0,24,24,42,1,43,ürün,2268,103.0489,1954,0.2136,4,harmonic,1.1,word,m,,,,,,,
,,,,2023-11-28_01h10.21.305,VH_v3,2023.2.3,Win32,59.98440405,,,,,,,,,,,,150.6738,151.6734,,,,,,,,,,,,,,,,,,,,,,,,,,151.6734,152.2899,m,1,0.5923,,152.2899,152.2901,,0,25,25,138,1,139,yazar,3175,144.2594,2877,0.3145,5,harmonic,,word,m,,,,,,,
,,,,2023-11-28_01h10.21.305,VH_v3,2023.2.3,Win32,59.98440405,,,,,,,,,,,,152.2904,153.2899,,,,,,,,,,,,,,,,,,,,,,,,,,153.2899,154.2564,z,1,0.9432,,154.2564,154.2565,,0,26,26,337,1,338,yakim,,,,,5,notharmonic,1.75,nw,z,,,,,,,
,,,,2023-11-28_01h10.21.305,VH_v3,2023.2.3,Win32,59.98440405,,,,,,,,,,,,154.2568,155.2453,,,,,,,,,,,,,,,,,,,,,,,,,,155.2453,155.8395,m,1,0.5664,,155.8395,155.8396,,0,27,27,81,1,82,üretim,1593,72.3796,1283,0.1403,6,harmonic,1.6,word,m,,,,,,,
,,,,2023-11-28_01h10.21.305,VH_v3,2023.2.3,Win32,59.98440405,,,,,,,,,,,,155.8399,156.8284,,,,,,,,,,,,,,,,,,,,,,,,,,156.8284,157.7893,z,1,0.9353,,157.7893,157.7894,,0,28,28,274,1,275,rikal,,,,,5,notharmonic,1.85,nw,z,,,,,,,
,,,,2023-11-28_01h10.21.305,VH_v3,2023.2.3,Win32,59.98440405,,,,,,,,,,,,157.7896,158.7891,,,,,,,,,,,,,,,,,,,,,,,,,,158.7891,159.6891,m,1,0.8712,,159.6891,159.6891,,0,29,29,88,1,89,yalnız,5891,267.6637,5440,0.5947,6,harmonic,1.6,word,m,,,,,,,
,,,,2023-11-28_01h10.21.305,VH_v3,2023.2.3,Win32,59.98440405,,,,,,,,,,,,159.6895,160.6889,,,,,,,,,,,,,,,,,,,,,,,,,,160.689,161.6722,z,1,0.9501,,161.6722,161.6723,,0,30,30,216,1,217,halban,,,,,6,harmonic,2,nw,z,,,,,,,
,,,,2023-11-28_01h10.21.305,VH_v3,2023.2.3,Win32,59.98440405,,,,,,,,,,,,161.6727,162.672,,,,,,,,,,,,,,,,,,,,,,,,,,162.6721,163.4219,z,1,0.723,,163.4219,163.422,,0,31,31,239,1,240,yulçız,,,,,6,harmonic,2.75,nw,z,,,,,,,
,,,,2023-11-28_01h10.21.305,VH_v3,2023.2.3,Win32,59.98440405,,,,,,,,,,,,163.4222,164.4217,,,,,,,,,,,,,,,,,,,,,,,,,,164.4218,165.0109,m,1,0.5669,,165.0109,165.011,,0,32,32,118,1,119,deniz,5006,227.4528,4256,0.4653,5,harmonic,,word,m,,,,,,,
,,,,2023-11-28_01h10.21.305,VH_v3,2023.2.3,Win32,59.98440405,,,,,,,,,,,,165.0112,166.005,,,,,,,,,,,,,,,,,,,,,,,,,,166.0051,166.7882,z,1,0.7543,,166.7882,166.7882,,0,33,33,357,1,358,harim,,,,,5,notharmonic,,nw,z,,,,,,,
,,,,2023-11-28_01h10.21.305,VH_v3,2023.2.3,Win32,59.98440405,,,,,,,,,,,,166.7885,167.788,,,,,,,,,,,,,,,,,,,,,,,,,,167.7881,168.5546,z,1,0.7416,,168.5546,168.5546,,0,34,34,180,1,181,manıt,,,,,5,harmonic,1.75,nw,z,,,,,,,
,,,,2023-11-28_01h10.21.305,VH_v3,2023.2.3,Win32,59.98440405,,,,,,,,,,,,168.5549,169.5571,,,,,,,,,,,,,,,,,,,,,,,,,,169.5571,170.6377,z,1,1.0543,,170.6377,170.6377,,0,35,35,354,1,355,dizdat,,,,,6,notharmonic,2.4,nw,z,,,,,,,
,,,,2023-11-28_01h10.21.305,VH_v3,2023.2.3,Win32,59.98440405,,,,,,,,,,,,170.6379,171.6265,,,,,,,,,,,,,,,,,,,,,,,,,,171.6265,172.2434,z,1,0.6002,,172.2434,172.2434,,0,36,36,345,1,346,kiru,,,,,4,notharmonic,1.8,nw,z,,,,,,,
,,,,2023-11-28_01h10.21.305,VH_v3,2023.2.3,Win32,59.98440405,,,,,,,,,,,,172.2436,173.2373,,,,,,,,,,,,,,,,,,,,,,,,,,173.2374,173.8264,m,1,0.5668,,173.8264,173.8265,,0,37,37,131,1,132,derin,3689,167.6135,3328,0.3638,5,harmonic,,word,m,,,,,,,
,,,,2023-11-28_01h10.21.305,VH_v3,2023.2.3,Win32,59.98440405,,,,,,,,,,,,173.8267,174.8204,,,,,,,,,,,,,,,,,,,,,,,,,,174.8204,175.5708,z,1,0.7169,,175.5708,175.5708,,0,38,38,297,1,298,şasep,,,,,5,notharmonic,1.9,nw,z,,,,,,,
,,,,2023-11-28_01h10.21.305,VH_v3,2023.2.3,Win32,59.98440405,,,,,,,,,,,,175.5711,176.5702,,,,,,,,,,,,,,,,,,,,,,,,,,176.5703,177.1701,z,1,0.5712,,177.1701,177.1701,,0,39,39,313,1,314,hahih,,,,,5,notharmonic,1.95,nw,z,,,,,,,
,,,,2023-11-28_01h10.21.305,VH_v3,2023.2.3,Win32,59.98440405,,,,,,,,,,,,177.1704,178.17,,,,,,,,,,,,,,,,,,,,,,,,,,178.17,178.8091,m,1,0.6168,,178.8092,178.8092,,0,40,40,22,1,23,anlam,1730,78.6043,1617,0.1768,5,harmonic,1.25,word,m,,,,,,,
,,,,2023-11-28_01h10.21.305,VH_v3,2023.2.3,Win32,59.98440405,,,,,,,,,,,,178.8095,179.8032,,,,,,,,,,,,,,,,,,,,,,,,,,179.8033,180.309,m,1,0.4836,,180.309,180.309,,0,41,41,126,1,127,ciddi,4147,188.4232,3686,0.403,5,harmonic,,word,m,,,,,,,
,,,,2023-11-28_01h10.21.305,VH_v3,2023.2.3,Win32,59.98440405,,,,,,,,,,,,180.3093,181.303,,,,,,,,,,,,,,,,,,,,,,,,,,181.303,181.9057,m,1,0.5804,,181.9057,181.9057,,0,42,42,13,1,14,nokta,2085,94.7341,1939,0.212,5,harmonic,1.5,word,m,,,,,,,
,,,,2023-11-28_01h10.21.305,VH_v3,2023.2.3,Win32,59.98440405,,,,,,,,,,,,181.906,182.9028,,,,,,,,,,,,,,,,,,,,,,,,,,182.9028,183.536,z,1,0.6072,,183.536,183.536,,0,43,43,247,1,248,fonta,,,,,5,harmonic,1.75,nw,z,,,,,,,
,,,,2023-11-28_01h10.21.305,VH_v3,2023.2.3,Win32,59.98440405,,,,,,,,,,,,183.5363,184.5358,,,,,,,,,,,,,,,,,,,,,,,,,,184.5359,185.141,m,1,0.5829,,185.141,185.141,,0,44,44,104,1,105,çizgi,1340,60.8843,1074,0.1174,5,harmonic,,word,m,,,,,,,
,,,,2023-11-28_01h10.21.305,VH_v3,2023.2.3,Win32,59.98440405,,,,,,,,,,,,185.1413,186.1357,,,,,,,,,,,,,,,,,,,,,,,,,,186.1357,186.6248,m,1,0.4669,,186.6248,186.6248,,0,45,45,86,1,87,gerçek,8983,408.1519,8058,0.8809,6,harmonic,1.7,word,m,,,,,,,
,,,,2023-11-28_01h10.21.305,VH_v3,2023.2.3,Win32,59.98440405,,,,,,,,,,,,186.625,187.6187,,,,,,,,,,,,,,,,,,,,,,,,,,187.6188,188.2079,m,1,0.5667,,188.2079,188.2079,,0,46,46,49,1,50,şeker,4708,213.9128,4170,0.4559,5,harmonic,1.6,word,m,,,,,,,
,,,,2023-11-28_01h10.21.305,VH_v3,2023.2.3,Win32,59.98440405,,,,,,,,,,,,188.2082,189.2019,,,,,,,,,,,,,,,,,,,,,,,,,,189.2019,189.6852,m,1,0.4589,,189.6852,189.6852,,0,47,47,58,1,59,ayak,2143,97.3694,1931,0.2111,4,harmonic,1,word,m,,,,,,,
,,,,2023-11-28_01h10.21.305,VH_v3,2023.2.3,Win32,59.98440405,,,,,,,,,,,,189.6854,190.6851,,,,,,,,,,,,,,,,,,,,,,,,,,190.6852,191.7016,z,1,0.9845,,191.7016,191.7017,,0,48,48,328,1,329,tadit,,,,,5,notharmonic,1.8,nw,z,,,,,,,
,,,,2023-11-28_01h10.21.305,VH_v3,2023.2.3,Win32,59.98440405,,,,,,,,,,,,191.7021,192.7016,,,,,,,,,,,,,,,,,,,,,,,,,,192.7016,193.3847,z,1,0.654,,193.3847,193.3848,,0,49,49,220,1,221,lingin,,,,,6,harmonic,1.85,nw,z,,,,,,,
,,,,2023-11-28_01h10.21.305,VH_v3,2023.2.3,Win32,59.98440405,,,,,,,,,,,,193.385,194.3735,,,,,,,,,,,,,,,,,,,,,,,,,,194.3735,195.0845,z,1,0.6893,,195.0846,195.0846,,0,50,50,229,1,230,ilgent,,,,,6,harmonic,2.7,nw,z,,,,,,,
,,,,2023-11-28_01h10.21.305,VH_v3,2023.2.3,Win32,59.98440405,,,,,,,,,,,,195.0848,196.0843,,,,,,,,,,,,,,,,,,,,,,,,,,196.0844,196.8677,z,1,0.7507,,196.8678,196.8678,,0,51,51,232,1,233,çemek,,,,,5,harmonic,1.5,nw,z,,,,,,,
,,,,2023-11-28_01h10.21.305,VH_v3,2023.2.3,Win32,59.98440405,,,,,,,,,,,,196.8681,197.8676,,,,,,,,,,,,,,,,,,,,,,,,,,197.8676,198.9536,z,1,1.0637,,198.9537,198.9537,,0,52,52,197,1,198,şortal,,,,,6,harmonic,1.95,nw,z,,,,,,,
,,,,2023-11-28_01h10.21.305,VH_v3,2023.2.3,Win32,59.98440405,,,,,,,,,,,,198.954,199.9506,,,,,,,,,,,,,,,,,,,,,,,,,,199.9506,200.6171,m,1,0.6334,,200.6171,200.6171,,0,53,53,117,1,118,yavaş,5087,231.1331,2886,0.3155,5,harmonic,,word,m,,,,,,,
,,,,2023-11-28_01h10.21.305,VH_v3,2023.2.3,Win32,59.98440405,,,,,,,,,,,,200.6174,201.617,,,,,,,,,,,,,,,,,,,,,,,,,,201.617,202.2836,z,1,0.6391,,202.2836,202.2836,,0,54,54,251,1,252,bellet,,,,,6,harmonic,1.8,nw,z,,,,,,,
,,,,2023-11-28_01h10.21.305,VH_v3,2023.2.3,Win32,59.98440405,,,,,,,,,,,,202.284,203.2724,,,,,,,,,,,,,,,,,,,,,,,,,,203.2724,203.85,m,1,0.5559,,203.85,203.8502,,0,55,55,27,1,28,bölge,1283,58.2944,1123,0.1228,5,harmonic,1.65,word,m,,,,,,,
,,,,2023-11-28_01h10.21.305,VH_v3,2023.2.3,Win32,59.98440405,,,,,,,,,,,,203.8505,204.8499,,,,,,,,,,,,,,,,,,,,,,,,,,204.8499,205.5193,z,1,0.6471,,205.5193,205.5194,,0,56,56,208,1,209,guzır,,,,,5,harmonic,2.05,nw,z,,,,,,,
,,,,2023-11-28_01h10.21.305,VH_v3,2023.2.3,Win32,59.98440405,,,,,,,,,,,,205.5197,206.5164,,,,,,,,,,,,,,,,,,,,,,,,,,206.5164,207.2496,z,1,0.7097,,207.2496,207.2496,,0,57,57,321,1,322,kibas,,,,,5,notharmonic,1.9,nw,z,,,,,,,
,,,,2023-11-28_01h10.21.305,VH_v3,2023.2.3,Win32,59.98440405,,,,,,,,,,,,207.2498,208.2494,,,,,,,,,,,,,,,,,,,,,,,,,,208.2494,208.8661,z,1,0.5835,,208.8661,208.8661,,0,58,58,262,1,263,ürze,,,,,4,harmonic,1.95,nw,z,,,,,,,
,,,,2023-11-28_01h10.21.305,VH_v3,2023.2.3,Win32,59.98440405,,,,,,,,,,,,208.8663,209.855,,,,,,,,,,,,,,,,,,,,,,,,,,209.855,210.5053,z,1,0.6337,,210.5053,210.5054,,0,59,59,275,1,276,makis,,,,,5,notharmonic,1.8,nw,z,,,,,,,
,,,,2023-11-28_01h10.21.305,VH_v3,2023.2.3,Win32,59.98440405,,,,,,,,,,,,210.5056,211.4991,,,,,,,,,,,,,,,,,,,,,,,,,,211.4991,212.049,m,1,0.52,,212.049,212.0491,,0,60,60,72,1,73,çorba,1674,76.0599,1513,0.1654,5,harmonic,1.75,word,m,,,,,,,
,,,,2023-11-28_01h10.21.305,VH_v3,2023.2.3,Win32,59.98440405,,,,,,,,,,,,212.0493,213.0489,,,,,,,,,,,,,,,,,,,,,,,,,,213.0489,213.4988,m,1,0.4173,,213.4988,213.4989,,0,61,61,9,1,10,karar,8108,368.3954,7436,0.8129,5,harmonic,1.6,word,m,,,,,,,
,,,,2023-11-28_01h10.21.305,VH_v3,2023.2.3,Win32,59.98440405,,,,,,,,,,,,213.4992,214.4987,,,,,,,,,,,,,,,,,,,,,,,,,,214.4988,215.1819,z,1,0.6589,,215.1819,215.1819,,0,62,62,256,1,257,ulosız,,,,,6,harmonic,3,nw,z,,,,,,,
,,,,2023-11-28_01h10.21.305,VH_v3,2023.2.3,Win32,59.98440405,,,,,,,,,,,,215.1822,216.1819,,,,,,,,,,,,,,,,,,,,,,,,,,216.1819,216.8317,z,1,0.6169,,216.8317,216.8318,,0,63,63,306,1,307,napare,,,,,6,notharmonic,2.15,nw,z,,,,,,,
,,,,2023-11-28_01h10.21.305,VH_v3,2023.2.3,Win32,59.98440405,,,,,,,,,,,,216.832,217.8316,,,,,,,,,,,,,,,,,,,,,,,,,,217.8316,218.5374,z,1,0.6835,,218.5374,218.5376,,0,64,64,314,1,315,betaş,,,,,5,notharmonic,1.9,nw,z,,,,,,,
,,,,2023-11-28_01h10.21.305,VH_v3,2023.2.3,Win32,59.98440405,,,,,,,,,,,,218.5377,219.5314,,,,,,,,,,,,,,,,,,,,,,,,,,219.5314,220.1341,m,1,0.5805,,220.1341,220.1342,,0,65,65,146,1,147,sarı,2072,94.1435,1838,0.2009,4,harmonic,,word,m,,,,,,,
,,,,2023-11-28_01h10.21.305,VH_v3,2023.2.3,Win32,59.98440405,,,,,,,,,,,,220.1345,221.1312,,,,,,,,,,,,,,,,,,,,,,,,,,221.1312,222.2644,z,1,1.1,,222.2644,222.2644,,0,66,66,245,1,246,mahram,,,,,6,harmonic,1.85,nw,z,,,,,,,
,,,,2023-11-28_01h10.21.305,VH_v3,2023.2.3,Win32,59.98440405,,,,,,,,,,,,222.2646,223.2643,,,,,,,,,,,,,,,,,,,,,,,,,,223.2643,224.0533,z,1,0.7667,,224.0534,224.0534,,0,67,67,350,1,351,bügun,,,,,5,notharmonic,2,nw,z,,,,,,,
,,,,2023-11-28_01h10.21.305,VH_v3,2023.2.3,Win32,59.98440405,,,,,,,,,,,,224.0538,225.0473,,,,,,,,,,,,,,,,,,,,,,,,,,225.0473,225.8972,z,1,0.8189,,225.8972,225.8973,,0,68,68,267,1,268,eşti,,,,,4,harmonic,1.85,nw,z,,,,,,,
,,,,2023-11-28_01h10.21.305,VH_v3,2023.2.3,Win32,59.98440405,,,,,,,,,,,,225.8975,226.886,,,,,,,,,,,,,,,,,,,,,,,,,,226.8861,227.7029,z,1,0.8001,,227.7029,227.7029,,0,69,69,301,1,302,meyav,,,,,5,notharmonic,1.85,nw,z,,,,,,,
,,,,2023-11-28_01h10.21.305,VH_v3,2023.2.3,Win32,59.98440405,,,,,,,,,,,,227.7031,228.6968,,,,,,,,,,,,,,,,,,,,,,,,,,228.6968,229.3468,m,1,0.6185,,229.3468,229.3469,,0,70,70,90,1,91,güzel,42841,1946.5251,37209,4.0677,5,harmonic,,word,m,,,,,,,
,,,,2023-11-28_01h10.21.305,VH_v3,2023.2.3,Win32,59.98440405,,,,,,,,,,,,229.3473,230.3467,,,,,,,,,,,,,,,,,,,,,,,,,,230.3467,230.93,z,1,0.5598,,230.93,230.93,,0,71,71,285,1,286,safiç,,,,,5,notharmonic,1.9,nw,z,,,,,,,
,,,,2023-11-28_01h10.21.305,VH_v3,2023.2.3,Win32,59.98440405,,,,,,,,,,,,230.9303,231.9297,,,,,,,,,,,,,,,,,,,,,,,,,,231.9298,232.6023,m,1,0.6503,,232.6024,232.6024,,0,72,72,35,1,36,hava,4975,226.0443,4398,0.4808,4,harmonic,1,word,m,,,,,,,
,,,,2023-11-28_01h10.21.305,VH_v3,2023.2.3,Win32,59.98440405,,,,,,,,,,,,232.6026,233.5963,,,,,,,,,,,,,,,,,,,,,,,,,,233.5963,234.23,m,1,0.6002,,234.23,234.2301,,0,73,73,53,1,54,gelir,7578,344.3143,7014,0.7668,5,harmonic,1.4,word,m,,,,,,,
,,,,2023-11-28_01h10.21.305,VH_v3,2023.2.3,Win32,59.98440405,,,,,,,,,,,,234.2304,235.2293,,,,,,,,,,,,,,,,,,,,,,,,,,235.2295,235.7293,m,1,0.4759,,235.7293,235.7293,,0,74,74,44,1,45,kayıt,1234,56.0681,1058,0.1157,5,harmonic,1.35,word,m,,,,,,,
,,,,2023-11-28_01h10.21.305,VH_v3,2023.2.3,Win32,59.98440405,,,,,,,,,,,,235.7296,236.7292,,,,,,,,,,,,,,,,,,,,,,,,,,236.7292,237.1791,m,1,0.4229,,237.1791,237.1792,,0,75,75,93,1,94,başka,23223,1055.161,20976,2.2931,5,harmonic,,word,m,,,,,,,
,,,,2023-11-28_01h10.21.305,VH_v3,2023.2.3,Win32,59.98440405,,,,,,,,,,,,237.1796,238.179,,,,,,,,,,,,,,,,,,,,,,,,,,238.179,238.9348,z,1,0.7334,,238.9348,238.9349,,0,76,76,286,1,287,elsaf,,,,,5,notharmonic,1.9,nw,z,,,,,,,
,,,,2023-11-28_01h10.21.305,VH_v3,2023.2.3,Win32,59.98440405,,,,,,,,,,,,238.9352,239.9287,,,,,,,,,,,,,,,,,,,,,,,,,,239.9287,240.468,m,1,0.5169,,240.468,240.468,,0,77,77,162,1,163,destek,3328,151.2111,3065,0.3351,6,harmonic,,word,m,,,,,,,
,,,,2023-11-28_01h10.21.305,VH_v3,2023.2.3,Win32,59.98440405,,,,,,,,,,,,240.4682,241.4619,,,,,,,,,,,,,,,,,,,,,,,,,,241.4619,242.0451,m,1,0.5502,,242.0452,242.0452,,0,78,78,67,1,68,bayram,1948,88.5094,1648,0.1802,6,harmonic,1.85,word,m,,,,,,,
,,,,2023-11-28_01h10.21.305,VH_v3,2023.2.3,Win32,59.98440405,,,,,,,,,,,,242.0455,243.045,,,,,,,,,,,,,,,,,,,,,,,,,,243.045,243.6116,z,1,0.5335,,243.6117,243.6117,,0,79,79,182,1,183,rafto,,,,,5,harmonic,2,nw,z,,,,,,,
,,,,2023-11-28_01h10.21.305,VH_v3,2023.2.3,Win32,59.98440405,,,,,,,,,,,,243.612,244.6004,,,,,,,,,,,,,,,,,,,,,,,,,,244.6004,245.1642,m,1,0.5472,,245.1643,245.1643,,0,80,80,17,1,18,yakın,7990,363.0339,7595,0.8303,5,harmonic,1.8,word,m,,,,,,,
,,,,2023-11-28_01h10.21.305,VH_v3,2023.2.3,Win32,59.98440405,,,,,,,,,,,,245.1645,246.1613,,,,,,,,,,,,,,,,,,,,,,,,,,246.1613,246.7112,m,1,0.5244,,246.7113,246.7113,,0,81,81,79,1,80,durum,6783,308.1926,6431,0.703,5,harmonic,1.7,word,m,,,,,,,
,,,,2023-11-28_01h10.21.305,VH_v3,2023.2.3,Win32,59.98440405,,,,,,,,,,,,246.7116,247.711,,,,,,,,,,,,,,,,,,,,,,,,,,247.7111,248.561,m,1,0.8212,,248.5611,248.5611,,0,82,82,76,1,77,ilişki,1675,76.1054,1524,0.1666,6,harmonic,1.8,word,m,,,,,,,
,,,,2023-11-28_01h10.21.305,VH_v3,2023.2.3,Win32,59.98440405,,,,,,,,,,,,248.5614,249.5608,,,,,,,,,,,,,,,,,,,,,,,,,,249.5609,250.1941,m,1,0.6003,,250.1942,250.1942,,0,83,83,64,1,65,lise,888,40.3472,816,0.0892,4,harmonic,1.5,word,m,,,,,,,
,,,,2023-11-28_01h10.21.305,VH_v3,2023.2.3,Win32,59.98440405,,,,,,,,,,,,250.1945,251.1943,,,,,,,,,,,,,,,,,,,,,,,,,,251.1944,251.6832,m,1,0.4669,,251.6832,251.6832,,0,84,84,52,1,53,resim,2506,113.8627,2188,0.2392,5,harmonic,1.4,word,m,,,,,,,
,,,,2023-11-28_01h10.21.305,VH_v3,2023.2.3,Win32,59.98440405,,,,,,,,,,,,251.6835,252.6772,,,,,,,,,,,,,,,,,,,,,,,,,,252.6772,253.277,m,1,0.5742,,253.2771,253.2771,,0,85,85,173,1,174,koruma,1187,53.9326,1066,0.1165,6,harmonic,,word,m,,,,,,,
,,,,2023-11-28_01h10.21.305,VH_v3,2023.2.3,Win32,59.98440405,,,,,,,,,,,,253.2775,254.2769,,,,,,,,,,,,,,,,,,,,,,,,,,254.2769,254.7269,m,1,0.4201,,254.7269,254.7269,,0,86,86,56,1,57,sağlam,1818,82.6027,1720,0.188,6,harmonic,1.6,word,m,,,,,,,
,,,,2023-11-28_01h10.21.305,VH_v3,2023.2.3,Win32,59.98440405,,,,,,,,,,,,254.7272,255.7267,,,,,,,,,,,,,,,,,,,,,,,,,,255.7268,256.4434,z,1,0.6837,,256.4434,256.4435,,0,87,87,253,1,254,notan,,,,,5,harmonic,1.85,nw,z,,,,,,,
,,,,2023-11-28_01h10.21.305,VH_v3,2023.2.3,Win32,59.98440405,,,,,,,,,,,,256.4436,257.4433,,,,,,,,,,,,,,,,,,,,,,,,,,257.4433,258.1098,m,1,0.6335,,258.1099,258.1099,,0,88,88,36,1,37,meslek,1082,49.1618,976,0.1067,6,harmonic,1.9,word,m,,,,,,,
,,,,2023-11-28_01h10.21.305,VH_v3,2023.2.3,Win32,59.98440405,,,,,,,,,,,,258.1102,259.0987,,,,,,,,,,,,,,,,,,,,,,,,,,259.0987,259.7429,m,1,0.6169,,259.7429,259.743,,0,89,89,163,1,164,teknik,3297,149.8026,2798,0.3059,6,harmonic,,word,m,,,,,,,
,,,,2023-11-28_01h10.21.305,VH_v3,2023.2.3,Win32,59.98440405,,,,,,,,,,,,259.7432,260.7427,,,,,,,,,,,,,,,,,,,,,,,,,,260.7428,261.7092,z,1,0.9432,,261.7093,261.7094,,0,90,90,294,1,295,fiyan,,,,,5,notharmonic,1.65,nw,z,,,,,,,
,,,,2023-11-28_01h10.21.305,VH_v3,2023.2.3,Win32,59.98440405,,,,,,,,,,,,261.7096,262.7092,,,,,,,,,,,,,,,,,,,,,,,,,,262.7092,263.2452,m,1,0.5137,,263.2452,263.2453,,0,91,91,4,1,5,metre,1156,52.5241,1015,0.111,5,harmonic,1.7,word,m,,,,,,,
,,,,2023-11-28_01h10.21.305,VH_v3,2023.2.3,Win32,59.98440405,,,,,,,,,,,,263.2454,264.2423,,,,,,,,,,,,,,,,,,,,,,,,,,264.2423,264.8422,z,1,0.5671,,264.8423,264.8423,,0,92,92,200,1,201,duftu,,,,,5,harmonic,2.5,nw,z,,,,,,,
,,,,2023-11-28_01h10.21.305,VH_v3,2023.2.3,Win32,59.98440405,,,,,,,,,,,,264.8426,265.8311,,,,,,,,,,,,,,,,,,,,,,,,,,265.8311,266.342,m,1,0.4899,,266.3421,266.3421,,0,93,93,1,1,2,erkek,6188,281.1582,5195,0.5679,5,harmonic,1.65,word,m,,,,,,,
,,,,2023-11-28_01h10.21.305,VH_v3,2023.2.3,Win32,59.98440405,,,,,,,,,,,,266.3425,267.3309,,,,,,,,,,,,,,,,,,,,,,,,,,267.331,267.9585,m,1,0.6064,,267.9585,267.9586,,0,94,94,61,1,62,yıldız,1775,80.649,1532,0.1675,6,harmonic,1.6,word,m,,,,,,,
,,,,2023-11-28_01h10.21.305,VH_v3,2023.2.3,Win32,59.98440405,,,,,,,,,,,,267.9587,268.9584,,,,,,,,,,,,,,,,,,,,,,,,,,268.9584,269.4749,m,1,0.4836,,269.475,269.4751,,0,95,95,51,1,52,ilginç,2803,127.3572,2690,0.2941,6,harmonic,1.8,word,m,,,,,,,
,,,,2023-11-28_01h10.21.305,VH_v3,2023.2.3,Win32,59.98440405,,,,,,,,,,,,269.4753,270.4748,,,,,,,,,,,,,,,,,,,,,,,,,,270.4748,271.1747,z,1,0.6698,,271.1748,271.1749,,0,96,96,270,1,271,sarip,,,,,5,notharmonic,1.65,nw,z,,,,,,,
,,,,2023-11-28_01h10.21.305,VH_v3,2023.2.3,Win32,59.98440405,,,,,,,,,,,,271.175,272.1746,,,,,,,,,,,,,,,,,,,,,,,,,,272.1746,273.1912,m,1,0.9878,,273.1912,273.1912,,0,97,97,122,1,123,sorun,4653,211.4139,4296,0.4696,5,harmonic,,word,m,,,,,,,
,,,,2023-11-28_01h10.21.305,VH_v3,2023.2.3,Win32,59.98440405,,,,,,,,,,,,273.1916,274.191,,,,,,,,,,,,,,,,,,,,,,,,,,274.191,274.9968,m,1,0.7836,,274.9969,274.9969,,0,98,98,97,1,98,kadın,10751,488.4828,8665,0.9473,5,harmonic,,word,m,,,,,,,
,,,,2023-11-28_01h10.21.305,VH_v3,2023.2.3,Win32,59.98440405,,,,,,,,,,,,274.9972,275.9908,,,,,,,,,,,,,,,,,,,,,,,,,,275.9908,276.6965,z,1,0.6834,,276.6965,276.6966,,0,99,99,310,1,311,moderp,,,,,6,notharmonic,,nw,z,,,,,,,
,,,,2023-11-28_01h10.21.305,VH_v3,2023.2.3,Win32,59.98440405,,,,,,,,,,,,276.697,277.6963,,,,,,,,,,,,,,,,,,,,,,,,,,277.6963,278.1572,m,1,0.4422,,278.1572,278.1572,,0,100,100,16,1,17,yavaş,5087,231.1331,2886,0.3155,5,harmonic,1.6,word,m,,,,,,,
,,,,2023-11-28_01h10.21.305,VH_v3,2023.2.3,Win32,59.98440405,,,,,,,,,,,,278.1575,279.1571,,,,,,,,,,,,,,,,,,,,,,,,,,279.1572,279.6904,m,1,0.5027,,279.6904,279.6904,,0,101,101,91,1,92,zaman,40307,1831.3902,33589,3.672,5,harmonic,,word,m,,,,,,,
,,,,2023-11-28_01h10.21.305,VH_v3,2023.2.3,Win32,59.98440405,,,,,,,,,,,,279.6906,280.6902,,,,,,,,,,,,,,,,,,,,,,,,,,280.6902,281.2401,m,1,0.5261,,281.2401,281.2402,,0,102,102,101,1,102,kabul,10003,454.4967,9014,0.9854,5,harmonic,,word,m,,,,,,,
,,,,2023-11-28_01h10.21.305,VH_v3,2023.2.3,Win32,59.98440405,,,,,,,,,,,,281.2404,282.24,,,,,,,,,,,,,,,,,,,,,,,,,,282.24,283.3625,m,1,1.1002,,283.3625,283.3625,,0,103,103,135,1,136,değer,3333,151.4383,3084,0.3371,5,harmonic,,word,m,,,,,,,
,,,,2023-11-28_01h10.21.305,VH_v3,2023.2.3,Win32,59.98440405,,,,,,,,,,,,283.3628,284.3564,,,,,,,,,,,,,,,,,,,,,,,,,,284.3564,284.9896,z,1,0.6046,,284.9896,284.9896,,0,104,104,320,1,321,sivaka,,,,,6,notharmonic,2.3,nw,z,,,,,,,
,,,,2023-11-28_01h10.21.305,VH_v3,2023.2.3,Win32,59.98440405,,,,,,,,,,,,284.9899,285.9784,,,,,,,,,,,,,,,,,,,,,,,,,,285.9784,286.5895,z,1,0.5851,,286.5895,286.5896,,0,105,105,278,1,279,camet,,,,,5,notharmonic,1.8,nw,z,,,,,,,
,,,,2023-11-28_01h10.21.305,VH_v3,2023.2.3,Win32,59.98440405,,,,,,,,,,,,286.5898,287.5894,,,,,,,,,,,,,,,,,,,,,,,,,,287.5894,288.4059,z,1,0.7903,,288.4059,288.4059,,0,106,106,234,1,235,taslam,,,,,6,harmonic,1.9,nw,z,,,,,,,
,,,,2023-11-28_01h10.21.305,VH_v3,2023.2.3,Win32,59.98440405,,,,,,,,,,,,288.4062,289.4058,,,,,,,,,,,,,,,,,,,,,,,,,,289.4059,290.1556,z,1,0.7182,,290.1556,290.1557,,0,107,107,309,1,310,yanele,,,,,6,notharmonic,1.85,nw,z,,,,,,,
,,,,2023-11-28_01h10.21.305,VH_v3,2023.2.3,Win32,59.98440405,,,,,,,,,,,,290.1559,291.1581,,,,,,,,,,,,,,,,,,,,,,,,,,291.1581,291.878,z,1,0.7001,,291.878,291.878,,0,108,108,204,1,205,cabor,,,,,5,harmonic,2.1,nw,z,,,,,,,
,,,,2023-11-28_01h10.21.305,VH_v3,2023.2.3,Win32,59.98440405,,,,,,,,,,,,291.8782,292.872,,,,,,,,,,,,,,,,,,,,,,,,,,292.872,293.6885,z,1,0.7845,,293.6886,293.6886,,0,109,109,235,1,236,mörüm,,,,,5,harmonic,1.9,nw,z,,,,,,,
,,,,2023-11-28_01h10.21.305,VH_v3,2023.2.3,Win32,59.98440405,,,,,,,,,,,,293.6889,294.6941,,,,,,,,,,,,,,,,,,,,,,,,,,294.6941,295.5886,m,1,0.8779,,295.5887,295.5889,,0,110,110,2,1,3,radyo,763,34.6677,636,0.0695,5,harmonic,1.85,word,m,,,,,,,
,,,,2023-11-28_01h10.21.305,VH_v3,2023.2.3,Win32,59.98440405,,,,,,,,,,,,295.5893,296.5771,,,,,,,,,,,,,,,,,,,,,,,,,,296.5771,297.1381,m,1,0.5339,,297.1381,297.1381,,0,111,111,164,1,165,toprak,1989,90.3723,1762,0.1926,6,harmonic,,word,m,,,,,,,
,,,,2023-11-28_01h10.21.305,VH_v3,2023.2.3,Win32,59.98440405,,,,,,,,,,,,297.1384,298.138,,,,,,,,,,,,,,,,,,,,,,,,,,298.138,298.7049,m,1,0.5446,,298.7049,298.705,,0,112,112,50,1,51,kanun,1198,54.4324,1010,0.1104,5,harmonic,1.6,word,m,,,,,,,
,,,,2023-11-28_01h10.21.305,VH_v3,2023.2.3,Win32,59.98440405,,,,,,,,,,,,298.7052,299.7045,,,,,,,,,,,,,,,,,,,,,,,,,,299.7045,300.421,z,1,0.6899,,300.4211,300.4211,,0,113,113,298,1,299,memzur,,,,,6,notharmonic,1.95,nw,z,,,,,,,
,,,,2023-11-28_01h10.21.305,VH_v3,2023.2.3,Win32,59.98440405,,,,,,,,,,,,300.4214,301.4209,,,,,,,,,,,,,,,,,,,,,,,,,,301.4209,302.0933,z,1,0.6501,,302.0933,302.0934,,0,114,114,336,1,337,zanit,,,,,5,notharmonic,1.85,nw,z,,,,,,,
,,,,2023-11-28_01h10.21.305,VH_v3,2023.2.3,Win32,59.98440405,,,,,,,,,,,,302.0936,303.0873,,,,,,,,,,,,,,,,,,,,,,,,,,303.0873,303.6706,z,0,0.5515,,303.6706,303.6706,,0,115,115,148,1,149,ışık,1814,82.421,1635,0.1787,4,harmonic,,word,m,,,,,,,
,,,,2023-11-28_01h10.21.305,VH_v3,2023.2.3,Win32,59.98440405,,,,,,,,,,,,303.6709,304.6704,,,,,,,,,,,,,,,,,,,,,,,,,,304.6704,305.3204,m,1,0.6239,,305.3204,305.3204,,0,116,116,75,1,76,roman,1499,68.1086,1281,0.14,5,harmonic,1.6,word,m,,,,,,,
,,,,2023-11-28_01h10.21.305,VH_v3,2023.2.3,Win32,59.98440405,,,,,,,,,,,,305.3207,306.3202,,,,,,,,,,,,,,,,,,,,,,,,,,306.3203,306.8593,m,1,0.5167,,306.8594,306.8594,,0,117,117,5,1,6,bebek,3301,149.9843,2794,0.3054,5,harmonic,1.6,word,m,,,,,,,
,,,,2023-11-28_01h10.21.305,VH_v3,2023.2.3,Win32,59.98440405,,,,,,,,,,,,306.8596,307.8584,,,,,,,,,,,,,,,,,,,,,,,,,,307.8584,308.5532,z,1,0.6739,,308.5533,308.5533,,0,118,118,353,1,354,medrar,,,,,6,notharmonic,2.05,nw,z,,,,,,,
,,,,2023-11-28_01h10.21.305,VH_v3,2023.2.3,Win32,59.98440405,,,,,,,,,,,,308.5535,309.5531,,,,,,,,,,,,,,,,,,,,,,,,,,309.5532,310.1697,z,1,0.5919,,310.1697,310.1698,,0,119,119,223,1,224,kamut,,,,,5,harmonic,1.5,nw,z,,,,,,,
,,,,2023-11-28_01h10.21.305,VH_v3,2023.2.3,Win32,59.98440405,,,,,,,,,,,,310.1699,311.1698,,,,,,,,,,,,,,,,,,,,,,,,,,311.1699,311.8756,m,1,0.6837,,311.8756,389.7763,space,0,120,120,78,1,79,ulusal,1551,70.4713,1355,0.1481,6,harmonic,1.75,word,m,77.8822,,,,,,
,,,,2023-11-28_01h10.21.305,VH_v3,2023.2.3,Win32,59.98440405,,,,,,,,,,,,389.7846,390.7761,,,,,,,,,,,,,,,,,,,,,,,,,,390.7761,392.7759,,0,,,392.776,392.7761,,0,121,121,240,1,241,şünle,,,,,5,harmonic,1.9,nw,z,,,,,,,
,,,,2023-11-28_01h10.21.305,VH_v3,2023.2.3,Win32,59.98440405,,,,,,,,,,,,392.7764,393.7757,,,,,,,,,,,,,,,,,,,,,,,,,,393.7757,394.5316,m,1,0.7335,,394.5316,394.5316,,0,122,122,82,1,83,aday,1028,46.7082,873,0.0954,4,harmonic,1.45,word,m,,,,,,,
,,,,2023-11-28_01h10.21.305,VH_v3,2023.2.3,Win32,59.98440405,,,,,,,,,,,,394.5317,395.5255,,,,,,,,,,,,,,,,,,,,,,,,,,395.5255,396.392,z,1,0.8369,,396.3921,396.3921,,0,123,123,264,1,265,yerfek,,,,,6,harmonic,2,nw,z,,,,,,,
,,,,2023-11-28_01h10.21.305,VH_v3,2023.2.3,Win32,59.98440405,,,,,,,,,,,,396.3925,397.3919,,,,,,,,,,,,,,,,,,,,,,,,,,397.3919,398.2918,z,1,0.8694,,398.2918,398.2918,,0,124,124,218,1,219,yaltın,,,,,6,harmonic,1.8,nw,z,,,,,,,
,,,,2023-11-28_01h10.21.305,VH_v3,2023.2.3,Win32,59.98440405,,,,,,,,,,,,398.2924,399.2917,,,,,,,,,,,,,,,,,,,,,,,,,,399.2917,399.8249,m,1,0.506,,399.825,399.825,,0,125,125,120,1,121,doğal,4821,219.0471,4328,0.4731,5,harmonic,,word,m,,,,,,,
,,,,2023-11-28_01h10.21.305,VH_v3,2023.2.3,Win32,59.98440405,,,,,,,,,,,,399.8252,400.8249,,,,,,,,,,,,,,,,,,,,,,,,,,400.8249,401.5139,z,1,0.6668,,401.514,401.514,,0,126,126,211,1,212,metel,,,,,5,harmonic,1.75,nw,z,,,,,,,
,,,,2023-11-28_01h10.21.305,VH_v3,2023.2.3,Win32,59.98440405,,,,,,,,,,,,401.5142,402.508,,,,,,,,,,,,,,,,,,,,,,,,,,402.508,403.1244,z,1,0.5874,,403.1245,403.1245,,0,127,127,242,1,243,ziye,,,,,4,harmonic,1.75,nw,z,,,,,,,
,,,,2023-11-28_01h10.21.305,VH_v3,2023.2.3,Win32,59.98440405,,,,,,,,,,,,403.1247,404.1244,,,,,,,,,,,,,,,,,,,,,,,,,,404.1244,404.697,m,1,0.5503,,404.697,404.6971,,0,128,128,71,1,72,örnek,3463,157.345,3266,0.357,5,harmonic,1.85,word,m,,,,,,,
,,,,2023-11-28_01h10.21.305,VH_v3,2023.2.3,Win32,59.98440405,,,,,,,,,,,,404.6973,405.6908,,,,,,,,,,,,,,,,,,,,,,,,,,405.6908,406.2465,m,1,0.5334,,406.2466,406.2466,,0,129,129,18,1,19,normal,4154,188.7413,3788,0.4141,6,harmonic,1.75,word,m,,,,,,,
,,,,2023-11-28_01h10.21.305,VH_v3,2023.2.3,Win32,59.98440405,,,,,,,,,,,,406.2468,407.2407,,,,,,,,,,,,,,,,,,,,,,,,,,407.2407,407.9239,m,1,0.6554,,407.9239,407.9239,,0,130,130,133,1,134,ortak,3666,166.5685,3331,0.3641,5,harmonic,,word,m,,,,,,,
,,,,2023-11-28_01h10.21.305,VH_v3,2023.2.3,Win32,59.98440405,,,,,,,,,,,,407.9242,408.9237,,,,,,,,,,,,,,,,,,,,,,,,,,408.9237,409.5403,m,1,0.5835,,409.5403,409.5404,,0,131,131,158,1,159,tercih,4577,207.9607,4282,0.4681,6,harmonic,,word,m,,,,,,,
,,,,2023-11-28_01h10.21.305,VH_v3,2023.2.3,Win32,59.98440405,,,,,,,,,,,,409.5406,410.5292,,,,,,,,,,,,,,,,,,,,,,,,,,410.5292,411.1568,z,1,0.6055,,411.1568,411.1568,,0,132,132,348,1,349,minsar,,,,,6,notharmonic,2,nw,z,,,,,,,
,,,,2023-11-28_01h10.21.305,VH_v3,2023.2.3,Win32,59.98440405,,,,,,,,,,,,411.1571,412.1567,,,,,,,,,,,,,,,,,,,,,,,,,,412.1567,412.9899,m,1,0.8002,,412.99,412.99,,0,133,133,107,1,108,sivil,1334,60.6117,1151,0.1258,5,harmonic,,word,m,,,,,,,
,,,,2023-11-28_01h10.21.305,VH_v3,2023.2.3,Win32,59.98440405,,,,,,,,,,,,412.9902,413.9954,,,,,,,,,,,,,,,,,,,,,,,,,,413.9955,414.7455,z,1,0.7334,,414.7456,414.7456,,0,134,134,289,1,290,minkon,,,,,6,notharmonic,2.2,nw,z,,,,,,,
,,,,2023-11-28_01h10.21.305,VH_v3,2023.2.3,Win32,59.98440405,,,,,,,,,,,,414.7458,415.7395,,,,,,,,,,,,,,,,,,,,,,,,,,415.7395,416.3228,z,1,0.5503,,416.3228,416.3228,,0,135,135,228,1,229,nekir,,,,,5,harmonic,1.65,nw,z,,,,,,,
,,,,2023-11-28_01h10.21.305,VH_v3,2023.2.3,Win32,59.98440405,,,,,,,,,,,,416.3231,417.3227,,,,,,,,,,,,,,,,,,,,,,,,,,417.3227,417.9118,m,1,0.5669,,417.9118,417.9119,,0,136,136,30,1,31,çevre,1662,75.5147,1409,0.154,5,harmonic,1.55,word,m,,,,,,,
,,,,2023-11-28_01h10.21.305,VH_v3,2023.2.3,Win32,59.98440405,,,,,,,,,,,,417.9121,418.9058,,,,,,,,,,,,,,,,,,,,,,,,,,418.9059,419.4057,m,1,0.4769,,419.4057,419.4058,,0,137,137,108,1,109,sabah,8179,371.6213,7277,0.7955,5,harmonic,,word,m,,,,,,,
,,,,2023-11-28_01h10.21.305,VH_v3,2023.2.3,Win32,59.98440405,,,,,,,,,,,,419.4061,420.4056,,,,,,,,,,,,,,,,,,,,,,,,,,420.4056,421.0389,m,1,0.6086,,421.0389,421.0389,,0,138,138,152,1,153,sene,6752,306.7841,5843,0.6388,4,harmonic,,word,m,,,,,,,
,,,,2023-11-28_01h10.21.305,VH_v3,2023.2.3,Win32,59.98440405,,,,,,,,,,,,421.0391,422.0414,,,,,,,,,,,,,,,,,,,,,,,,,,422.0414,422.6386,z,1,0.5771,,422.6387,422.6387,,0,139,139,316,1,317,karkiş,,,,,6,notharmonic,2,nw,z,,,,,,,
,,,,2023-11-28_01h10.21.305,VH_v3,2023.2.3,Win32,59.98440405,,,,,,,,,,,,422.6388,423.6386,,,,,,,,,,,,,,,,,,,,,,,,,,423.6387,424.1944,z,1,0.5335,,424.1944,424.1945,,0,140,140,312,1,313,izmal,,,,,5,notharmonic,1.8,nw,z,,,,,,,
,,,,2023-11-28_01h10.21.305,VH_v3,2023.2.3,Win32,59.98440405,,,,,,,,,,,,424.1947,425.1884,,,,,,,,,,,,,,,,,,,,,,,,,,425.1884,425.7049,z,1,0.49,,425.7049,425.7051,,0,141,141,356,1,357,ated,,,,,4,notharmonic,,nw,z,,,,,,,
,,,,2023-11-28_01h10.21.305,VH_v3,2023.2.3,Win32,59.98440405,,,,,,,,,,,,425.7053,426.7048,,,,,,,,,,,,,,,,,,,,,,,,,,426.7048,427.7547,z,1,1.0169,,427.7547,427.7549,,0,142,142,214,1,215,yapa,,,,,4,harmonic,1,nw,z,,,,,,,
,,,,2023-11-28_01h10.21.305,VH_v3,2023.2.3,Win32,59.98440405,,,,,,,,,,,,427.7553,428.7601,,,,,,,,,,,,,,,,,,,,,,,,,,428.7601,429.3878,z,1,0.6081,,429.3878,429.3878,,0,143,143,201,1,202,azlaş,,,,,5,harmonic,1.8,nw,z,,,,,,,
,,,,2023-11-28_01h10.21.305,VH_v3,2023.2.3,Win32,59.98440405,,,,,,,,,,,,429.3881,430.3877,,,,,,,,,,,,,,,,,,,,,,,,,,430.3877,430.9542,m,1,0.5419,,430.9543,430.9543,,0,144,144,111,1,112,soğan,1315,59.7484,1202,0.1314,5,harmonic,,word,m,,,,,,,
,,,,2023-11-28_01h10.21.305,VH_v3,2023.2.3,Win32,59.98440405,,,,,,,,,,,,430.9546,431.9542,,,,,,,,,,,,,,,,,,,,,,,,,,431.9542,432.5041,m,1,0.5263,,432.5041,432.5041,,0,145,145,98,1,99,yerel,1399,63.565,1187,0.1298,5,harmonic,,word,m,,,,,,,
,,,,2023-11-28_01h10.21.305,VH_v3,2023.2.3,Win32,59.98440405,,,,,,,,,,,,432.5044,433.504,,,,,,,,,,,,,,,,,,,,,,,,,,433.504,434.0706,z,1,0.538,,434.0706,434.0706,,0,146,146,195,1,196,habaş,,,,,5,harmonic,1.95,nw,z,,,,,,,
,,,,2023-11-28_01h10.21.305,VH_v3,2023.2.3,Win32,59.98440405,,,,,,,,,,,,434.0708,435.0704,,,,,,,,,,,,,,,,,,,,,,,,,,435.0704,435.5595,z,1,0.4667,,435.5595,435.5596,,0,147,147,296,1,297,taeri,,,,,5,notharmonic,2,nw,z,,,,,,,
,,,,2023-11-28_01h10.21.305,VH_v3,2023.2.3,Win32,59.98440405,,,,,,,,,,,,435.5597,436.5592,,,,,,,,,,,,,,,,,,,,,,,,,,436.5592,437.0261,m,1,0.4502,,437.0261,437.0261,,0,148,148,25,1,26,rapor,703,31.9415,617,0.0675,5,harmonic,1.8,word,m,,,,,,,
,,,,2023-11-28_01h10.21.305,VH_v3,2023.2.3,Win32,59.98440405,,,,,,,,,,,,437.0263,438.02,,,,,,,,,,,,,,,,,,,,,,,,,,438.02,438.5561,z,1,0.5138,,438.5561,438.5561,,0,149,149,205,1,206,sefbe,,,,,5,harmonic,2,nw,z,,,,,,,
,,,,2023-11-28_01h10.21.305,VH_v3,2023.2.3,Win32,59.98440405,,,,,,,,,,,,438.5563,439.5532,,,,,,,,,,,,,,,,,,,,,,,,,,439.5532,440.0089,m,0,0.4334,,440.0089,440.0089,,0,150,150,192,1,193,kusu,,,,,4,harmonic,1.5,nw,z,,,,,,,
,,,,2023-11-28_01h10.21.305,VH_v3,2023.2.3,Win32,59.98440405,,,,,,,,,,,,440.0092,441.003,,,,,,,,,,,,,,,,,,,,,,,,,,441.003,441.5529,m,1,0.5249,,441.5529,441.5529,,0,151,151,142,1,143,aşık,2464,111.9544,2129,0.2327,4,harmonic,,word,m,,,,,,,
,,,,2023-11-28_01h10.21.305,VH_v3,2023.2.3,Win32,59.98440405,,,,,,,,,,,,441.5531,442.5528,,,,,,,,,,,,,,,,,,,,,,,,,,442.5528,443.1695,m,1,0.5877,,443.1695,443.1696,,0,152,152,23,1,24,kurum,986,44.7999,882,0.0964,5,harmonic,1.75,word,m,,,,,,,
,,,,2023-11-28_01h10.21.305,VH_v3,2023.2.3,Win32,59.98440405,,,,,,,,,,,,443.1698,444.1582,,,,,,,,,,,,,,,,,,,,,,,,,,444.1582,444.8192,m,1,0.6336,,444.8192,444.8193,,0,153,153,28,1,29,parlak,1142,51.888,1088,0.1189,6,harmonic,1.7,word,m,,,,,,,
,,,,2023-11-28_01h10.21.305,VH_v3,2023.2.3,Win32,59.98440405,,,,,,,,,,,,444.8195,445.8191,,,,,,,,,,,,,,,,,,,,,,,,,,445.8191,446.5689,m,1,0.7241,,446.569,446.569,,0,154,154,166,1,167,tespit,1929,87.6461,1745,0.1908,6,harmonic,,word,m,,,,,,,
,,,,2023-11-28_01h10.21.305,VH_v3,2023.2.3,Win32,59.98440405,,,,,,,,,,,,446.5692,447.5579,,,,,,,,,,,,,,,,,,,,,,,,,,447.5579,448.0687,m,1,0.4879,,448.0688,448.0689,,0,155,155,153,1,154,para,7124,323.6863,5953,0.6508,4,harmonic,,word,m,,,,,,,
,,,,2023-11-28_01h10.21.305,VH_v3,2023.2.3,Win32,59.98440405,,,,,,,,,,,,448.0691,449.0687,,,,,,,,,,,,,,,,,,,,,,,,,,449.0687,449.6745,m,1,0.5836,,449.6745,449.6746,,0,156,156,112,1,113,genel,7752,352.2201,6893,0.7535,5,harmonic,,word,m,,,,,,,
,,,,2023-11-28_01h10.21.305,VH_v3,2023.2.3,Win32,59.98440405,,,,,,,,,,,,449.6748,450.6684,,,,,,,,,,,,,,,,,,,,,,,,,,450.6684,451.285,z,1,0.5849,,451.285,451.285,,0,157,157,199,1,200,repes,,,,,5,harmonic,2,nw,z,,,,,,,
,,,,2023-11-28_01h10.21.305,VH_v3,2023.2.3,Win32,59.98440405,,,,,,,,,,,,451.2853,452.2739,,,,,,,,,,,,,,,,,,,,,,,,,,452.2739,452.824,m,1,0.5335,,452.824,452.8241,,0,158,158,94,1,95,bütün,18630,846.4733,16711,1.8269,5,harmonic,,word,m,,,,,,,
,,,,2023-11-28_01h10.21.305,VH_v3,2023.2.3,Win32,59.98440405,,,,,,,,,,,,452.8243,453.818,,,,,,,,,,,,,,,,,,,,,,,,,,453.818,454.4346,z,1,0.5835,,454.4346,454.4347,,0,159,159,263,1,264,geğniş,,,,,6,harmonic,2.35,nw,z,,,,,,,
,,,,2023-11-28_01h10.21.305,VH_v3,2023.2.3,Win32,59.98440405,,,,,,,,,,,,454.435,455.4345,,,,,,,,,,,,,,,,,,,,,,,,,,455.4345,456.9177,m,0,1.4501,,456.9177,456.9177,,0,160,160,282,1,283,edap,,,,,4,notharmonic,1.7,nw,z,,,,,,,
,,,,2023-11-28_01h10.21.305,VH_v3,2023.2.3,Win32,59.98440405,,,,,,,,,,,,456.9181,457.9175,,,,,,,,,,,,,,,,,,,,,,,,,,457.9175,459.9172,,0,,,459.9172,459.9173,,0,161,161,283,1,284,sate,,,,,4,notharmonic,1.45,nw,z,,,,,,,
,,,,2023-11-28_01h10.21.305,VH_v3,2023.2.3,Win32,59.98440405,,,,,,,,,,,,459.9177,460.9061,,,,,,,,,,,,,,,,,,,,,,,,,,460.9061,462.1228,z,1,1.2001,,462.1229,462.1229,,0,162,162,346,1,347,mamit,,,,,5,notharmonic,1.85,nw,z,,,,,,,
,,,,2023-11-28_01h10.21.305,VH_v3,2023.2.3,Win32,59.98440405,,,,,,,,,,,,462.1231,463.1169,,,,,,,,,,,,,,,,,,,,,,,,,,463.1169,463.6892,z,1,0.5501,,463.6893,463.6894,,0,163,163,265,1,266,münrün,,,,,6,harmonic,2.75,nw,z,,,,,,,
,,,,2023-11-28_01h10.21.305,VH_v3,2023.2.3,Win32,59.98440405,,,,,,,,,,,,463.6896,464.6889,,,,,,,,,,,,,,,,,,,,,,,,,,464.6889,465.5332,z,1,0.8182,,465.5333,465.5334,,0,164,164,304,1,305,irak,,,,,4,notharmonic,1.55,nw,z,,,,,,,
,,,,2023-11-28_01h10.21.305,VH_v3,2023.2.3,Win32,59.98440405,,,,,,,,,,,,465.5336,466.5356,,,,,,,,,,,,,,,,,,,,,,,,,,466.5356,467.4829,m,1,0.9167,,467.4829,467.483,,0,165,165,47,1,48,kaza,740,33.6227,679,0.0742,4,harmonic,1.85,word,m,,,,,,,
,,,,2023-11-28_01h10.21.305,VH_v3,2023.2.3,Win32,59.98440405,,,,,,,,,,,,467.4832,468.4828,,,,,,,,,,,,,,,,,,,,,,,,,,468.4828,469.1327,m,1,0.6167,,469.1327,469.1328,,0,166,166,87,1,88,mümkün,6604,300.0596,6264,0.6848,6,harmonic,1.9,word,m,,,,,,,
,,,,2023-11-28_01h10.21.305,VH_v3,2023.2.3,Win32,59.98440405,,,,,,,,,,,,469.133,470.1215,,,,,,,,,,,,,,,,,,,,,,,,,,470.1215,470.7825,m,1,0.6334,,470.7825,470.7825,,0,167,167,19,1,20,ödül,1063,48.2985,926,0.1012,4,harmonic,1.7,word,m,,,,,,,
,,,,2023-11-28_01h10.21.305,VH_v3,2023.2.3,Win32,59.98440405,,,,,,,,,,,,470.7828,471.7714,,,,,,,,,,,,,,,,,,,,,,,,,,471.7714,472.3324,m,1,0.5335,,472.3325,472.3326,,0,168,168,92,1,93,büyük,32406,1472.4001,28224,3.0855,5,harmonic,,word,m,,,,,,,
,,,,2023-11-28_01h10.21.305,VH_v3,2023.2.3,Win32,59.98440405,,,,,,,,,,,,472.3329,473.3322,,,,,,,,,,,,,,,,,,,,,,,,,,473.3322,473.8547,m,1,0.5002,,473.8547,473.8547,,0,169,169,43,1,44,geniş,3380,153.5738,3185,0.3482,5,harmonic,1.35,word,m,,,,,,,
,,,,2023-11-28_01h10.21.305,VH_v3,2023.2.3,Win32,59.98440405,,,,,,,,,,,,473.8549,474.8487,,,,,,,,,,,,,,,,,,,,,,,,,,474.8487,475.4544,m,1,0.5835,,475.4544,475.4545,,0,170,170,32,1,33,temel,4231,192.2399,3851,0.421,5,harmonic,1.55,word,m,,,,,,,
,,,,2023-11-28_01h10.21.305,VH_v3,2023.2.3,Win32,59.98440405,,,,,,,,,,,,475.4547,476.4484,,,,,,,,,,,,,,,,,,,,,,,,,,476.4484,476.9679,m,1,0.4971,,476.9679,476.968,,0,171,171,130,1,131,sonuç,3768,171.203,3626,0.3964,5,harmonic,,word,m,,,,,,,
,,,,2023-11-28_01h10.21.305,VH_v3,2023.2.3,Win32,59.98440405,,,,,,,,,,,,476.9681,477.9705,,,,,,,,,,,,,,,,,,,,,,,,,,477.9705,478.4677,m,1,0.4806,,478.4677,478.4677,,0,172,172,103,1,104,yemek,9626,437.3673,8311,0.9086,5,harmonic,,word,m,,,,,,,
,,,,2023-11-28_01h10.21.305,VH_v3,2023.2.3,Win32,59.98440405,,,,,,,,,,,,478.468,479.4647,,,,,,,,,,,,,,,,,,,,,,,,,,479.4647,480.098,z,1,0.6016,,480.098,480.0981,,0,173,173,277,1,278,melbut,,,,,6,notharmonic,1.95,nw,z,,,,,,,
,,,,2023-11-28_01h10.21.305,VH_v3,2023.2.3,Win32,59.98440405,,,,,,,,,,,,480.0983,481.0978,,,,,,,,,,,,,,,,,,,,,,,,,,481.0978,481.6537,m,1,0.5335,,481.6538,481.6538,,0,174,174,65,1,66,fikir,2552,115.9528,2413,0.2638,5,harmonic,1.9,word,m,,,,,,,
,,,,2023-11-28_01h10.21.305,VH_v3,2023.2.3,Win32,59.98440405,,,,,,,,,,,,481.654,482.6477,,,,,,,,,,,,,,,,,,,,,,,,,,482.6477,483.2535,m,1,0.5835,,483.2535,483.2536,,0,175,175,26,1,27,sebze,1094,49.707,961,0.1051,5,harmonic,1.9,word,m,,,,,,,
,,,,2023-11-28_01h10.21.305,VH_v3,2023.2.3,Win32,59.98440405,,,,,,,,,,,,483.2539,484.2532,,,,,,,,,,,,,,,,,,,,,,,,,,484.2533,484.914,m,1,0.6376,,484.914,484.9141,,0,176,176,63,1,64,sultan,1756,79.7857,1368,0.1496,6,harmonic,1.55,word,m,,,,,,,
,,,,2023-11-28_01h10.21.305,VH_v3,2023.2.3,Win32,59.98440405,,,,,,,,,,,,484.9143,485.9139,,,,,,,,,,,,,,,,,,,,,,,,,,485.9139,486.4305,m,1,0.4835,,486.4305,486.4305,,0,177,177,172,1,173,halka,1196,54.3415,1014,0.1109,6,harmonic,,word,m,,,,,,,
,,,,2023-11-28_01h10.21.305,VH_v3,2023.2.3,Win32,59.98440405,,,,,,,,,,,,486.4308,487.436,,,,,,,,,,,,,,,,,,,,,,,,,,487.436,488.2136,z,1,0.7501,,488.2137,488.2137,,0,178,178,324,1,325,başi,,,,,4,notharmonic,1.5,nw,z,,,,,,,
,,,,2023-11-28_01h10.21.305,VH_v3,2023.2.3,Win32,59.98440405,,,,,,,,,,,,488.2139,489.2135,,,,,,,,,,,,,,,,,,,,,,,,,,489.2135,489.8134,m,1,0.5668,,489.8134,489.8135,,0,179,179,114,1,115,türlü,7010,318.5066,6559,0.717,5,harmonic,,word,m,,,,,,,
,,,,2023-11-28_01h10.21.305,VH_v3,2023.2.3,Win32,59.98440405,,,,,,,,,,,,489.8138,490.8189,,,,,,,,,,,,,,,,,,,,,,,,,,490.8189,491.43,z,1,0.5892,,491.43,491.4301,,0,180,180,317,1,318,zila,,,,,4,notharmonic,1.65,nw,z,,,,,,,
,,,,2023-11-28_01h10.21.305,VH_v3,2023.2.3,Win32,59.98440405,,,,,,,,,,,,491.4304,492.4297,,,,,,,,,,,,,,,,,,,,,,,,,,492.4297,493.113,z,1,0.65,,493.1131,493.1131,,0,181,181,281,1,282,ikva,,,,,4,notharmonic,1.85,nw,z,,,,,,,
,,,,2023-11-28_01h10.21.305,VH_v3,2023.2.3,Win32,59.98440405,,,,,,,,,,,,493.1134,494.1128,,,,,,,,,,,,,,,,,,,,,,,,,,494.1129,494.7127,z,1,0.5771,,494.7128,494.7129,,0,182,182,323,1,324,itkea,,,,,5,notharmonic,2.35,nw,z,,,,,,,
,,,,2023-11-28_01h10.21.305,VH_v3,2023.2.3,Win32,59.98440405,,,,,,,,,,,,494.7131,495.7127,,,,,,,,,,,,,,,,,,,,,,,,,,495.7127,496.2792,m,1,0.5345,,496.2792,496.2794,,0,183,183,96,1,97,mutlu,11447,520.1063,10279,1.1237,5,harmonic,,word,m,,,,,,,
,,,,2023-11-28_01h10.21.305,VH_v3,2023.2.3,Win32,59.98440405,,,,,,,,,,,,496.2796,497.2791,,,,,,,,,,,,,,,,,,,,,,,,,,497.2791,497.8957,m,1,0.5913,,497.8957,497.8958,,0,184,184,151,1,152,uzak,4809,218.5019,4564,0.4989,4,harmonic,,word,m,,,,,,,
,,,,2023-11-28_01h10.21.305,VH_v3,2023.2.3,Win32,59.98440405,,,,,,,,,,,,497.8961,498.8957,,,,,,,,,,,,,,,,,,,,,,,,,,498.8957,499.4623,m,1,0.5439,,499.4624,499.4624,,0,185,185,7,1,8,hizmet,3023,137.3531,2689,0.294,6,harmonic,1.75,word,m,,,,,,,
,,,,2023-11-28_01h10.21.305,VH_v3,2023.2.3,Win32,59.98440405,,,,,,,,,,,,499.4628,500.4621,,,,,,,,,,,,,,,,,,,,,,,,,,500.4621,501.012,m,1,0.5169,,501.012,501.0121,,0,186,186,140,1,141,ünlü,2684,121.9503,2457,0.2686,4,harmonic,,word,m,,,,,,,
,,,,2023-11-28_01h10.21.305,VH_v3,2023.2.3,Win32,59.98440405,,,,,,,,,,,,501.0124,502.0119,,,,,,,,,,,,,,,,,,,,,,,,,,502.0119,502.5451,m,1,0.5003,,502.5451,502.5452,,0,187,187,70,1,71,yarın,3440,156.3,3222,0.3522,5,harmonic,1.85,word,m,,,,,,,
,,,,2023-11-28_01h10.21.305,VH_v3,2023.2.3,Win32,59.98440405,,,,,,,,,,,,502.5453,503.5507,,,,,,,,,,,,,,,,,,,,,,,,,,503.5507,504.0783,m,1,0.5033,,504.0783,504.0783,,0,188,188,20,1,21,nefes,2871,130.4469,2553,0.2791,5,harmonic,1.8,word,m,,,,,,,
,,,,2023-11-28_01h10.21.305,VH_v3,2023.2.3,Win32,59.98440405,,,,,,,,,,,,504.0786,505.0781,,,,,,,,,,,,,,,,,,,,,,,,,,505.0781,505.528,m,1,0.4218,,505.528,505.5281,,0,189,189,55,1,56,akıl,2208,100.3228,2004,0.2191,4,harmonic,1,word,m,,,,,,,
,,,,2023-11-28_01h10.21.305,VH_v3,2023.2.3,Win32,59.98440405,,,,,,,,,,,,505.5283,506.528,,,,,,,,,,,,,,,,,,,,,,,,,,506.528,507.0445,m,1,0.4836,,507.0445,507.0446,,0,190,190,127,1,128,müzik,3999,181.6987,3340,0.3651,5,harmonic,,word,m,,,,,,,
,,,,2023-11-28_01h10.21.305,VH_v3,2023.2.3,Win32,59.98440405,,,,,,,,,,,,507.0448,508.0334,,,,,,,,,,,,,,,,,,,,,,,,,,508.0334,508.8443,z,1,0.7911,,508.8443,508.8444,,0,191,191,212,1,213,toya,,,,,4,harmonic,1.6,nw,z,,,,,,,
,,,,2023-11-28_01h10.21.305,VH_v3,2023.2.3,Win32,59.98440405,,,,,,,,,,,,508.8446,509.8331,,,,,,,,,,,,,,,,,,,,,,,,,,509.8331,510.4608,z,1,0.6001,,510.4608,510.4609,,0,192,192,331,1,332,ilcaet,,,,,6,notharmonic,2.7,nw,z,,,,,,,
,,,,2023-11-28_01h10.21.305,VH_v3,2023.2.3,Win32,59.98440405,,,,,,,,,,,,510.4611,511.4607,,,,,,,,,,,,,,,,,,,,,,,,,,511.4607,512.0106,m,1,0.521,,512.0106,512.0107,,0,193,193,21,1,22,duygu,1877,85.2834,1760,0.1924,5,harmonic,1.8,word,m,,,,,,,
,,,,2023-11-28_01h10.21.305,VH_v3,2023.2.3,Win32,59.98440405,,,,,,,,,,,,512.011,513.0104,,,,,,,,,,,,,,,,,,,,,,,,,,513.0105,513.6663,m,1,0.6337,,513.6663,513.6664,,0,194,194,14,1,15,yaşam,4348,197.5559,3918,0.4283,5,harmonic,1.4,word,m,,,,,,,
,,,,2023-11-28_01h10.21.305,VH_v3,2023.2.3,Win32,59.98440405,,,,,,,,,,,,513.6666,514.6602,,,,,,,,,,,,,,,,,,,,,,,,,,514.6602,515.4434,z,1,0.755,,515.4434,515.4435,,0,195,195,248,1,249,harık,,,,,5,harmonic,1.55,nw,z,,,,,,,
,,,,2023-11-28_01h10.21.305,VH_v3,2023.2.3,Win32,59.98440405,,,,,,,,,,,,515.4437,516.4323,,,,,,,,,,,,,,,,,,,,,,,,,,516.4323,517.0599,z,1,0.6002,,517.0599,517.0599,,0,196,196,339,1,340,halip,,,,,5,notharmonic,1.5,nw,z,,,,,,,
,,,,2023-11-28_01h10.21.305,VH_v3,2023.2.3,Win32,59.98440405,,,,,,,,,,,,517.0602,518.0654,,,,,,,,,,,,,,,,,,,,,,,,,,518.0654,518.6597,m,1,0.5694,,518.6598,518.6599,,0,197,197,144,1,145,şiir,2213,100.5499,1690,0.1848,4,harmonic,,word,m,,,,,,,
,,,,2023-11-28_01h10.21.305,VH_v3,2023.2.3,Win32,59.98440405,,,,,,,,,,,,518.6601,519.6596,,,,,,,,,,,,,,,,,,,,,,,,,,519.6596,520.2153,m,1,0.5334,,520.2153,520.2154,,0,198,198,174,1,175,hayran,1171,53.2056,1073,0.1173,6,harmonic,,word,m,,,,,,,
,,,,2023-11-28_01h10.21.305,VH_v3,2023.2.3,Win32,59.98440405,,,,,,,,,,,,520.2156,521.2094,,,,,,,,,,,,,,,,,,,,,,,,,,521.2094,521.7926,m,1,0.5574,,521.7927,521.7927,,0,199,199,83,1,84,küçük,14048,638.2854,12467,1.3629,5,harmonic,1.75,word,m,,,,,,,
,,,,2023-11-28_01h10.21.305,VH_v3,2023.2.3,Win32,59.98440405,,,,,,,,,,,,521.7929,522.7951,,,,,,,,,,,,,,,,,,,,,,,,,,522.7951,523.4151,m,1,0.6003,,523.4152,523.4152,,0,200,200,159,1,160,derece,4766,216.5481,4462,0.4878,6,harmonic,,word,m,,,,,,,
,,,,2023-11-28_01h10.21.305,VH_v3,2023.2.3,Win32,59.98440405,,,,,,,,,,,,523.4154,524.4089,,,,,,,,,,,,,,,,,,,,,,,,,,524.4089,524.9256,m,1,0.4835,,524.9257,524.9257,,0,201,201,85,1,86,geçmiş,4195,190.6042,4039,0.4415,6,harmonic,1.55,word,m,,,,,,,
,,,,2023-11-28_01h10.21.305,VH_v3,2023.2.3,Win32,59.98440405,,,,,,,,,,,,524.9259,525.9254,,,,,,,,,,,,,,,,,,,,,,,,,,525.9254,526.6312,z,1,0.6835,,526.6312,526.6313,,0,202,202,332,1,333,makik,,,,,5,notharmonic,1.6,nw,z,,,,,,,
,,,,2023-11-28_01h10.21.305,VH_v3,2023.2.3,Win32,59.98440405,,,,,,,,,,,,526.6315,527.6252,,,,,,,,,,,,,,,,,,,,,,,,,,527.6252,528.281,z,1,0.6336,,528.281,528.2811,,0,203,203,311,1,312,mase,,,,,4,notharmonic,1.75,nw,z,,,,,,,
,,,,2023-11-28_01h10.21.305,VH_v3,2023.2.3,Win32,59.98440405,,,,,,,,,,,,528.2813,529.275,,,,,,,,,,,,,,,,,,,,,,,,,,529.2751,529.8808,m,1,0.5832,,529.8808,529.8809,,0,204,204,68,1,69,ücret,734,33.35,634,0.0693,5,harmonic,1.85,word,m,,,,,,,
,,,,2023-11-28_01h10.21.305,VH_v3,2023.2.3,Win32,59.98440405,,,,,,,,,,,,529.8811,530.8748,,,,,,,,,,,,,,,,,,,,,,,,,,530.8748,531.6639,z,1,0.7667,,531.6639,531.6639,,0,205,205,185,1,186,bebin,,,,,5,harmonic,1.7,nw,z,,,,,,,
,,,,2023-11-28_01h10.21.305,VH_v3,2023.2.3,Win32,59.98440405,,,,,,,,,,,,531.6642,532.6579,,,,,,,,,,,,,,,,,,,,,,,,,,532.6579,533.9803,z,1,1.3001,,533.9803,533.9803,,0,206,206,227,1,228,temzik,,,,,6,harmonic,1.9,nw,z,,,,,,,
,,,,2023-11-28_01h10.21.305,VH_v3,2023.2.3,Win32,59.98440405,,,,,,,,,,,,533.9806,534.9743,,,,,,,,,,,,,,,,,,,,,,,,,,534.9743,535.5742,z,1,0.5749,,535.5742,535.5743,,0,207,207,340,1,341,zizon,,,,,5,notharmonic,1.85,nw,z,,,,,,,
,,,,2023-11-28_01h10.21.305,VH_v3,2023.2.3,Win32,59.98440405,,,,,,,,,,,,535.5745,536.5797,,,,,,,,,,,,,,,,,,,,,,,,,,536.5797,537.4965,z,1,0.9001,,537.4966,537.4966,,0,208,208,236,1,237,abar,,,,,4,harmonic,1.1,nw,z,,,,,,,
,,,,2023-11-28_01h10.21.305,VH_v3,2023.2.3,Win32,59.98440405,,,,,,,,,,,,537.4968,538.4931,,,,,,,,,,,,,,,,,,,,,,,,,,538.4931,539.1463,z,1,0.6335,,539.1463,539.1464,,0,209,209,338,1,339,kunik,,,,,5,notharmonic,1.8,nw,z,,,,,,,
,,,,2023-11-28_01h10.21.305,VH_v3,2023.2.3,Win32,59.98440405,,,,,,,,,,,,539.1466,540.1404,,,,,,,,,,,,,,,,,,,,,,,,,,540.1405,540.9294,m,1,0.7668,,540.9294,540.9295,,0,210,210,132,1,133,soğuk,3676,167.0229,3359,0.3672,5,harmonic,,word,m,,,,,,,
,,,,2023-11-28_01h10.21.305,VH_v3,2023.2.3,Win32,59.98440405,,,,,,,,,,,,540.9296,541.9233,,,,,,,,,,,,,,,,,,,,,,,,,,541.9234,542.8233,z,1,0.8748,,542.8233,542.8234,,0,211,211,318,1,319,sapel,,,,,5,notharmonic,1.9,nw,z,,,,,,,
,,,,2023-11-28_01h10.21.305,VH_v3,2023.2.3,Win32,59.98440405,,,,,,,,,,,,542.8236,543.8288,,,,,,,,,,,,,,,,,,,,,,,,,,543.8288,544.4063,m,1,0.5568,,544.4064,544.4064,,0,212,212,170,1,171,parmak,1268,57.6129,1165,0.1274,6,harmonic,,word,m,,,,,,,
,,,,2023-11-28_01h10.21.305,VH_v3,2023.2.3,Win32,59.98440405,,,,,,,,,,,,544.4067,545.3952,,,,,,,,,,,,,,,,,,,,,,,,,,545.3952,546.1121,z,1,0.7003,,546.1121,546.1122,,0,213,213,308,1,309,tasnin,,,,,6,notharmonic,1.85,nw,z,,,,,,,
,,,,2023-11-28_01h10.21.305,VH_v3,2023.2.3,Win32,59.98440405,,,,,,,,,,,,546.1125,547.1061,,,,,,,,,,,,,,,,,,,,,,,,,,547.1062,548.3226,m,1,1.1856,,548.3226,548.3227,,0,214,214,168,1,169,peynir,1421,64.5646,1248,0.1364,6,harmonic,,word,m,,,,,,,
,,,,2023-11-28_01h10.21.305,VH_v3,2023.2.3,Win32,59.98440405,,,,,,,,,,,,548.323,549.3249,,,,,,,,,,,,,,,,,,,,,,,,,,549.325,549.9282,m,1,0.5835,,549.9282,549.9283,,0,215,215,113,1,114,akşam,7480,339.8615,6833,0.747,5,harmonic,,word,m,,,,,,,
,,,,2023-11-28_01h10.21.305,VH_v3,2023.2.3,Win32,59.98440405,,,,,,,,,,,,549.9285,550.9223,,,,,,,,,,,,,,,,,,,,,,,,,,550.9223,551.6117,z,1,0.6671,,551.6117,551.6119,,0,216,216,315,1,316,çarki,,,,,5,notharmonic,1.85,nw,z,,,,,,,
,,,,2023-11-28_01h10.21.305,VH_v3,2023.2.3,Win32,59.98440405,,,,,,,,,,,,551.6122,552.6057,,,,,,,,,,,,,,,,,,,,,,,,,,552.6057,553.2052,z,1,0.5748,,553.2052,553.2053,,0,217,217,260,1,261,abaf,,,,,4,harmonic,1.85,nw,z,,,,,,,
,,,,2023-11-28_01h10.21.305,VH_v3,2023.2.3,Win32,59.98440405,,,,,,,,,,,,553.2056,554.2109,,,,,,,,,,,,,,,,,,,,,,,,,,554.2109,554.811,z,1,0.5835,,554.8111,554.8112,,0,218,218,226,1,227,mara,,,,,4,harmonic,1,nw,z,,,,,,,
,,,,2023-11-28_01h10.21.305,VH_v3,2023.2.3,Win32,59.98440405,,,,,,,,,,,,554.8114,555.8049,,,,,,,,,,,,,,,,,,,,,,,,,,555.8049,556.4716,z,1,0.6444,,556.4716,556.4717,,0,219,219,187,1,188,hücmet,,,,,6,harmonic,1.85,nw,z,,,,,,,
,,,,2023-11-28_01h10.21.305,VH_v3,2023.2.3,Win32,59.98440405,,,,,,,,,,,,556.4719,557.4714,,,,,,,,,,,,,,,,,,,,,,,,,,557.4715,558.0605,m,1,0.5669,,558.0605,558.0606,,0,220,220,38,1,39,dönem,2820,128.1296,2437,0.2664,5,harmonic,1.4,word,m,,,,,,,
,,,,2023-11-28_01h10.21.305,VH_v3,2023.2.3,Win32,59.98440405,,,,,,,,,,,,558.0608,559.0546,,,,,,,,,,,,,,,,,,,,,,,,,,559.0546,559.6877,m,1,0.6082,,559.6878,559.6879,,0,221,221,161,1,162,servis,3344,151.9381,2968,0.3245,6,harmonic,,word,m,,,,,,,
,,,,2023-11-28_01h10.21.305,VH_v3,2023.2.3,Win32,59.98440405,,,,,,,,,,,,559.6881,560.6766,,,,,,,,,,,,,,,,,,,,,,,,,,560.6766,561.2875,z,1,0.5932,,561.2876,561.2876,,0,222,222,359,1,360,hisaye,,,,,6,notharmonic,,nw,z,,,,,,,
,,,,2023-11-28_01h10.21.305,VH_v3,2023.2.3,Win32,59.98440405,,,,,,,,,,,,561.2879,562.2875,,,,,,,,,,,,,,,,,,,,,,,,,,562.2875,562.9207,m,1,0.6044,,562.9208,562.9208,,0,223,223,48,1,49,teşvik,932,42.3464,867,0.0948,6,harmonic,1.8,word,m,,,,,,,
,,,,2023-11-28_01h10.21.305,VH_v3,2023.2.3,Win32,59.98440405,,,,,,,,,,,,562.921,563.9206,,,,,,,,,,,,,,,,,,,,,,,,,,563.9206,564.4538,z,1,0.501,,564.4538,564.4539,,0,224,224,255,1,256,ubar,,,,,4,harmonic,1.7,nw,z,,,,,,,
,,,,2023-11-28_01h10.21.305,VH_v3,2023.2.3,Win32,59.98440405,,,,,,,,,,,,564.4541,565.4419,,,,,,,,,,,,,,,,,,,,,,,,,,565.442,565.887,m,1,0.4169,,565.887,565.887,,0,225,225,156,1,157,sosyal,5290,240.3566,4372,0.4779,6,harmonic,,word,m,,,,,,,
,,,,2023-11-28_01h10.21.305,VH_v3,2023.2.3,Win32,59.98440405,,,,,,,,,,,,565.8873,566.8869,,,,,,,,,,,,,,,,,,,,,,,,,,566.8869,567.5228,z,1,0.6137,,567.5229,567.5229,,0,226,226,352,1,353,yarema,,,,,6,notharmonic,1.95,nw,z,,,,,,,
,,,,2023-11-28_01h10.21.305,VH_v3,2023.2.3,Win32,59.98440405,,,,,,,,,,,,567.5233,568.52,,,,,,,,,,,,,,,,,,,,,,,,,,568.52,569.0091,m,1,0.4667,,569.0091,569.0091,,0,227,227,105,1,106,hafta,9257,420.6014,8254,0.9023,5,harmonic,,word,m,,,,,,,
,,,,2023-11-28_01h10.21.305,VH_v3,2023.2.3,Win32,59.98440405,,,,,,,,,,,,569.0094,570.0088,,,,,,,,,,,,,,,,,,,,,,,,,,570.0088,570.6589,m,1,0.6334,,570.6589,570.6589,,0,228,228,137,1,138,yoğun,3189,144.8955,3026,0.3308,5,harmonic,,word,m,,,,,,,
,,,,2023-11-28_01h10.21.305,VH_v3,2023.2.3,Win32,59.98440405,,,,,,,,,,,,570.6591,571.6529,,,,,,,,,,,,,,,,,,,,,,,,,,571.653,572.1862,z,1,0.5004,,572.1862,572.1862,,0,229,229,196,1,197,gakık,,,,,5,harmonic,2,nw,z,,,,,,,
,,,,2023-11-28_01h10.21.305,VH_v3,2023.2.3,Win32,59.98440405,,,,,,,,,,,,572.1865,573.1861,,,,,,,,,,,,,,,,,,,,,,,,,,573.1861,573.7193,m,1,0.5094,,573.7193,573.7194,,0,230,230,39,1,40,yaygın,1061,48.2076,1019,0.1114,6,harmonic,1.35,word,m,,,,,,,
,,,,2023-11-28_01h10.21.305,VH_v3,2023.2.3,Win32,59.98440405,,,,,,,,,,,,573.7196,574.7192,,,,,,,,,,,,,,,,,,,,,,,,,,574.7192,575.325,z,1,0.5836,,575.325,575.3251,,0,231,231,329,1,330,aniş,,,,,4,notharmonic,1.7,nw,z,,,,,,,
,,,,2023-11-28_01h10.21.305,VH_v3,2023.2.3,Win32,59.98440405,,,,,,,,,,,,575.3253,576.3191,,,,,,,,,,,,,,,,,,,,,,,,,,576.3191,576.9248,z,1,0.5835,,576.9248,576.9248,,0,232,232,207,1,208,çallak,,,,,6,harmonic,1.75,nw,z,,,,,,,
,,,,2023-11-28_01h10.21.305,VH_v3,2023.2.3,Win32,59.98440405,,,,,,,,,,,,576.9251,577.9245,,,,,,,,,,,,,,,,,,,,,,,,,,577.9245,578.4882,z,1,0.5471,,578.4882,578.4882,,0,233,233,213,1,214,yofa,,,,,4,harmonic,1.75,nw,z,,,,,,,
,,,,2023-11-28_01h10.21.305,VH_v3,2023.2.3,Win32,59.98440405,,,,,,,,,,,,578.4885,579.4853,,,,,,,,,,,,,,,,,,,,,,,,,,579.4853,580.1744,m,1,0.6668,,580.1744,580.1744,,0,234,234,110,1,111,beden,1333,60.5662,1119,0.1223,5,harmonic,,word,m,,,,,,,
,,,,2023-11-28_01h10.21.305,VH_v3,2023.2.3,Win32,59.98440405,,,,,,,,,,,,580.1746,581.174,,,,,,,,,,,,,,,,,,,,,,,,,,581.174,581.8516,m,1,0.6517,,581.8517,581.8517,,0,235,235,89,1,90,etki,1234,56.0681,1169,0.1278,4,harmonic,1.4,word,m,,,,,,,
,,,,2023-11-28_01h10.21.305,VH_v3,2023.2.3,Win32,59.98440405,,,,,,,,,,,,581.8519,582.8515,,,,,,,,,,,,,,,,,,,,,,,,,,582.8515,583.3906,z,1,0.5167,,583.3907,583.3907,,0,236,236,188,1,189,hüyen,,,,,5,harmonic,2,nw,z,,,,,,,
,,,,2023-11-28_01h10.21.305,VH_v3,2023.2.3,Win32,59.98440405,,,,,,,,,,,,583.3909,584.3846,,,,,,,,,,,,,,,,,,,,,,,,,,584.3846,584.9512,z,1,0.5419,,584.9513,584.9514,,0,237,237,233,1,234,alıt,,,,,4,harmonic,1.15,nw,z,,,,,,,
,,,,2023-11-28_01h10.21.305,VH_v3,2023.2.3,Win32,59.98440405,,,,,,,,,,,,584.9517,585.94,,,,,,,,,,,,,,,,,,,,,,,,,,585.94,586.5343,m,1,0.5747,,586.5343,586.5344,,0,238,238,121,1,122,şeker,4708,213.9128,4170,0.4559,5,harmonic,,word,m,,,,,,,
,,,,2023-11-28_01h10.21.305,VH_v3,2023.2.3,Win32,59.98440405,,,,,,,,,,,,586.5346,587.5233,,,,,,,,,,,,,,,,,,,,,,,,,,587.5233,588.1008,z,1,0.5515,,588.1008,588.1009,,0,239,239,307,1,308,masil,,,,,5,notharmonic,1.65,nw,z,,,,,,,
,,,,2023-11-28_01h10.21.305,VH_v3,2023.2.3,Win32,59.98440405,,,,,,,,,,,,588.1011,589.0896,,,,,,,,,,,,,,,,,,,,,,,,,,589.0896,589.7065,z,1,0.6003,,589.7065,605.9379,space,0,240,240,243,1,244,şiker,,,,,5,harmonic,1.85,nw,z,16.2149,,,,,,
,,,,2023-11-28_01h10.21.305,VH_v3,2023.2.3,Win32,59.98440405,,,,,,,,,,,,605.9464,606.9484,,,,,,,,,,,,,,,,,,,,,,,,,,606.9484,607.7149,z,1,0.734,,607.7149,607.715,,0,241,241,334,1,335,mecda,,,,,5,notharmonic,1.95,nw,z,,,,,,,
,,,,2023-11-28_01h10.21.305,VH_v3,2023.2.3,Win32,59.98440405,,,,,,,,,,,,607.7152,608.7039,,,,,,,,,,,,,,,,,,,,,,,,,,608.7039,609.2874,z,1,0.567,,609.2874,609.2875,,0,242,242,203,1,204,yırdun,,,,,6,harmonic,2.8,nw,z,,,,,,,
,,,,2023-11-28_01h10.21.305,VH_v3,2023.2.3,Win32,59.98440405,,,,,,,,,,,,609.2877,610.2869,,,,,,,,,,,,,,,,,,,,,,,,,,610.2869,610.8478,m,1,0.5388,,610.8478,610.8479,,0,243,243,119,1,120,rahat,4833,219.5924,4316,0.4718,5,harmonic,,word,m,,,,,,,
,,,,2023-11-28_01h10.21.305,VH_v3,2023.2.3,Win32,59.98440405,,,,,,,,,,,,610.8481,611.8509,,,,,,,,,,,,,,,,,,,,,,,,,,611.8509,612.4144,z,1,0.5434,,612.4145,612.4146,,0,244,244,222,1,223,çetiş,,,,,5,harmonic,1.7,nw,z,,,,,,,
,,,,2023-11-28_01h10.21.305,VH_v3,2023.2.3,Win32,59.98440405,,,,,,,,,,,,612.4151,613.4142,,,,,,,,,,,,,,,,,,,,,,,,,,613.4142,614.0308,z,1,0.5941,,614.0308,614.0308,,0,245,245,305,1,306,itba,,,,,4,notharmonic,1.85,nw,z,,,,,,,
,,,,2023-11-28_01h10.21.305,VH_v3,2023.2.3,Win32,59.98440405,,,,,,,,,,,,614.0311,615.0307,,,,,,,,,,,,,,,,,,,,,,,,,,615.0307,615.6667,m,1,0.6138,,615.6667,615.6668,,0,246,246,169,1,170,düzgün,1384,62.8835,1310,0.1432,6,harmonic,,word,m,,,,,,,
,,,,2023-11-28_01h10.21.305,VH_v3,2023.2.3,Win32,59.98440405,,,,,,,,,,,,615.667,616.6694,,,,,,,,,,,,,,,,,,,,,,,,,,616.6694,617.7803,z,1,1.0834,,617.7803,617.7804,,0,247,247,335,1,336,askif,,,,,5,notharmonic,2,nw,z,,,,,,,
,,,,2023-11-28_01h10.21.305,VH_v3,2023.2.3,Win32,59.98440405,,,,,,,,,,,,617.7805,618.7858,,,,,,,,,,,,,,,,,,,,,,,,,,618.7858,619.486,z,1,0.6834,,619.486,619.486,,0,248,248,219,1,220,tefsi,,,,,5,harmonic,1.8,nw,z,,,,,,,
,,,,2023-11-28_01h10.21.305,VH_v3,2023.2.3,Win32,59.98440405,,,,,,,,,,,,619.4863,620.48,,,,,,,,,,,,,,,,,,,,,,,,,,620.48,621.1191,m,1,0.6168,,621.1191,621.1192,,0,249,249,134,1,135,hanım,3564,161.934,3151,0.3445,5,harmonic,,word,m,,,,,,,
,,,,2023-11-28_01h10.21.305,VH_v3,2023.2.3,Win32,59.98440405,,,,,,,,,,,,621.1194,622.1133,,,,,,,,,,,,,,,,,,,,,,,,,,622.1133,622.7631,m,1,0.6204,,622.7631,622.7634,,0,250,250,3,1,4,minik,2916,132.4915,2594,0.2836,5,harmonic,1.6,word,m,,,,,,,
,,,,2023-11-28_01h10.21.305,VH_v3,2023.2.3,Win32,59.98440405,,,,,,,,,,,,622.7638,623.7655,,,,,,,,,,,,,,,,,,,,,,,,,,623.7655,624.3628,z,1,0.5731,,624.3628,624.3629,,0,251,251,303,1,304,hahir,,,,,5,notharmonic,1.55,nw,z,,,,,,,
,,,,2023-11-28_01h10.21.305,VH_v3,2023.2.3,Win32,59.98440405,,,,,,,,,,,,624.3631,625.3627,,,,,,,,,,,,,,,,,,,,,,,,,,625.3627,626.0793,m,1,0.69,,626.0793,626.0794,,0,252,252,139,1,140,okul,2685,121.9958,2381,0.2603,4,harmonic,,word,m,,,,,,,
,,,,2023-11-28_01h10.21.305,VH_v3,2023.2.3,Win32,59.98440405,,,,,,,,,,,,626.0797,627.0791,,,,,,,,,,,,,,,,,,,,,,,,,,627.0791,627.7682,m,1,0.6667,,627.7682,627.7682,,0,253,253,171,1,172,şirket,1227,55.75,1022,0.1117,6,harmonic,,word,m,,,,,,,
,,,,2023-11-28_01h10.21.305,VH_v3,2023.2.3,Win32,59.98440405,,,,,,,,,,,,627.7685,628.768,,,,,,,,,,,,,,,,,,,,,,,,,,628.768,629.6182,z,1,0.8337,,629.6182,629.6182,,0,254,254,287,1,288,beran,,,,,5,notharmonic,1.75,nw,z,,,,,,,
,,,,2023-11-28_01h10.21.305,VH_v3,2023.2.3,Win32,59.98440405,,,,,,,,,,,,629.6184,630.612,,,,,,,,,,,,,,,,,,,,,,,,,,630.612,631.2678,z,1,0.6335,,631.2678,631.2679,,0,255,255,221,1,222,ülük,,,,,4,harmonic,1.55,nw,z,,,,,,,
,,,,2023-11-28_01h10.21.305,VH_v3,2023.2.3,Win32,59.98440405,,,,,,,,,,,,631.268,632.2618,,,,,,,,,,,,,,,,,,,,,,,,,,632.2619,632.8784,z,0,0.5887,,632.8785,632.8785,,0,256,256,155,1,156,devlet,5766,261.9842,4854,0.5306,6,harmonic,,word,m,,,,,,,
,,,,2023-11-28_01h10.21.305,VH_v3,2023.2.3,Win32,59.98440405,,,,,,,,,,,,632.8787,633.8839,,,,,,,,,,,,,,,,,,,,,,,,,,633.8839,634.6007,m,1,0.7002,,634.6007,634.6008,,0,257,257,84,1,85,ülke,3121,141.8059,2801,0.3062,4,harmonic,1.65,word,m,,,,,,,
,,,,2023-11-28_01h10.21.305,VH_v3,2023.2.3,Win32,59.98440405,,,,,,,,,,,,634.601,635.5948,,,,,,,,,,,,,,,,,,,,,,,,,,635.5949,636.1838,m,1,0.5668,,636.1839,636.1839,,0,258,258,62,1,63,cümle,1911,86.8283,1765,0.193,5,harmonic,1.85,word,m,,,,,,,
,,,,2023-11-28_01h10.21.305,VH_v3,2023.2.3,Win32,59.98440405,,,,,,,,,,,,636.1841,637.1834,,,,,,,,,,,,,,,,,,,,,,,,,,637.1834,637.8778,m,1,0.6692,,637.8778,637.8778,,0,259,259,123,1,124,güneş,4371,198.6009,3610,0.3946,5,harmonic,,word,m,,,,,,,
,,,,2023-11-28_01h10.21.305,VH_v3,2023.2.3,Win32,59.98440405,,,,,,,,,,,,637.8782,638.8802,,,,,,,,,,,,,,,,,,,,,,,,,,638.8802,639.4668,m,1,0.5668,,639.4668,639.4669,,0,260,260,99,1,100,çocuk,10612,482.1672,8979,0.9816,5,harmonic,,word,m,,,,,,,
,,,,2023-11-28_01h10.21.305,VH_v3,2023.2.3,Win32,59.98440405,,,,,,,,,,,,639.4671,640.4607,,,,,,,,,,,,,,,,,,,,,,,,,,640.4607,641.5634,m,1,1.0804,,641.5634,641.5635,,0,261,261,69,1,70,forma,719,32.6685,597,0.0653,5,harmonic,1.8,word,m,,,,,,,
,,,,2023-11-28_01h10.21.305,VH_v3,2023.2.3,Win32,59.98440405,,,,,,,,,,,,641.5637,642.5605,,,,,,,,,,,,,,,,,,,,,,,,,,642.5606,643.9496,z,1,1.3668,,643.9496,643.9497,,0,262,262,261,1,262,kübün,,,,,5,harmonic,2,nw,z,,,,,,,
,,,,2023-11-28_01h10.21.305,VH_v3,2023.2.3,Win32,59.98440405,,,,,,,,,,,,643.9499,644.9492,,,,,,,,,,,,,,,,,,,,,,,,,,644.9492,645.6101,m,1,0.6336,,645.6101,645.6102,,0,263,263,41,1,42,zengin,2193,99.6412,2015,0.2203,6,harmonic,1.65,word,m,,,,,,,
,,,,2023-11-28_01h10.21.305,VH_v3,2023.2.3,Win32,59.98440405,,,,,,,,,,,,645.6105,646.599,,,,,,,,,,,,,,,,,,,,,,,,,,646.599,647.3765,m,1,0.7543,,647.3765,647.3766,,0,264,264,115,1,116,uygun,6757,307.0113,6297,0.6884,5,harmonic,,word,m,,,,,,,
,,,,2023-11-28_01h10.21.305,VH_v3,2023.2.3,Win32,59.98440405,,,,,,,,,,,,647.3768,648.3822,,,,,,,,,,,,,,,,,,,,,,,,,,648.3822,649.1156,m,1,0.7168,,649.1156,649.1156,,0,265,265,178,1,179,aykırı,1094,49.707,1022,0.1117,6,harmonic,,word,m,,,,,,,
,,,,2023-11-28_01h10.21.305,VH_v3,2023.2.3,Win32,59.98440405,,,,,,,,,,,,649.1158,650.1095,,,,,,,,,,,,,,,,,,,,,,,,,,650.1095,650.8987,m,1,0.7669,,650.8987,650.8987,,0,266,266,176,1,177,tebrik,1117,50.7521,1102,0.1205,6,harmonic,,word,m,,,,,,,
,,,,2023-11-28_01h10.21.305,VH_v3,2023.2.3,Win32,59.98440405,,,,,,,,,,,,650.8989,651.8983,,,,,,,,,,,,,,,,,,,,,,,,,,651.8983,652.5758,m,1,0.6515,,652.5759,652.5759,,0,267,267,40,1,41,tepki,1695,77.0141,1578,0.1725,5,harmonic,1.55,word,m,,,,,,,
,,,,2023-11-28_01h10.21.305,VH_v3,2023.2.3,Win32,59.98440405,,,,,,,,,,,,652.5761,653.5648,,,,,,,,,,,,,,,,,,,,,,,,,,653.5648,654.2482,z,1,0.6668,,654.2482,654.2482,,0,268,268,268,1,269,hayot,,,,,5,harmonic,,nw,z,,,,,,,
,,,,2023-11-28_01h10.21.305,VH_v3,2023.2.3,Win32,59.98440405,,,,,,,,,,,,654.2485,655.2423,,,,,,,,,,,,,,,,,,,,,,,,,,655.2423,657.0115,z,1,1.747,,657.0115,657.0115,,0,269,269,224,1,225,binci,,,,,5,harmonic,1.5,nw,z,,,,,,,
,,,,2023-11-28_01h10.21.305,VH_v3,2023.2.3,Win32,59.98440405,,,,,,,,,,,,657.0117,658.0085,,,,,,,,,,,,,,,,,,,,,,,,,,658.0086,658.7143,z,1,0.6835,,658.7144,658.7144,,0,270,270,206,1,207,bülse,,,,,5,harmonic,2,nw,z,,,,,,,
,,,,2023-11-28_01h10.21.305,VH_v3,2023.2.3,Win32,59.98440405,,,,,,,,,,,,658.7146,659.7083,,,,,,,,,,,,,,,,,,,,,,,,,,659.7084,660.5582,z,1,0.8172,,660.5582,660.5582,,0,271,271,183,1,184,titik,,,,,5,harmonic,1.7,nw,z,,,,,,,
,,,,2023-11-28_01h10.21.305,VH_v3,2023.2.3,Win32,59.98440405,,,,,,,,,,,,660.5584,661.558,,,,,,,,,,,,,,,,,,,,,,,,,,661.5581,662.2246,z,1,0.6335,,662.2246,662.2247,,0,272,272,217,1,218,dötim,,,,,5,harmonic,2,nw,z,,,,,,,
,,,,2023-11-28_01h10.21.305,VH_v3,2023.2.3,Win32,59.98440405,,,,,,,,,,,,662.225,663.2302,,,,,,,,,,,,,,,,,,,,,,,,,,663.2302,663.8411,z,1,0.5908,,663.8411,663.8412,,0,273,273,246,1,247,ülmet,,,,,5,harmonic,1.9,nw,z,,,,,,,
,,,,2023-11-28_01h10.21.305,VH_v3,2023.2.3,Win32,59.98440405,,,,,,,,,,,,663.8414,664.8409,,,,,,,,,,,,,,,,,,,,,,,,,,664.8409,665.3967,z,1,0.5336,,665.3968,665.3968,,0,274,274,215,1,216,maflek,,,,,6,harmonic,2.15,nw,z,,,,,,,
,,,,2023-11-28_01h10.21.305,VH_v3,2023.2.3,Win32,59.98440405,,,,,,,,,,,,665.397,666.3964,,,,,,,,,,,,,,,,,,,,,,,,,,666.3964,666.9907,z,1,0.5669,,666.9907,666.9908,,0,275,275,210,1,211,şatla,,,,,5,harmonic,1.5,nw,z,,,,,,,
,,,,2023-11-28_01h10.21.305,VH_v3,2023.2.3,Win32,59.98440405,,,,,,,,,,,,666.991,667.9906,,,,,,,,,,,,,,,,,,,,,,,,,,667.9906,668.5071,m,1,0.4877,,668.5071,668.5072,,0,276,276,29,1,30,huzur,1911,86.8283,1799,0.1967,5,harmonic,1.8,word,m,,,,,,,
,,,,2023-11-28_01h10.21.305,VH_v3,2023.2.3,Win32,59.98440405,,,,,,,,,,,,668.5074,669.5127,,,,,,,,,,,,,,,,,,,,,,,,,,669.5127,670.0737,m,1,0.5335,,670.0737,670.0738,,0,277,277,125,1,126,hızlı,4167,189.332,3688,0.4032,5,harmonic,,word,m,,,,,,,
,,,,2023-11-28_01h10.21.305,VH_v3,2023.2.3,Win32,59.98440405,,,,,,,,,,,,670.074,671.0736,,,,,,,,,,,,,,,,,,,,,,,,,,671.0736,671.696,m,1,0.6001,,671.6961,671.6961,,0,278,278,124,1,125,yarım,4177,189.7863,3852,0.4211,5,harmonic,,word,m,,,,,,,
,,,,2023-11-28_01h10.21.305,VH_v3,2023.2.3,Win32,59.98440405,,,,,,,,,,,,671.6963,672.69,,,,,,,,,,,,,,,,,,,,,,,,,,672.69,673.4732,z,1,0.7585,,673.4733,673.4733,,0,279,279,194,1,195,yabum,,,,,5,harmonic,2,nw,z,,,,,,,
,,,,2023-11-28_01h10.21.305,VH_v3,2023.2.3,Win32,59.98440405,,,,,,,,,,,,673.4736,674.4787,,,,,,,,,,,,,,,,,,,,,,,,,,674.4787,675.3455,z,1,0.85,,675.3455,675.3455,,0,280,280,300,1,301,iştal,,,,,5,notharmonic,1.8,nw,z,,,,,,,
,,,,2023-11-28_01h10.21.305,VH_v3,2023.2.3,Win32,59.98440405,,,,,,,,,,,,675.3457,676.3395,,,,,,,,,,,,,,,,,,,,,,,,,,676.3395,677.0394,z,1,0.6736,,677.0394,677.0394,,0,281,281,290,1,291,nüda,,,,,4,notharmonic,1.9,nw,z,,,,,,,
,,,,2023-11-28_01h10.21.305,VH_v3,2023.2.3,Win32,59.98440405,,,,,,,,,,,,677.0397,678.0394,,,,,,,,,,,,,,,,,,,,,,,,,,678.0394,678.6951,m,1,0.6335,,678.6951,678.6952,,0,282,282,165,1,166,fırsat,1952,88.6911,1863,0.2037,6,harmonic,,word,m,,,,,,,
,,,,2023-11-28_01h10.21.305,VH_v3,2023.2.3,Win32,59.98440405,,,,,,,,,,,,678.6954,679.6946,,,,,,,,,,,,,,,,,,,,,,,,,,679.6947,680.239,m,1,0.5169,,680.2391,680.2391,,0,283,283,33,1,34,moda,1381,62.7472,1231,0.1346,4,harmonic,1.55,word,m,,,,,,,
,,,,2023-11-28_01h10.21.305,VH_v3,2023.2.3,Win32,59.98440405,,,,,,,,,,,,680.2396,681.2446,,,,,,,,,,,,,,,,,,,,,,,,,,681.2446,681.8106,m,1,0.5494,,681.8106,681.8107,,0,284,284,129,1,130,yorum,3801,172.7024,3473,0.3797,5,harmonic,,word,m,,,,,,,
,,,,2023-11-28_01h10.21.305,VH_v3,2023.2.3,Win32,59.98440405,,,,,,,,,,,,681.8109,682.8053,,,,,,,,,,,,,,,,,,,,,,,,,,682.8053,683.2887,m,1,0.4502,,683.2888,683.2888,,0,285,285,157,1,158,eğitim,4784,217.366,3846,0.4204,6,harmonic,,word,m,,,,,,,
,,,,2023-11-28_01h10.21.305,VH_v3,2023.2.3,Win32,59.98440405,,,,,,,,,,,,683.2892,684.2775,,,,,,,,,,,,,,,,,,,,,,,,,,684.2775,684.7884,m,1,0.4835,,684.7884,684.7885,,0,286,286,179,1,180,mesele,995,45.2089,929,0.1016,6,harmonic,,word,m,,,,,,,
,,,,2023-11-28_01h10.21.305,VH_v3,2023.2.3,Win32,59.98440405,,,,,,,,,,,,684.7887,685.7909,,,,,,,,,,,,,,,,,,,,,,,,,,685.7909,686.3274,m,1,0.5167,,686.3275,686.3275,,0,287,287,160,1,161,günlük,3421,155.4367,3201,0.3499,6,harmonic,,word,m,,,,,,,
,,,,2023-11-28_01h10.21.305,VH_v3,2023.2.3,Win32,59.98440405,,,,,,,,,,,,686.3277,687.3214,,,,,,,,,,,,,,,,,,,,,,,,,,687.3215,687.9438,m,1,0.6001,,687.9439,687.9439,,0,288,288,102,1,103,kaşık,1355,61.5658,1177,0.1287,5,harmonic,,word,m,,,,,,,
,,,,2023-11-28_01h10.21.305,VH_v3,2023.2.3,Win32,59.98440405,,,,,,,,,,,,687.9441,688.9435,,,,,,,,,,,,,,,,,,,,,,,,,,688.9435,689.6603,z,1,0.7001,,689.6603,689.6605,,0,289,289,184,1,185,medme,,,,,5,harmonic,1.95,nw,z,,,,,,,
,,,,2023-11-28_01h10.21.305,VH_v3,2023.2.3,Win32,59.98440405,,,,,,,,,,,,689.6606,690.66,,,,,,,,,,,,,,,,,,,,,,,,,,690.66,691.3876,z,1,0.7015,,691.3877,691.3877,,0,290,290,191,1,192,unot,,,,,4,harmonic,1.85,nw,z,,,,,,,
,,,,2023-11-28_01h10.21.305,VH_v3,2023.2.3,Win32,59.98440405,,,,,,,,,,,,691.3879,692.3875,,,,,,,,,,,,,,,,,,,,,,,,,,692.3875,693.0592,z,1,0.6495,,693.0592,693.0592,,0,291,291,273,1,274,sisaf,,,,,5,notharmonic,2,nw,z,,,,,,,
,,,,2023-11-28_01h10.21.305,VH_v3,2023.2.3,Win32,59.98440405,,,,,,,,,,,,693.0595,694.0539,,,,,,,,,,,,,,,,,,,,,,,,,,694.0539,695.4204,z,1,1.3334,,695.4205,695.4205,,0,292,292,288,1,289,talif,,,,,5,notharmonic,1.5,nw,z,,,,,,,
,,,,2023-11-28_01h10.21.305,VH_v3,2023.2.3,Win32,59.98440405,,,,,,,,,,,,695.4208,696.4203,,,,,,,,,,,,,,,,,,,,,,,,,,696.4203,697.0535,m,1,0.6001,,697.0536,697.0536,,0,293,293,100,1,101,zayıf,1359,61.7476,1285,0.1405,5,harmonic,,word,m,,,,,,,
,,,,2023-11-28_01h10.21.305,VH_v3,2023.2.3,Win32,59.98440405,,,,,,,,,,,,697.0539,698.0589,,,,,,,,,,,,,,,,,,,,,,,,,,698.059,698.6533,m,1,0.5695,,698.6533,698.6535,,0,294,294,54,1,55,yedek,825,37.4847,732,0.08,5,harmonic,1.65,word,m,,,,,,,
,,,,2023-11-28_01h10.21.305,VH_v3,2023.2.3,Win32,59.98440405,,,,,,,,,,,,698.6538,699.6532,,,,,,,,,,,,,,,,,,,,,,,,,,699.6532,700.4424,z,1,0.7669,,700.4425,700.4425,,0,295,295,343,1,344,tazen,,,,,5,notharmonic,1.8,nw,z,,,,,,,
,,,,2023-11-28_01h10.21.305,VH_v3,2023.2.3,Win32,59.98440405,,,,,,,,,,,,700.4428,701.4363,,,,,,,,,,,,,,,,,,,,,,,,,,701.4363,702.0755,m,1,0.6168,,702.0755,702.0755,,0,296,296,73,1,74,millet,1658,75.3329,1508,0.1649,6,harmonic,1.7,word,m,,,,,,,
,,,,2023-11-28_01h10.21.305,VH_v3,2023.2.3,Win32,59.98440405,,,,,,,,,,,,702.0757,703.0694,,,,,,,,,,,,,,,,,,,,,,,,,,703.0694,703.7418,z,1,0.6501,,703.7418,703.7419,,0,297,297,291,1,292,kasge,,,,,5,notharmonic,2,nw,z,,,,,,,
,,,,2023-11-28_01h10.21.305,VH_v3,2023.2.3,Win32,59.98440405,,,,,,,,,,,,703.7421,704.7358,,,,,,,,,,,,,,,,,,,,,,,,,,704.7358,706.169,z,1,1.4043,,706.1691,706.1691,,0,298,298,269,1,270,kanon,,,,,5,harmonic,,nw,z,,,,,,,
,,,,2023-11-28_01h10.21.305,VH_v3,2023.2.3,Win32,59.98440405,,,,,,,,,,,,706.1693,707.169,,,,,,,,,,,,,,,,,,,,,,,,,,707.169,707.758,m,1,0.5668,,707.7581,707.7581,,0,299,299,154,1,155,oyun,4926,223.8179,3995,0.4367,4,harmonic,,word,m,,,,,,,
,,,,2023-11-28_01h10.21.305,VH_v3,2023.2.3,Win32,59.98440405,,,,,,,,,,,,707.7583,708.7519,,,,,,,,,,,,,,,,,,,,,,,,,,708.752,709.4411,m,1,0.6667,,709.4411,709.4412,,0,300,300,95,1,96,koyun,1431,65.019,1292,0.1412,5,harmonic,,word,m,,,,,,,
,,,,2023-11-28_01h10.21.305,VH_v3,2023.2.3,Win32,59.98440405,,,,,,,,,,,,709.4413,710.4407,,,,,,,,,,,,,,,,,,,,,,,,,,710.4407,711.7075,z,1,1.25,,711.7076,711.7076,,0,301,301,293,1,294,mosil,,,,,5,notharmonic,1.85,nw,z,,,,,,,
,,,,2023-11-28_01h10.21.305,VH_v3,2023.2.3,Win32,59.98440405,,,,,,,,,,,,711.7078,712.7073,,,,,,,,,,,,,,,,,,,,,,,,,,712.7073,713.4239,z,1,0.7001,,713.4239,713.424,,0,302,302,190,1,191,banyak,,,,,6,harmonic,1.85,nw,z,,,,,,,
,,,,2023-11-28_01h10.21.305,VH_v3,2023.2.3,Win32,59.98440405,,,,,,,,,,,,713.4242,714.4179,,,,,,,,,,,,,,,,,,,,,,,,,,714.418,714.9737,m,1,0.5334,,714.9737,714.9738,,0,303,303,145,1,146,ilgi,2144,97.4149,2041,0.2231,4,harmonic,,word,m,,,,,,,
,,,,2023-11-28_01h10.21.305,VH_v3,2023.2.3,Win32,59.98440405,,,,,,,,,,,,714.974,715.9734,,,,,,,,,,,,,,,,,,,,,,,,,,715.9734,716.651,z,1,0.6591,,716.6511,716.6511,,0,304,304,347,1,348,şeylam,,,,,6,notharmonic,2.4,nw,z,,,,,,,
,,,,2023-11-28_01h10.21.305,VH_v3,2023.2.3,Win32,59.98440405,,,,,,,,,,,,716.6514,717.6509,,,,,,,,,,,,,,,,,,,,,,,,,,717.6509,718.3035,m,1,0.6304,,718.3036,718.3036,,0,305,305,11,1,12,umut,1988,90.3268,1818,0.1987,4,harmonic,1.55,word,m,,,,,,,
,,,,2023-11-28_01h10.21.305,VH_v3,2023.2.3,Win32,59.98440405,,,,,,,,,,,,718.3038,719.3007,,,,,,,,,,,,,,,,,,,,,,,,,,719.3007,720.2898,m,1,0.9669,,720.2898,720.2899,,0,306,306,141,1,142,kuru,2669,121.2688,2372,0.2593,4,harmonic,,word,m,,,,,,,
,,,,2023-11-28_01h10.21.305,VH_v3,2023.2.3,Win32,59.98440405,,,,,,,,,,,,720.2901,721.2837,,,,,,,,,,,,,,,,,,,,,,,,,,721.2838,721.9669,m,1,0.66,,721.967,721.967,,0,307,307,37,1,38,hayvan,2363,107.3653,1894,0.2071,6,harmonic,1.5,word,m,,,,,,,
,,,,2023-11-28_01h10.21.305,VH_v3,2023.2.3,Win32,59.98440405,,,,,,,,,,,,721.9673,722.9724,,,,,,,,,,,,,,,,,,,,,,,,,,722.9725,723.4668,m,1,0.4668,,723.4668,723.4669,,0,308,308,10,1,11,bardak,1728,78.5135,1569,0.1715,6,harmonic,1.6,word,m,,,,,,,
,,,,2023-11-28_01h10.21.305,VH_v3,2023.2.3,Win32,59.98440405,,,,,,,,,,,,723.4671,724.4667,,,,,,,,,,,,,,,,,,,,,,,,,,724.4668,725.1861,m,1,0.6971,,725.1861,725.1862,,0,309,309,66,1,67,sanık,768,34.8949,699,0.0764,5,harmonic,1.85,word,m,,,,,,,
,,,,2023-11-28_01h10.21.305,VH_v3,2023.2.3,Win32,59.98440405,,,,,,,,,,,,725.1863,726.1831,,,,,,,,,,,,,,,,,,,,,,,,,,726.1831,726.8692,m,1,0.6638,,726.8692,726.8692,,0,310,310,149,1,150,ince,4045,183.7888,3429,0.3749,4,harmonic,,word,m,,,,,,,
,,,,2023-11-28_01h10.21.305,VH_v3,2023.2.3,Win32,59.98440405,,,,,,,,,,,,726.8694,727.8689,,,,,,,,,,,,,,,,,,,,,,,,,,727.869,728.5356,z,1,0.6472,,728.5356,728.5357,,0,311,311,302,1,303,desum,,,,,5,notharmonic,2,nw,z,,,,,,,
,,,,2023-11-28_01h10.21.305,VH_v3,2023.2.3,Win32,59.98440405,,,,,,,,,,,,728.5358,729.5383,,,,,,,,,,,,,,,,,,,,,,,,,,729.5384,730.6218,z,1,1.0668,,730.6218,730.6219,,0,312,312,351,1,352,eula,,,,,4,notharmonic,1.65,nw,z,,,,,,,
,,,,2023-11-28_01h10.21.305,VH_v3,2023.2.3,Win32,59.98440405,,,,,,,,,,,,730.6221,731.6157,,,,,,,,,,,,,,,,,,,,,,,,,,731.6157,732.5657,z,1,0.9218,,732.5657,732.5658,,0,313,313,325,1,326,icanat,,,,,6,notharmonic,2.25,nw,z,,,,,,,
,,,,2023-11-28_01h10.21.305,VH_v3,2023.2.3,Win32,59.98440405,,,,,,,,,,,,732.5661,733.5544,,,,,,,,,,,,,,,,,,,,,,,,,,733.5545,734.188,m,1,0.6168,,734.188,734.188,,0,314,314,150,1,151,ağır,4441,201.7814,3961,0.433,4,harmonic,,word,m,,,,,,,
,,,,2023-11-28_01h10.21.305,VH_v3,2023.2.3,Win32,59.98440405,,,,,,,,,,,,734.1883,735.1845,,,,,,,,,,,,,,,,,,,,,,,,,,735.1845,735.8319,m,1,0.6194,,735.8319,735.832,,0,315,315,46,1,47,takım,4370,198.5555,3726,0.4073,5,harmonic,1.7,word,m,,,,,,,
,,,,2023-11-28_01h10.21.305,VH_v3,2023.2.3,Win32,59.98440405,,,,,,,,,,,,735.8322,736.8318,,,,,,,,,,,,,,,,,,,,,,,,,,736.8319,737.5484,m,1,0.6911,,737.5484,737.5484,,0,316,316,12,1,13,konu,5400,245.3546,5110,0.5586,4,harmonic,1,word,m,,,,,,,
,,,,2023-11-28_01h10.21.305,VH_v3,2023.2.3,Win32,59.98440405,,,,,,,,,,,,737.5487,738.5482,,,,,,,,,,,,,,,,,,,,,,,,,,738.5482,739.7207,z,1,1.1501,,739.7207,739.7208,,0,317,317,258,1,259,meryeş,,,,,6,harmonic,2.35,nw,z,,,,,,,
,,,,2023-11-28_01h10.21.305,VH_v3,2023.2.3,Win32,59.98440405,,,,,,,,,,,,739.7209,740.7146,,,,,,,,,,,,,,,,,,,,,,,,,,740.7146,741.6811,z,1,0.9335,,741.6811,741.6813,,0,318,318,252,1,253,savanı,,,,,6,harmonic,1.85,nw,z,,,,,,,
,,,,2023-11-28_01h10.21.305,VH_v3,2023.2.3,Win32,59.98440405,,,,,,,,,,,,741.6816,742.6837,,,,,,,,,,,,,,,,,,,,,,,,,,742.6837,743.7475,z,1,1.0431,,743.7475,743.7476,,0,319,319,280,1,281,düktan,,,,,6,notharmonic,2.35,nw,z,,,,,,,
,,,,2023-11-28_01h10.21.305,VH_v3,2023.2.3,Win32,59.98440405,,,,,,,,,,,,743.7478,744.753,,,,,,,,,,,,,,,,,,,,,,,,,,744.7531,745.464,z,1,0.6891,,745.464,745.4641,,0,320,320,271,1,272,icazi,,,,,5,notharmonic,1.95,nw,z,,,,,,,
,,,,2023-11-28_01h10.21.305,VH_v3,2023.2.3,Win32,59.98440405,,,,,,,,,,,,745.4644,746.4528,,,,,,,,,,,,,,,,,,,,,,,,,,746.4529,747.1638,z,1,0.6879,,747.1638,747.1639,,0,321,321,186,1,187,yadal,,,,,5,harmonic,1.85,nw,z,,,,,,,
,,,,2023-11-28_01h10.21.305,VH_v3,2023.2.3,Win32,59.98440405,,,,,,,,,,,,747.1642,748.1693,,,,,,,,,,,,,,,,,,,,,,,,,,748.1693,748.7665,z,1,0.5805,,748.7665,748.7666,,0,322,322,238,1,239,bodu,,,,,4,harmonic,1.85,nw,z,,,,,,,
,,,,2023-11-28_01h10.21.305,VH_v3,2023.2.3,Win32,59.98440405,,,,,,,,,,,,748.7668,749.7692,,,,,,,,,,,,,,,,,,,,,,,,,,749.7692,750.5858,m,1,0.8001,,750.5858,750.5859,,0,323,323,59,1,60,köpek,1044,47.4352,901,0.0985,5,harmonic,1.75,word,m,,,,,,,
,,,,2023-11-28_01h10.21.305,VH_v3,2023.2.3,Win32,59.98440405,,,,,,,,,,,,750.5862,751.5855,,,,,,,,,,,,,,,,,,,,,,,,,,751.5855,752.4298,z,1,0.8167,,752.4299,752.4299,,0,324,324,322,1,323,galiç,,,,,5,notharmonic,1.8,nw,z,,,,,,,
,,,,2023-11-28_01h10.21.305,VH_v3,2023.2.3,Win32,59.98440405,,,,,,,,,,,,752.4302,753.4296,,,,,,,,,,,,,,,,,,,,,,,,,,753.4297,754.0963,z,1,0.6375,,754.0963,754.0963,,0,325,325,181,1,182,erben,,,,,5,harmonic,1.8,nw,z,,,,,,,
,,,,2023-11-28_01h10.21.305,VH_v3,2023.2.3,Win32,59.98440405,,,,,,,,,,,,754.0966,755.096,,,,,,,,,,,,,,,,,,,,,,,,,,755.0961,755.8018,m,1,0.6835,,755.8019,755.8019,,0,326,326,60,1,61,doğu,2105,95.6429,1823,0.1993,4,harmonic,1.05,word,m,,,,,,,
,,,,2023-11-28_01h10.21.305,VH_v3,2023.2.3,Win32,59.98440405,,,,,,,,,,,,755.8021,756.7959,,,,,,,,,,,,,,,,,,,,,,,,,,756.7959,757.785,z,1,0.9669,,757.785,757.785,,0,327,327,198,1,199,ıdol,,,,,4,harmonic,1.9,nw,z,,,,,,,
,,,,2023-11-28_01h10.21.305,VH_v3,2023.2.3,Win32,59.98440405,,,,,,,,,,,,757.7852,758.779,,,,,,,,,,,,,,,,,,,,,,,,,,758.779,759.3847,m,1,0.5836,,759.3848,759.3848,,0,328,328,116,1,117,tatlı,5515,250.5797,4949,0.541,5,harmonic,,word,m,,,,,,,
,,,,2023-11-28_01h10.21.305,VH_v3,2023.2.3,Win32,59.98440405,,,,,,,,,,,,759.385,760.3844,,,,,,,,,,,,,,,,,,,,,,,,,,760.3844,761.0845,z,1,0.6834,,761.0845,761.0846,,0,329,329,292,1,293,semun,,,,,5,notharmonic,1.85,nw,z,,,,,,,
,,,,2023-11-28_01h10.21.305,VH_v3,2023.2.3,Win32,59.98440405,,,,,,,,,,,,761.0848,762.0785,,,,,,,,,,,,,,,,,,,,,,,,,,762.0785,762.8176,z,1,0.7169,,762.8176,762.8177,,0,330,330,259,1,260,üreyeş,,,,,6,harmonic,2.9,nw,z,,,,,,,
,,,,2023-11-28_01h10.21.305,VH_v3,2023.2.3,Win32,59.98440405,,,,,,,,,,,,762.8179,763.8116,,,,,,,,,,,,,,,,,,,,,,,,,,763.8116,765.2506,z,1,1.4166,,765.2506,765.2507,,0,331,331,341,1,342,sizika,,,,,6,notharmonic,2.45,nw,z,,,,,,,
,,,,2023-11-28_01h10.21.305,VH_v3,2023.2.3,Win32,59.98440405,,,,,,,,,,,,765.2508,766.2448,,,,,,,,,,,,,,,,,,,,,,,,,,766.2448,766.9279,z,1,0.6503,,766.928,766.928,,0,332,332,202,1,203,kulom,,,,,5,harmonic,2,nw,z,,,,,,,
,,,,2023-11-28_01h10.21.305,VH_v3,2023.2.3,Win32,59.98440405,,,,,,,,,,,,766.9283,767.9277,,,,,,,,,,,,,,,,,,,,,,,,,,767.9277,769.5501,m,1,1.6,,769.5501,769.5502,,0,333,333,15,1,16,hayat,7922,359.9443,7314,0.7996,5,harmonic,1.9,word,m,,,,,,,
,,,,2023-11-28_01h10.21.305,VH_v3,2023.2.3,Win32,59.98440405,,,,,,,,,,,,769.5504,770.5441,,,,,,,,,,,,,,,,,,,,,,,,,,770.5441,771.1998,z,1,0.6335,,771.1998,771.1998,,0,334,334,266,1,267,yannoz,,,,,6,harmonic,2.85,nw,z,,,,,,,
,,,,2023-11-28_01h10.21.305,VH_v3,2023.2.3,Win32,59.98440405,,,,,,,,,,,,771.2,772.1939,,,,,,,,,,,,,,,,,,,,,,,,,,772.1939,772.8996,m,1,0.6835,,772.8996,772.8997,,0,335,335,167,1,168,yoğurt,1484,67.4271,1359,0.1486,6,harmonic,,word,m,,,,,,,
,,,,2023-11-28_01h10.21.305,VH_v3,2023.2.3,Win32,59.98440405,,,,,,,,,,,,772.8999,773.8993,,,,,,,,,,,,,,,,,,,,,,,,,,773.8993,774.816,m,1,0.9001,,774.8161,774.8161,,0,336,336,74,1,75,başarı,1398,63.5196,1300,0.1421,6,harmonic,1.2,word,m,,,,,,,
,,,,2023-11-28_01h10.21.305,VH_v3,2023.2.3,Win32,59.98440405,,,,,,,,,,,,774.8163,775.8157,,,,,,,,,,,,,,,,,,,,,,,,,,775.8157,776.5825,z,1,0.7502,,776.5825,776.5826,,0,337,337,250,1,251,çonsa,,,,,5,harmonic,1.9,nw,z,,,,,,,
,,,,2023-11-28_01h10.21.305,VH_v3,2023.2.3,Win32,59.98440405,,,,,,,,,,,,776.5828,777.5821,,,,,,,,,,,,,,,,,,,,,,,,,,777.5822,778.7156,z,1,1.1168,,778.7157,778.7157,,0,338,338,344,1,345,adalüt,,,,,6,notharmonic,,nw,z,,,,,,,
,,,,2023-11-28_01h10.21.305,VH_v3,2023.2.3,Win32,59.98440405,,,,,,,,,,,,778.7159,779.7096,,,,,,,,,,,,,,,,,,,,,,,,,,779.7097,780.5122,z,1,0.7804,,780.5122,780.5123,,0,339,339,326,1,327,melaş,,,,,5,notharmonic,1.8,nw,z,,,,,,,
,,,,2023-11-28_01h10.21.305,VH_v3,2023.2.3,Win32,59.98440405,,,,,,,,,,,,780.5125,781.5094,,,,,,,,,,,,,,,,,,,,,,,,,,781.5094,782.1151,m,1,0.5835,,782.1151,782.1152,,0,340,340,136,1,137,süper,3256,147.9397,2989,0.3268,5,harmonic,,word,m,,,,,,,
,,,,2023-11-28_01h10.21.305,VH_v3,2023.2.3,Win32,59.98440405,,,,,,,,,,,,782.1154,783.1148,,,,,,,,,,,,,,,,,,,,,,,,,,783.1148,783.7649,m,1,0.6334,,783.765,783.765,,0,341,341,128,1,129,güçlü,3924,178.291,3614,0.3951,5,harmonic,,word,m,,,,,,,
,,,,2023-11-28_01h10.21.305,VH_v3,2023.2.3,Win32,59.98440405,,,,,,,,,,,,783.7652,784.7616,,,,,,,,,,,,,,,,,,,,,,,,,,784.7616,785.448,z,1,0.6668,,785.4481,785.4482,,0,342,342,327,1,328,zena,,,,,4,notharmonic,1.65,nw,z,,,,,,,
,,,,2023-11-28_01h10.21.305,VH_v3,2023.2.3,Win32,59.98440405,,,,,,,,,,,,785.4483,786.4477,,,,,,,,,,,,,,,,,,,,,,,,,,786.4478,787.2483,z,1,0.7839,,787.2483,787.2484,,0,343,343,276,1,277,dapel,,,,,5,notharmonic,1.9,nw,z,,,,,,,
,,,,2023-11-28_01h10.21.305,VH_v3,2023.2.3,Win32,59.98440405,,,,,,,,,,,,787.2487,788.2475,,,,,,,,,,,,,,,,,,,,,,,,,,788.2475,788.8917,m,1,0.619,,788.8917,788.8918,,0,344,344,143,1,144,isim,2366,107.5017,2163,0.2365,4,harmonic,,word,m,,,,,,,
,,,,2023-11-28_01h10.21.305,VH_v3,2023.2.3,Win32,59.98440405,,,,,,,,,,,,788.892,789.8917,,,,,,,,,,,,,,,,,,,,,,,,,,789.8918,790.5474,z,1,0.6335,,790.5474,790.5475,,0,345,345,209,1,210,çirre,,,,,5,harmonic,2,nw,z,,,,,,,
,,,,2023-11-28_01h10.21.305,VH_v3,2023.2.3,Win32,59.98440405,,,,,,,,,,,,790.5477,791.5471,,,,,,,,,,,,,,,,,,,,,,,,,,791.5471,792.1805,z,1,0.6168,,792.1805,792.1807,,0,346,346,349,1,350,mane,,,,,4,notharmonic,1.45,nw,z,,,,,,,
,,,,2023-11-28_01h10.21.305,VH_v3,2023.2.3,Win32,59.98440405,,,,,,,,,,,,792.1809,793.1746,,,,,,,,,,,,,,,,,,,,,,,,,,793.1746,793.8469,z,1,0.6501,,793.847,793.847,,0,347,347,225,1,226,sakam,,,,,5,harmonic,1.45,nw,z,,,,,,,
,,,,2023-11-28_01h10.21.305,VH_v3,2023.2.3,Win32,59.98440405,,,,,,,,,,,,793.8472,794.8466,,,,,,,,,,,,,,,,,,,,,,,,,,794.8466,795.9635,z,1,1.1001,,795.9635,795.9635,,0,348,348,231,1,232,çekir,,,,,5,harmonic,1.45,nw,z,,,,,,,
,,,,2023-11-28_01h10.21.305,VH_v3,2023.2.3,Win32,59.98440405,,,,,,,,,,,,795.9637,796.9573,,,,,,,,,,,,,,,,,,,,,,,,,,796.9573,797.7464,z,1,0.7668,,797.7465,797.7466,,0,349,349,358,1,359,ksalik,,,,,6,notharmonic,,nw,z,,,,,,,
,,,,2023-11-28_01h10.21.305,VH_v3,2023.2.3,Win32,59.98440405,,,,,,,,,,,,797.7468,798.743,,,,,,,,,,,,,,,,,,,,,,,,,,798.743,799.4071,m,1,0.634,,799.4071,799.4072,,0,350,350,45,1,46,bilgi,5981,271.7529,5353,0.5852,5,harmonic,1.5,word,m,,,,,,,
,,,,2023-11-28_01h10.21.305,VH_v3,2023.2.3,Win32,59.98440405,,,,,,,,,,,,799.4074,800.4069,,,,,,,,,,,,,,,,,,,,,,,,,,800.407,801.1129,z,1,0.6836,,801.1129,801.113,,0,351,351,241,1,242,sılman,,,,,6,harmonic,2,nw,z,,,,,,,
,,,,2023-11-28_01h10.21.305,VH_v3,2023.2.3,Win32,59.98440405,,,,,,,,,,,,801.1133,802.1069,,,,,,,,,,,,,,,,,,,,,,,,,,802.1069,802.9291,m,1,0.8,,802.9292,802.9292,,0,352,352,24,1,25,yorgun,1153,52.3877,1108,0.1211,6,harmonic,1.55,word,m,,,,,,,
,,,,2023-11-28_01h10.21.305,VH_v3,2023.2.3,Win32,59.98440405,,,,,,,,,,,,802.9294,803.9288,,,,,,,,,,,,,,,,,,,,,,,,,,803.9288,804.5123,m,1,0.5668,,804.5123,804.5124,,0,353,353,177,1,178,mutfak,1110,50.434,1032,0.1128,6,harmonic,,word,m,,,,,,,
,,,,2023-11-28_01h10.21.305,VH_v3,2023.2.3,Win32,59.98440405,,,,,,,,,,,,804.5125,805.5119,,,,,,,,,,,,,,,,,,,,,,,,,,805.5119,806.0954,m,1,0.5668,,806.0954,806.0954,,0,354,354,34,1,35,hoca,1893,86.0104,1526,0.1668,4,harmonic,1.45,word,m,,,,,,,
,,,,2023-11-28_01h10.21.305,VH_v3,2023.2.3,Win32,59.98440405,,,,,,,,,,,,806.0956,807.0895,,,,,,,,,,,,,,,,,,,,,,,,,,807.0895,807.7786,z,1,0.6668,,807.7787,807.7787,,0,355,355,295,1,296,takime,,,,,6,notharmonic,1.9,nw,z,,,,,,,
,,,,2023-11-28_01h10.21.305,VH_v3,2023.2.3,Win32,59.98440405,,,,,,,,,,,,807.7789,808.7725,,,,,,,,,,,,,,,,,,,,,,,,,,808.7725,809.9282,m,1,1.1335,,809.9283,809.9283,,0,356,356,6,1,7,hayal,4498,204.3713,4079,0.4459,5,harmonic,1.45,word,m,,,,,,,
,,,,2023-11-28_01h10.21.305,VH_v3,2023.2.3,Win32,59.98440405,,,,,,,,,,,,809.9285,810.9222,,,,,,,,,,,,,,,,,,,,,,,,,,810.9223,811.6614,z,1,0.7168,,811.6614,811.6615,,0,357,357,257,1,258,dulom,,,,,5,harmonic,2.3,nw,z,,,,,,,
,,,,2023-11-28_01h10.21.305,VH_v3,2023.2.3,Win32,59.98440405,,,,,,,,,,,,811.6618,812.661,,,,,,,,,,,,,,,,,,,,,,,,,,812.661,813.2778,z,1,0.6001,,813.2779,813.2779,,0,358,358,355,1,356,daneta,,,,,6,notharmonic,2.4,nw,z,,,,,,,
,,,,2023-11-28_01h10.21.305,VH_v3,2023.2.3,Win32,59.98440405,,,,,,,,,,,,813.2781,814.2774,,,,,,,,,,,,,,,,,,,,,,,,,,814.2774,814.8218,m,1,0.5169,,814.8218,814.8219,,0,359,359,0,1,1,sanat,3121,141.8059,2485,0.2717,5,harmonic,1.4,word,m,,,,,,,
,,,,2023-11-28_01h10.21.305,VH_v3,2023.2.3,Win32,59.98440405,,,,,,,,,,,,,,,,,,,,,,,,,,,,,,,,,,,,,,,,,,,,,,,,,,,,,,,,,,,,,,,,,,814.8225,817.4944,space,2.6495,