anket.started,anket.stopped,participant,session,date,expName,psychopyVersion,OS,frameRate,Welcome_screen.started,Welcome_screen.stopped,key_respwelcome.keys,key_respwelcome.rt,key_respwelcome.duration,intro_x.thisRepN,intro_x.thisTrialN,intro_x.thisN,intro_x.thisIndex,intro_x.ran,Introduction,Fixation.started,Fixation.stopped,Studypractice.started,Studypractice.stopped,key_respstudy.keys,key_respstudy.corr,key_respstudy.rt,key_respstudy.duration,rt,corr,Feedback.started,Feedback.stopped,practice_loop.thisRepN,practice_loop.thisTrialN,practice_loop.thisN,practice_loop.thisIndex,practice_loop.ran,item_nr_p,target_p,isHarmonic_p,target_cond_p,CorrAns_p,Instraction.started,Instraction.stopped,key_respınstraction.keys,key_respınstraction.rt,key_respınstraction.duration,TestTrial.started,TestTrial.stopped,key_respTest.keys,key_respTest.corr,key_respTest.rt,key_respTest.duration,Pause.started,Pause.stopped,key_resp_xx.keys,test_loop.thisRepN,test_loop.thisTrialN,test_loop.thisN,test_loop.thisIndex,test_loop.ran,item_nr,target,BlogFreq_A1,BlogFreqpm_A1,BlogCD_A1,BlogCDPc_A1,WordLength_A1,isHarmonic_A1,old20,target_cond,CorrAns,key_resp_xx.rt,key_resp_xx.duration,Goodbye_screen.started,Goodbye_screen.stopped,key_respgoodbye.keys,key_respgoodbye.rt,key_respgoodbye.duration
0,0.001,,,2023-11-29_00h56.08.982,VH_v3,2023.2.3,MacIntel,58.82352941,,,,,,,,,,,,,,,,,,,,,,,,,,,,,,,,,,,,,,,,,,,,,,,,,,,,,,,,,,,,,,,,,,,,,,
,,,,2023-11-29_00h56.08.982,VH_v3,2023.2.3,MacIntel,58.82352941,0.012,2.174,space,2.145,,0,0,0,0,1,"Deneye hoş geldiniz,

Devam etmek için BOŞLUK tuşuna basınız.",,,,,,,,,,,,,,,,,,,,,,,,,,,,,,,,,,,,,,,,,,,,,,,,,,,,,,,,,,,
,,,,2023-11-29_00h56.08.982,VH_v3,2023.2.3,MacIntel,58.82352941,2.176,14.457,space,12.243,,0,1,1,1,1,"Bu çalışma Valencia Üniversitesi kapsamında yürütülmektedir. Deneydeki göreviniz, ekrana çıkacak Türkçe sözcüklerin kelime olup olmadığını belirlemenizdir. Eğer sözcük gerçek bir kelime ise ""m"" tuşuna, değil ise ""z"" tuşuna basınız.   

Devam etmek için BOŞLUK tuşuna basınız.",,,,,,,,,,,,,,,,,,,,,,,,,,,,,,,,,,,,,,,,,,,,,,,,,,,,,,,,,,,
,,,,2023-11-29_00h56.08.982,VH_v3,2023.2.3,MacIntel,58.82352941,14.458,21.124,space,6.633,,0,2,2,2,1,"Her sözcük için en fazla iki saniyede cevap vermeniz beklenmektedir. Aksi takdirde deney bir sonraki sözcük ile devam eder. 
Bu çalışmada oldukça hızlı ve doğru cevaplama yapmanız beklenmektedir.

Devam etmek için BOŞLUK tuşuna basınız.",,,,,,,,,,,,,,,,,,,,,,,,,,,,,,,,,,,,,,,,,,,,,,,,,,,,,,,,,,,
,,,,2023-11-29_00h56.08.982,VH_v3,2023.2.3,MacIntel,58.82352941,21.125,24.524,space,3.358,,0,3,3,3,1,"Çalışmaya başlamadan önce ufak bir pratik yer almaktadır.
Kelimedir: ""m""
Kelime değildir: ""z""

Pratik teste başlamak için BOŞLUK tuşuna basınız. ",,,,,,,,,,,,,,,,,,,,,,,,,,,,,,,,,,,,,,,,,,,,,,,,,,,,,,,,,,,
,,,,2023-11-29_00h56.08.982,VH_v3,2023.2.3,MacIntel,58.82352941,,,,,,,,,,,,24.544,25.54,25.541,26.392,m,1,0.821,,0.821,1,26.392,27.891,0,0,0,4,1,5,soğuk,harmonic,word,m,,,,,,,,,,,,,,,,,,,,,,,,,,,,,,,,,,,,,
,,,,2023-11-29_00h56.08.982,VH_v3,2023.2.3,MacIntel,58.82352941,,,,,,,,,,,,27.893,28.891,28.891,29.574,m,1,0.66,,0.66,1,29.574,31.074,0,1,1,3,1,4,sevgi,harmonic,word,m,,,,,,,,,,,,,,,,,,,,,,,,,,,,,,,,,,,,,
,,,,2023-11-29_00h56.08.982,VH_v3,2023.2.3,MacIntel,58.82352941,,,,,,,,,,,,31.076,32.074,32.074,32.59,m,1,0.494,,0.494,1,32.591,34.091,0,2,2,5,1,6,gizli,harmonic,word,m,,,,,,,,,,,,,,,,,,,,,,,,,,,,,,,,,,,,,
,,,,2023-11-29_00h56.08.982,VH_v3,2023.2.3,MacIntel,58.82352941,,,,,,,,,,,,34.092,35.091,35.091,35.724,z,1,0.611,,0.611,1,35.724,37.224,0,3,3,16,1,17,ihlot,notharmonic,nw,z,,,,,,,,,,,,,,,,,,,,,,,,,,,,,,,,,,,,,
,,,,2023-11-29_00h56.08.982,VH_v3,2023.2.3,MacIntel,58.82352941,,,,,,,,,,,,37.225,38.224,38.224,38.807,z,1,0.566,,0.566,1,38.807,40.307,0,4,4,18,1,19,pimer,harmonic,nw,z,,,,,,,,,,,,,,,,,,,,,,,,,,,,,,,,,,,,,
,,,,2023-11-29_00h56.08.982,VH_v3,2023.2.3,MacIntel,58.82352941,,,,,,,,,,,,40.309,41.307,41.307,42.007,z,1,0.677,,0.677,1,42.007,43.509,0,5,5,15,1,16,geki,harmonic,nw,z,,,,,,,,,,,,,,,,,,,,,,,,,,,,,,,,,,,,,
,,,,2023-11-29_00h56.08.982,VH_v3,2023.2.3,MacIntel,58.82352941,,,,,,,,,,,,43.51,44.508,44.508,45.007,m,1,0.482,,0.482,1,45.008,46.508,0,6,6,7,1,8,oran,harmonic,word,m,,,,,,,,,,,,,,,,,,,,,,,,,,,,,,,,,,,,,
,,,,2023-11-29_00h56.08.982,VH_v3,2023.2.3,MacIntel,58.82352941,,,,,,,,,,,,46.51,47.508,47.508,48.107,m,1,0.576,,0.576,1,48.108,49.608,0,7,7,1,1,2,veri,harmonic,word,m,,,,,,,,,,,,,,,,,,,,,,,,,,,,,,,,,,,,,
,,,,2023-11-29_00h56.08.982,VH_v3,2023.2.3,MacIntel,58.82352941,,,,,,,,,,,,49.609,50.607,50.607,51.324,m,1,0.694,,0.694,1,51.324,52.824,0,8,8,0,1,1,hazır,harmonic,word,m,,,,,,,,,,,,,,,,,,,,,,,,,,,,,,,,,,,,,
,,,,2023-11-29_00h56.08.982,VH_v3,2023.2.3,MacIntel,58.82352941,,,,,,,,,,,,52.826,53.824,53.824,54.341,z,1,0.493,,0.493,1,54.341,55.841,0,9,9,19,1,20,mımal,harmonic,nw,z,,,,,,,,,,,,,,,,,,,,,,,,,,,,,,,,,,,,,
,,,,2023-11-29_00h56.08.982,VH_v3,2023.2.3,MacIntel,58.82352941,,,,,,,,,,,,55.842,56.841,56.841,57.607,m,1,0.744,,0.744,1,57.608,59.108,0,10,10,9,1,10,zarar,harmonic,word,m,,,,,,,,,,,,,,,,,,,,,,,,,,,,,,,,,,,,,
,,,,2023-11-29_00h56.08.982,VH_v3,2023.2.3,MacIntel,58.82352941,,,,,,,,,,,,59.109,60.108,60.108,60.891,m,1,0.76,,0.76,1,60.891,62.391,0,11,11,10,1,11,nefret,harmonic,word,m,,,,,,,,,,,,,,,,,,,,,,,,,,,,,,,,,,,,,
,,,,2023-11-29_00h56.08.982,VH_v3,2023.2.3,MacIntel,58.82352941,,,,,,,,,,,,62.393,63.391,63.391,64.706,z,1,1.3,,1.3,1,64.707,66.208,0,12,12,12,1,13,tahip,notharmonic,nw,z,,,,,,,,,,,,,,,,,,,,,,,,,,,,,,,,,,,,,
,,,,2023-11-29_00h56.08.982,VH_v3,2023.2.3,MacIntel,58.82352941,,,,,,,,,,,,66.209,67.208,67.208,68.091,z,1,0.861,,0.861,1,68.091,69.591,0,13,13,21,1,22,güçli,harmonic,nw,z,,,,,,,,,,,,,,,,,,,,,,,,,,,,,,,,,,,,,
,,,,2023-11-29_00h56.08.982,VH_v3,2023.2.3,MacIntel,58.82352941,,,,,,,,,,,,69.592,70.591,70.591,72.325,m,0,1.71,,1.71,0,72.325,73.824,0,14,14,20,1,21,yoğuk,harmonic,nw,z,,,,,,,,,,,,,,,,,,,,,,,,,,,,,,,,,,,,,
,,,,2023-11-29_00h56.08.982,VH_v3,2023.2.3,MacIntel,58.82352941,,,,,,,,,,,,73.826,74.825,74.825,75.525,z,1,0.679,,0.679,1,75.525,77.024,0,15,15,22,1,23,gizım,notharmonic,nw,z,,,,,,,,,,,,,,,,,,,,,,,,,,,,,,,,,,,,,
,,,,2023-11-29_00h56.08.982,VH_v3,2023.2.3,MacIntel,58.82352941,,,,,,,,,,,,77.026,78.024,78.024,78.591,z,1,0.544,,0.544,1,78.591,80.091,0,16,16,17,1,18,pilar,notharmonic,nw,z,,,,,,,,,,,,,,,,,,,,,,,,,,,,,,,,,,,,,
,,,,2023-11-29_00h56.08.982,VH_v3,2023.2.3,MacIntel,58.82352941,,,,,,,,,,,,80.092,81.091,81.091,81.791,m,1,0.677,,0.677,1,81.791,83.291,0,17,17,11,1,12,teslim,harmonic,word,m,,,,,,,,,,,,,,,,,,,,,,,,,,,,,,,,,,,,,
,,,,2023-11-29_00h56.08.982,VH_v3,2023.2.3,MacIntel,58.82352941,,,,,,,,,,,,83.292,84.291,84.291,84.958,z,1,0.646,,0.646,1,84.958,86.458,0,18,18,23,1,24,zarim,notharmonic,nw,z,,,,,,,,,,,,,,,,,,,,,,,,,,,,,,,,,,,,,
,,,,2023-11-29_00h56.08.982,VH_v3,2023.2.3,MacIntel,58.82352941,,,,,,,,,,,,86.459,87.458,87.458,88.008,m,1,0.526,,0.526,1,88.008,89.508,0,19,19,6,1,7,sebep,harmonic,word,m,,,,,,,,,,,,,,,,,,,,,,,,,,,,,,,,,,,,,
,,,,2023-11-29_00h56.08.982,VH_v3,2023.2.3,MacIntel,58.82352941,,,,,,,,,,,,89.509,90.508,90.508,91.324,z,1,0.802,,0.802,1,91.325,92.825,0,20,20,13,1,14,orat,harmonic,nw,z,,,,,,,,,,,,,,,,,,,,,,,,,,,,,,,,,,,,,
,,,,2023-11-29_00h56.08.982,VH_v3,2023.2.3,MacIntel,58.82352941,,,,,,,,,,,,92.826,93.825,93.825,94.507,m,1,0.667,,0.667,1,94.507,96.008,0,21,21,2,1,3,yardım,harmonic,word,m,,,,,,,,,,,,,,,,,,,,,,,,,,,,,,,,,,,,,
,,,,2023-11-29_00h56.08.982,VH_v3,2023.2.3,MacIntel,58.82352941,,,,,,,,,,,,96.009,97.008,97.008,97.641,z,1,0.612,,0.612,1,97.642,99.142,0,22,22,14,1,15,mahne,notharmonic,nw,z,,,,,,,,,,,,,,,,,,,,,,,,,,,,,,,,,,,,,
,,,,2023-11-29_00h56.08.982,VH_v3,2023.2.3,MacIntel,58.82352941,,,,,,,,,,,,99.143,100.141,100.141,100.758,m,1,0.595,,0.595,1,100.758,102.258,0,23,23,8,1,9,bilim,harmonic,word,m,,,,,,,,,,,,,,,,,,,,,,,,,,,,,,,,,,,,,
,,,,2023-11-29_00h56.08.982,VH_v3,2023.2.3,MacIntel,58.82352941,,,,,,,,,,,,,,,,,,,,,,,,,,,,,,,,,,102.259,103.542,space,1.254,,,,,,,,,,,,,,,,,,,,,,,,,,,,,,,,,
,,,,2023-11-29_00h56.08.982,VH_v3,2023.2.3,MacIntel,58.82352941,,,,,,,,,,,,103.588,104.558,,,,,,,,,,,,,,,,,,,,,,,,,,104.559,105.159,m,1,0.571,,105.16,105.164,,0,0,0,23,1,24,kurum,986,44.7999,882,0.0964,5,harmonic,1.75,word,m,,,,,,,
,,,,2023-11-29_00h56.08.982,VH_v3,2023.2.3,MacIntel,58.82352941,,,,,,,,,,,,105.165,106.158,,,,,,,,,,,,,,,,,,,,,,,,,,106.158,106.925,z,1,0.747,,106.925,106.925,,0,1,1,295,1,296,takime,,,,,6,notharmonic,1.9,nw,z,,,,,,,
,,,,2023-11-29_00h56.08.982,VH_v3,2023.2.3,MacIntel,58.82352941,,,,,,,,,,,,106.927,107.925,,,,,,,,,,,,,,,,,,,,,,,,,,107.925,108.525,m,1,0.583,,108.525,108.525,,0,2,2,34,1,35,hoca,1893,86.0104,1526,0.1668,4,harmonic,1.45,word,m,,,,,,,
,,,,2023-11-29_00h56.08.982,VH_v3,2023.2.3,MacIntel,58.82352941,,,,,,,,,,,,108.526,109.525,,,,,,,,,,,,,,,,,,,,,,,,,,109.525,110.125,m,1,0.578,,110.125,110.126,,0,3,3,12,1,13,konu,5400,245.3546,5110,0.5586,4,harmonic,1,word,m,,,,,,,
,,,,2023-11-29_00h56.08.982,VH_v3,2023.2.3,MacIntel,58.82352941,,,,,,,,,,,,110.127,111.125,,,,,,,,,,,,,,,,,,,,,,,,,,111.125,111.808,m,1,0.669,,111.808,111.808,,0,4,4,174,1,175,hayran,1171,53.2056,1073,0.1173,6,harmonic,,word,m,,,,,,,
,,,,2023-11-29_00h56.08.982,VH_v3,2023.2.3,MacIntel,58.82352941,,,,,,,,,,,,111.81,112.808,,,,,,,,,,,,,,,,,,,,,,,,,,112.809,113.358,z,1,0.535,,113.358,113.359,,0,5,5,319,1,320,mafke,,,,,5,notharmonic,1.9,nw,z,,,,,,,
,,,,2023-11-29_00h56.08.982,VH_v3,2023.2.3,MacIntel,58.82352941,,,,,,,,,,,,113.36,114.358,,,,,,,,,,,,,,,,,,,,,,,,,,114.358,114.842,z,1,0.462,,114.842,114.842,,0,6,6,335,1,336,askif,,,,,5,notharmonic,2,nw,z,,,,,,,
,,,,2023-11-29_00h56.08.982,VH_v3,2023.2.3,MacIntel,58.82352941,,,,,,,,,,,,114.843,115.842,,,,,,,,,,,,,,,,,,,,,,,,,,115.842,116.309,m,1,0.446,,116.309,116.309,,0,7,7,115,1,116,uygun,6757,307.0113,6297,0.6884,5,harmonic,,word,m,,,,,,,
,,,,2023-11-29_00h56.08.982,VH_v3,2023.2.3,MacIntel,58.82352941,,,,,,,,,,,,116.31,117.309,,,,,,,,,,,,,,,,,,,,,,,,,,117.309,117.842,m,1,0.51,,117.842,117.843,,0,8,8,75,1,76,roman,1499,68.1086,1281,0.14,5,harmonic,1.6,word,m,,,,,,,
,,,,2023-11-29_00h56.08.982,VH_v3,2023.2.3,MacIntel,58.82352941,,,,,,,,,,,,117.845,118.842,,,,,,,,,,,,,,,,,,,,,,,,,,118.842,119.342,z,1,0.484,,119.342,119.343,,0,9,9,194,1,195,yabum,,,,,5,harmonic,2,nw,z,,,,,,,
,,,,2023-11-29_00h56.08.982,VH_v3,2023.2.3,MacIntel,58.82352941,,,,,,,,,,,,119.344,120.342,,,,,,,,,,,,,,,,,,,,,,,,,,120.342,121.058,z,1,0.695,,121.058,121.059,,0,10,10,207,1,208,çallak,,,,,6,harmonic,1.75,nw,z,,,,,,,
,,,,2023-11-29_00h56.08.982,VH_v3,2023.2.3,MacIntel,58.82352941,,,,,,,,,,,,121.06,122.058,,,,,,,,,,,,,,,,,,,,,,,,,,122.059,122.575,m,1,0.494,,122.575,122.576,,0,11,11,111,1,112,soğan,1315,59.7484,1202,0.1314,5,harmonic,,word,m,,,,,,,
,,,,2023-11-29_00h56.08.982,VH_v3,2023.2.3,MacIntel,58.82352941,,,,,,,,,,,,122.577,123.575,,,,,,,,,,,,,,,,,,,,,,,,,,123.575,124.142,z,1,0.543,,124.142,124.142,,0,12,12,239,1,240,yulçız,,,,,6,harmonic,2.75,nw,z,,,,,,,
,,,,2023-11-29_00h56.08.982,VH_v3,2023.2.3,MacIntel,58.82352941,,,,,,,,,,,,124.143,125.142,,,,,,,,,,,,,,,,,,,,,,,,,,125.142,125.625,z,1,0.462,,125.625,125.625,,0,13,13,221,1,222,ülük,,,,,4,harmonic,1.55,nw,z,,,,,,,
,,,,2023-11-29_00h56.08.982,VH_v3,2023.2.3,MacIntel,58.82352941,,,,,,,,,,,,125.627,126.625,,,,,,,,,,,,,,,,,,,,,,,,,,126.625,127.075,m,1,0.431,,127.075,127.076,,0,14,14,39,1,40,yaygın,1061,48.2076,1019,0.1114,6,harmonic,1.35,word,m,,,,,,,
,,,,2023-11-29_00h56.08.982,VH_v3,2023.2.3,MacIntel,58.82352941,,,,,,,,,,,,127.077,128.075,,,,,,,,,,,,,,,,,,,,,,,,,,128.075,128.658,z,1,0.566,,128.658,128.658,,0,15,15,255,1,256,ubar,,,,,4,harmonic,1.7,nw,z,,,,,,,
,,,,2023-11-29_00h56.08.982,VH_v3,2023.2.3,MacIntel,58.82352941,,,,,,,,,,,,128.659,129.659,,,,,,,,,,,,,,,,,,,,,,,,,,129.659,130.092,m,1,0.412,,130.092,130.092,,0,16,16,5,1,6,bebek,3301,149.9843,2794,0.3054,5,harmonic,1.6,word,m,,,,,,,
,,,,2023-11-29_00h56.08.982,VH_v3,2023.2.3,MacIntel,58.82352941,,,,,,,,,,,,130.093,131.092,,,,,,,,,,,,,,,,,,,,,,,,,,131.092,131.559,m,1,0.445,,131.559,131.559,,0,17,17,132,1,133,soğuk,3676,167.0229,3359,0.3672,5,harmonic,,word,m,,,,,,,
,,,,2023-11-29_00h56.08.982,VH_v3,2023.2.3,MacIntel,58.82352941,,,,,,,,,,,,131.561,132.559,,,,,,,,,,,,,,,,,,,,,,,,,,132.559,132.992,m,1,0.418,,132.992,132.992,,0,18,18,41,1,42,zengin,2193,99.6412,2015,0.2203,6,harmonic,1.65,word,m,,,,,,,
,,,,2023-11-29_00h56.08.982,VH_v3,2023.2.3,MacIntel,58.82352941,,,,,,,,,,,,132.993,133.991,,,,,,,,,,,,,,,,,,,,,,,,,,133.991,134.492,m,1,0.482,,134.492,134.492,,0,19,19,125,1,126,hızlı,4167,189.332,3688,0.4032,5,harmonic,,word,m,,,,,,,
,,,,2023-11-29_00h56.08.982,VH_v3,2023.2.3,MacIntel,58.82352941,,,,,,,,,,,,134.493,135.491,,,,,,,,,,,,,,,,,,,,,,,,,,135.492,135.959,m,1,0.447,,135.959,135.959,,0,20,20,45,1,46,bilgi,5981,271.7529,5353,0.5852,5,harmonic,1.5,word,m,,,,,,,
,,,,2023-11-29_00h56.08.982,VH_v3,2023.2.3,MacIntel,58.82352941,,,,,,,,,,,,135.96,136.959,,,,,,,,,,,,,,,,,,,,,,,,,,136.959,137.425,m,0,0.444,,137.425,137.426,,0,21,21,226,1,227,mara,,,,,4,harmonic,1,nw,z,,,,,,,
,,,,2023-11-29_00h56.08.982,VH_v3,2023.2.3,MacIntel,58.82352941,,,,,,,,,,,,137.427,138.425,,,,,,,,,,,,,,,,,,,,,,,,,,138.425,139.125,z,1,0.68,,139.125,139.126,,0,22,22,205,1,206,sefbe,,,,,5,harmonic,2,nw,z,,,,,,,
,,,,2023-11-29_00h56.08.982,VH_v3,2023.2.3,MacIntel,58.82352941,,,,,,,,,,,,139.127,140.125,,,,,,,,,,,,,,,,,,,,,,,,,,140.125,140.775,z,0,0.628,,140.776,140.776,,0,23,23,163,1,164,teknik,3297,149.8026,2798,0.3059,6,harmonic,,word,m,,,,,,,
,,,,2023-11-29_00h56.08.982,VH_v3,2023.2.3,MacIntel,58.82352941,,,,,,,,,,,,140.777,141.775,,,,,,,,,,,,,,,,,,,,,,,,,,141.775,142.442,m,1,0.647,,142.442,142.442,,0,24,24,35,1,36,hava,4975,226.0443,4398,0.4808,4,harmonic,1,word,m,,,,,,,
,,,,2023-11-29_00h56.08.982,VH_v3,2023.2.3,MacIntel,58.82352941,,,,,,,,,,,,142.444,143.442,,,,,,,,,,,,,,,,,,,,,,,,,,143.442,143.975,m,1,0.514,,143.976,143.976,,0,25,25,38,1,39,dönem,2820,128.1296,2437,0.2664,5,harmonic,1.4,word,m,,,,,,,
,,,,2023-11-29_00h56.08.982,VH_v3,2023.2.3,MacIntel,58.82352941,,,,,,,,,,,,143.977,144.975,,,,,,,,,,,,,,,,,,,,,,,,,,144.976,145.642,z,1,0.651,,145.642,145.642,,0,26,26,359,1,360,hisaye,,,,,6,notharmonic,,nw,z,,,,,,,
,,,,2023-11-29_00h56.08.982,VH_v3,2023.2.3,MacIntel,58.82352941,,,,,,,,,,,,145.643,146.642,,,,,,,,,,,,,,,,,,,,,,,,,,146.642,147.225,z,1,0.567,,147.226,147.226,,0,27,27,283,1,284,sate,,,,,4,notharmonic,1.45,nw,z,,,,,,,
,,,,2023-11-29_00h56.08.982,VH_v3,2023.2.3,MacIntel,58.82352941,,,,,,,,,,,,147.228,148.225,,,,,,,,,,,,,,,,,,,,,,,,,,148.226,148.825,z,1,0.582,,148.826,148.826,,0,28,28,263,1,264,geğniş,,,,,6,harmonic,2.35,nw,z,,,,,,,
,,,,2023-11-29_00h56.08.982,VH_v3,2023.2.3,MacIntel,58.82352941,,,,,,,,,,,,148.827,149.825,,,,,,,,,,,,,,,,,,,,,,,,,,149.826,150.542,z,1,0.695,,150.543,150.543,,0,29,29,231,1,232,çekir,,,,,5,harmonic,1.45,nw,z,,,,,,,
,,,,2023-11-29_00h56.08.982,VH_v3,2023.2.3,MacIntel,58.82352941,,,,,,,,,,,,150.544,151.542,,,,,,,,,,,,,,,,,,,,,,,,,,151.542,152.109,m,1,0.544,,152.109,152.109,,0,30,30,112,1,113,genel,7752,352.2201,6893,0.7535,5,harmonic,,word,m,,,,,,,
,,,,2023-11-29_00h56.08.982,VH_v3,2023.2.3,MacIntel,58.82352941,,,,,,,,,,,,152.111,153.109,,,,,,,,,,,,,,,,,,,,,,,,,,153.109,153.742,z,1,0.612,,153.742,153.743,,0,31,31,322,1,323,galiç,,,,,5,notharmonic,1.8,nw,z,,,,,,,
,,,,2023-11-29_00h56.08.982,VH_v3,2023.2.3,MacIntel,58.82352941,,,,,,,,,,,,153.744,154.742,,,,,,,,,,,,,,,,,,,,,,,,,,154.742,155.326,z,1,0.563,,155.326,155.326,,0,32,32,183,1,184,titik,,,,,5,harmonic,1.7,nw,z,,,,,,,
,,,,2023-11-29_00h56.08.982,VH_v3,2023.2.3,MacIntel,58.82352941,,,,,,,,,,,,155.327,156.326,,,,,,,,,,,,,,,,,,,,,,,,,,156.326,156.959,z,1,0.612,,156.959,156.959,,0,33,33,236,1,237,abar,,,,,4,harmonic,1.1,nw,z,,,,,,,
,,,,2023-11-29_00h56.08.982,VH_v3,2023.2.3,MacIntel,58.82352941,,,,,,,,,,,,156.96,157.959,,,,,,,,,,,,,,,,,,,,,,,,,,157.959,158.559,z,1,0.577,,158.559,158.559,,0,34,34,184,1,185,medme,,,,,5,harmonic,1.95,nw,z,,,,,,,
,,,,2023-11-29_00h56.08.982,VH_v3,2023.2.3,MacIntel,58.82352941,,,,,,,,,,,,158.56,159.559,,,,,,,,,,,,,,,,,,,,,,,,,,159.559,160.126,z,1,0.544,,160.126,160.126,,0,35,35,342,1,343,çaneke,,,,,6,notharmonic,2.6,nw,z,,,,,,,
,,,,2023-11-29_00h56.08.982,VH_v3,2023.2.3,MacIntel,58.82352941,,,,,,,,,,,,160.128,161.126,,,,,,,,,,,,,,,,,,,,,,,,,,161.126,161.742,m,1,0.593,,161.742,161.743,,0,36,36,32,1,33,temel,4231,192.2399,3851,0.421,5,harmonic,1.55,word,m,,,,,,,
,,,,2023-11-29_00h56.08.982,VH_v3,2023.2.3,MacIntel,58.82352941,,,,,,,,,,,,161.744,162.742,,,,,,,,,,,,,,,,,,,,,,,,,,162.742,163.292,z,1,0.528,,163.292,163.293,,0,37,37,296,1,297,taeri,,,,,5,notharmonic,2,nw,z,,,,,,,
,,,,2023-11-29_00h56.08.982,VH_v3,2023.2.3,MacIntel,58.82352941,,,,,,,,,,,,163.294,164.292,,,,,,,,,,,,,,,,,,,,,,,,,,164.292,164.809,m,1,0.495,,164.809,164.809,,0,38,38,90,1,91,güzel,42841,1946.5251,37209,4.0677,5,harmonic,,word,m,,,,,,,
,,,,2023-11-29_00h56.08.982,VH_v3,2023.2.3,MacIntel,58.82352941,,,,,,,,,,,,164.81,165.809,,,,,,,,,,,,,,,,,,,,,,,,,,165.809,166.526,m,1,0.696,,166.526,166.526,,0,39,39,102,1,103,kaşık,1355,61.5658,1177,0.1287,5,harmonic,,word,m,,,,,,,
,,,,2023-11-29_00h56.08.982,VH_v3,2023.2.3,MacIntel,58.82352941,,,,,,,,,,,,166.527,167.526,,,,,,,,,,,,,,,,,,,,,,,,,,167.526,168.142,m,1,0.596,,168.142,168.142,,0,40,40,64,1,65,lise,888,40.3472,816,0.0892,4,harmonic,1.5,word,m,,,,,,,
,,,,2023-11-29_00h56.08.982,VH_v3,2023.2.3,MacIntel,58.82352941,,,,,,,,,,,,168.143,169.143,,,,,,,,,,,,,,,,,,,,,,,,,,169.143,169.875,m,1,0.708,,169.875,169.875,,0,41,41,168,1,169,peynir,1421,64.5646,1248,0.1364,6,harmonic,,word,m,,,,,,,
,,,,2023-11-29_00h56.08.982,VH_v3,2023.2.3,MacIntel,58.82352941,,,,,,,,,,,,169.877,170.876,,,,,,,,,,,,,,,,,,,,,,,,,,170.876,171.442,m,1,0.547,,171.442,171.443,,0,42,42,80,1,81,merkez,1445,65.6551,1255,0.1372,6,harmonic,1.8,word,m,,,,,,,
,,,,2023-11-29_00h56.08.982,VH_v3,2023.2.3,MacIntel,58.82352941,,,,,,,,,,,,171.444,172.442,,,,,,,,,,,,,,,,,,,,,,,,,,172.443,172.959,z,1,0.494,,172.959,172.96,,0,43,43,331,1,332,ilcaet,,,,,6,notharmonic,2.7,nw,z,,,,,,,
,,,,2023-11-29_00h56.08.982,VH_v3,2023.2.3,MacIntel,58.82352941,,,,,,,,,,,,172.961,173.959,,,,,,,,,,,,,,,,,,,,,,,,,,173.959,174.843,z,0,0.861,,174.843,174.843,,0,44,44,124,1,125,yarım,4177,189.7863,3852,0.4211,5,harmonic,,word,m,,,,,,,
,,,,2023-11-29_00h56.08.982,VH_v3,2023.2.3,MacIntel,58.82352941,,,,,,,,,,,,174.844,175.842,,,,,,,,,,,,,,,,,,,,,,,,,,175.842,176.593,m,1,0.731,,176.593,176.593,,0,45,45,50,1,51,kanun,1198,54.4324,1010,0.1104,5,harmonic,1.6,word,m,,,,,,,
,,,,2023-11-29_00h56.08.982,VH_v3,2023.2.3,MacIntel,58.82352941,,,,,,,,,,,,176.594,177.593,,,,,,,,,,,,,,,,,,,,,,,,,,177.593,178.159,m,1,0.545,,178.159,178.16,,0,46,46,53,1,54,gelir,7578,344.3143,7014,0.7668,5,harmonic,1.4,word,m,,,,,,,
,,,,2023-11-29_00h56.08.982,VH_v3,2023.2.3,MacIntel,58.82352941,,,,,,,,,,,,178.16,179.159,,,,,,,,,,,,,,,,,,,,,,,,,,179.159,179.693,m,1,0.517,,179.693,179.693,,0,47,47,165,1,166,fırsat,1952,88.6911,1863,0.2037,6,harmonic,,word,m,,,,,,,
,,,,2023-11-29_00h56.08.982,VH_v3,2023.2.3,MacIntel,58.82352941,,,,,,,,,,,,179.694,180.693,,,,,,,,,,,,,,,,,,,,,,,,,,180.693,181.409,z,1,0.7,,181.409,181.41,,0,48,48,251,1,252,bellet,,,,,6,harmonic,1.8,nw,z,,,,,,,
,,,,2023-11-29_00h56.08.982,VH_v3,2023.2.3,MacIntel,58.82352941,,,,,,,,,,,,181.41,182.409,,,,,,,,,,,,,,,,,,,,,,,,,,182.409,183.076,z,1,0.645,,183.076,183.076,,0,49,49,276,1,277,dapel,,,,,5,notharmonic,1.9,nw,z,,,,,,,
,,,,2023-11-29_00h56.08.982,VH_v3,2023.2.3,MacIntel,58.82352941,,,,,,,,,,,,183.078,184.076,,,,,,,,,,,,,,,,,,,,,,,,,,184.076,184.709,z,1,0.618,,184.71,184.71,,0,50,50,289,1,290,minkon,,,,,6,notharmonic,2.2,nw,z,,,,,,,
,,,,2023-11-29_00h56.08.982,VH_v3,2023.2.3,MacIntel,58.82352941,,,,,,,,,,,,184.711,185.709,,,,,,,,,,,,,,,,,,,,,,,,,,185.71,186.293,z,1,0.562,,186.293,186.293,,0,51,51,240,1,241,şünle,,,,,5,harmonic,1.9,nw,z,,,,,,,
,,,,2023-11-29_00h56.08.982,VH_v3,2023.2.3,MacIntel,58.82352941,,,,,,,,,,,,186.294,187.293,,,,,,,,,,,,,,,,,,,,,,,,,,187.293,187.943,m,1,0.632,,187.943,187.943,,0,52,52,131,1,132,derin,3689,167.6135,3328,0.3638,5,harmonic,,word,m,,,,,,,
,,,,2023-11-29_00h56.08.982,VH_v3,2023.2.3,MacIntel,58.82352941,,,,,,,,,,,,187.944,188.943,,,,,,,,,,,,,,,,,,,,,,,,,,188.943,189.593,z,1,0.628,,189.593,189.593,,0,53,53,265,1,266,münrün,,,,,6,harmonic,2.75,nw,z,,,,,,,
,,,,2023-11-29_00h56.08.982,VH_v3,2023.2.3,MacIntel,58.82352941,,,,,,,,,,,,189.594,190.593,,,,,,,,,,,,,,,,,,,,,,,,,,190.593,191.36,z,1,0.745,,191.36,191.36,,0,54,54,318,1,319,sapel,,,,,5,notharmonic,1.9,nw,z,,,,,,,
,,,,2023-11-29_00h56.08.982,VH_v3,2023.2.3,MacIntel,58.82352941,,,,,,,,,,,,191.361,192.359,,,,,,,,,,,,,,,,,,,,,,,,,,192.36,193.276,m,1,0.898,,193.276,193.277,,0,55,55,82,1,83,aday,1028,46.7082,873,0.0954,4,harmonic,1.45,word,m,,,,,,,
,,,,2023-11-29_00h56.08.982,VH_v3,2023.2.3,MacIntel,58.82352941,,,,,,,,,,,,193.278,194.275,,,,,,,,,,,,,,,,,,,,,,,,,,194.275,194.876,z,1,0.58,,194.876,194.876,,0,56,56,246,1,247,ülmet,,,,,5,harmonic,1.9,nw,z,,,,,,,
,,,,2023-11-29_00h56.08.982,VH_v3,2023.2.3,MacIntel,58.82352941,,,,,,,,,,,,194.877,195.875,,,,,,,,,,,,,,,,,,,,,,,,,,195.876,196.543,z,1,0.645,,196.543,196.543,,0,57,57,189,1,190,kanak,,,,,5,harmonic,1.1,nw,z,,,,,,,
,,,,2023-11-29_00h56.08.982,VH_v3,2023.2.3,MacIntel,58.82352941,,,,,,,,,,,,196.544,197.543,,,,,,,,,,,,,,,,,,,,,,,,,,197.543,198.109,m,1,0.546,,198.11,198.11,,0,58,58,93,1,94,başka,23223,1055.161,20976,2.2931,5,harmonic,,word,m,,,,,,,
,,,,2023-11-29_00h56.08.982,VH_v3,2023.2.3,MacIntel,58.82352941,,,,,,,,,,,,198.111,199.109,,,,,,,,,,,,,,,,,,,,,,,,,,199.11,199.676,m,1,0.545,,199.676,199.677,,0,59,59,31,1,32,fazla,18293,831.1614,16694,1.825,5,harmonic,1,word,m,,,,,,,
,,,,2023-11-29_00h56.08.982,VH_v3,2023.2.3,MacIntel,58.82352941,,,,,,,,,,,,199.678,200.676,,,,,,,,,,,,,,,,,,,,,,,,,,200.676,201.226,z,1,0.535,,201.226,201.226,,0,60,60,182,1,183,rafto,,,,,5,harmonic,2,nw,z,,,,,,,
,,,,2023-11-29_00h56.08.982,VH_v3,2023.2.3,MacIntel,58.82352941,,,,,,,,,,,,201.227,202.226,,,,,,,,,,,,,,,,,,,,,,,,,,202.226,202.843,z,1,0.595,,202.843,202.843,,0,61,61,237,1,238,küyek,,,,,5,harmonic,1.8,nw,z,,,,,,,
,,,,2023-11-29_00h56.08.982,VH_v3,2023.2.3,MacIntel,58.82352941,,,,,,,,,,,,202.844,203.843,,,,,,,,,,,,,,,,,,,,,,,,,,203.843,204.426,z,1,0.561,,204.426,204.427,,0,62,62,180,1,181,manıt,,,,,5,harmonic,1.75,nw,z,,,,,,,
,,,,2023-11-29_00h56.08.982,VH_v3,2023.2.3,MacIntel,58.82352941,,,,,,,,,,,,204.428,205.426,,,,,,,,,,,,,,,,,,,,,,,,,,205.426,206.11,m,1,0.662,,206.11,206.11,,0,63,63,73,1,74,millet,1658,75.3329,1508,0.1649,6,harmonic,1.7,word,m,,,,,,,
,,,,2023-11-29_00h56.08.982,VH_v3,2023.2.3,MacIntel,58.82352941,,,,,,,,,,,,206.111,207.109,,,,,,,,,,,,,,,,,,,,,,,,,,207.109,207.71,z,1,0.58,,207.71,207.71,,0,64,64,242,1,243,ziye,,,,,4,harmonic,1.75,nw,z,,,,,,,
,,,,2023-11-29_00h56.08.982,VH_v3,2023.2.3,MacIntel,58.82352941,,,,,,,,,,,,207.711,208.71,,,,,,,,,,,,,,,,,,,,,,,,,,208.71,209.326,z,1,0.596,,209.326,209.327,,0,65,65,286,1,287,elsaf,,,,,5,notharmonic,1.9,nw,z,,,,,,,
,,,,2023-11-29_00h56.08.982,VH_v3,2023.2.3,MacIntel,58.82352941,,,,,,,,,,,,209.328,210.326,,,,,,,,,,,,,,,,,,,,,,,,,,210.326,210.91,z,1,0.561,,210.91,210.91,,0,66,66,181,1,182,erben,,,,,5,harmonic,1.8,nw,z,,,,,,,
,,,,2023-11-29_00h56.08.982,VH_v3,2023.2.3,MacIntel,58.82352941,,,,,,,,,,,,210.911,211.91,,,,,,,,,,,,,,,,,,,,,,,,,,211.91,212.526,z,1,0.597,,212.526,212.527,,0,67,67,261,1,262,kübün,,,,,5,harmonic,2,nw,z,,,,,,,
,,,,2023-11-29_00h56.08.982,VH_v3,2023.2.3,MacIntel,58.82352941,,,,,,,,,,,,212.528,213.526,,,,,,,,,,,,,,,,,,,,,,,,,,213.526,214.026,z,1,0.485,,214.026,214.027,,0,68,68,271,1,272,icazi,,,,,5,notharmonic,1.95,nw,z,,,,,,,
,,,,2023-11-29_00h56.08.982,VH_v3,2023.2.3,MacIntel,58.82352941,,,,,,,,,,,,214.027,215.026,,,,,,,,,,,,,,,,,,,,,,,,,,215.026,215.576,z,1,0.527,,215.577,215.577,,0,69,69,223,1,224,kamut,,,,,5,harmonic,1.5,nw,z,,,,,,,
,,,,2023-11-29_00h56.08.982,VH_v3,2023.2.3,MacIntel,58.82352941,,,,,,,,,,,,215.578,216.576,,,,,,,,,,,,,,,,,,,,,,,,,,216.577,217.06,z,1,0.464,,217.06,217.06,,0,70,70,351,1,352,eula,,,,,4,notharmonic,1.65,nw,z,,,,,,,
,,,,2023-11-29_00h56.08.982,VH_v3,2023.2.3,MacIntel,58.82352941,,,,,,,,,,,,217.061,218.06,,,,,,,,,,,,,,,,,,,,,,,,,,218.06,218.893,m,1,0.811,,218.893,218.894,,0,71,71,98,1,99,yerel,1399,63.565,1187,0.1298,5,harmonic,,word,m,,,,,,,
,,,,2023-11-29_00h56.08.982,VH_v3,2023.2.3,MacIntel,58.82352941,,,,,,,,,,,,218.895,219.893,,,,,,,,,,,,,,,,,,,,,,,,,,219.893,220.359,m,1,0.452,,220.359,220.359,,0,72,72,137,1,138,yoğun,3189,144.8955,3026,0.3308,5,harmonic,,word,m,,,,,,,
,,,,2023-11-29_00h56.08.982,VH_v3,2023.2.3,MacIntel,58.82352941,,,,,,,,,,,,220.36,221.36,,,,,,,,,,,,,,,,,,,,,,,,,,221.36,221.943,m,1,0.561,,221.943,221.944,,0,73,73,134,1,135,hanım,3564,161.934,3151,0.3445,5,harmonic,,word,m,,,,,,,
,,,,2023-11-29_00h56.08.982,VH_v3,2023.2.3,MacIntel,58.82352941,,,,,,,,,,,,221.945,222.943,,,,,,,,,,,,,,,,,,,,,,,,,,222.943,223.493,m,1,0.529,,223.493,223.494,,0,74,74,140,1,141,ünlü,2684,121.9503,2457,0.2686,4,harmonic,,word,m,,,,,,,
,,,,2023-11-29_00h56.08.982,VH_v3,2023.2.3,MacIntel,58.82352941,,,,,,,,,,,,223.495,224.493,,,,,,,,,,,,,,,,,,,,,,,,,,224.493,225.077,m,1,0.562,,225.077,225.077,,0,75,75,28,1,29,parlak,1142,51.888,1088,0.1189,6,harmonic,1.7,word,m,,,,,,,
,,,,2023-11-29_00h56.08.982,VH_v3,2023.2.3,MacIntel,58.82352941,,,,,,,,,,,,225.078,226.077,,,,,,,,,,,,,,,,,,,,,,,,,,226.077,226.843,m,1,0.746,,226.843,226.844,,0,76,76,178,1,179,aykırı,1094,49.707,1022,0.1117,6,harmonic,,word,m,,,,,,,
,,,,2023-11-29_00h56.08.982,VH_v3,2023.2.3,MacIntel,58.82352941,,,,,,,,,,,,226.845,227.843,,,,,,,,,,,,,,,,,,,,,,,,,,227.843,228.327,m,0,0.461,,228.327,228.327,,0,77,77,227,1,228,temzik,,,,,6,harmonic,1.9,nw,z,,,,,,,
,,,,2023-11-29_00h56.08.982,VH_v3,2023.2.3,MacIntel,58.82352941,,,,,,,,,,,,228.328,229.327,,,,,,,,,,,,,,,,,,,,,,,,,,229.327,229.977,z,1,0.632,,229.977,229.978,,0,78,78,278,1,279,camet,,,,,5,notharmonic,1.8,nw,z,,,,,,,
,,,,2023-11-29_00h56.08.982,VH_v3,2023.2.3,MacIntel,58.82352941,,,,,,,,,,,,229.98,230.977,,,,,,,,,,,,,,,,,,,,,,,,,,230.977,231.61,m,1,0.61,,231.61,231.611,,0,79,79,27,1,28,bölge,1283,58.2944,1123,0.1228,5,harmonic,1.65,word,m,,,,,,,
,,,,2023-11-29_00h56.08.982,VH_v3,2023.2.3,MacIntel,58.82352941,,,,,,,,,,,,231.613,232.61,,,,,,,,,,,,,,,,,,,,,,,,,,232.61,233.21,m,1,0.579,,233.21,233.211,,0,80,80,100,1,101,zayıf,1359,61.7476,1285,0.1405,5,harmonic,,word,m,,,,,,,
,,,,2023-11-29_00h56.08.982,VH_v3,2023.2.3,MacIntel,58.82352941,,,,,,,,,,,,233.212,234.21,,,,,,,,,,,,,,,,,,,,,,,,,,234.21,234.81,z,1,0.582,,234.81,234.811,,0,81,81,297,1,298,şasep,,,,,5,notharmonic,1.9,nw,z,,,,,,,
,,,,2023-11-29_00h56.08.982,VH_v3,2023.2.3,MacIntel,58.82352941,,,,,,,,,,,,234.812,235.81,,,,,,,,,,,,,,,,,,,,,,,,,,235.81,236.427,z,1,0.594,,236.427,236.427,,0,82,82,274,1,275,rikal,,,,,5,notharmonic,1.85,nw,z,,,,,,,
,,,,2023-11-29_00h56.08.982,VH_v3,2023.2.3,MacIntel,58.82352941,,,,,,,,,,,,236.428,237.427,,,,,,,,,,,,,,,,,,,,,,,,,,237.427,237.927,z,1,0.477,,237.927,237.927,,0,83,83,290,1,291,nüda,,,,,4,notharmonic,1.9,nw,z,,,,,,,
,,,,2023-11-29_00h56.08.982,VH_v3,2023.2.3,MacIntel,58.82352941,,,,,,,,,,,,237.928,238.927,,,,,,,,,,,,,,,,,,,,,,,,,,238.927,239.394,m,0,0.444,,239.394,239.394,,0,84,84,357,1,358,harim,,,,,5,notharmonic,,nw,z,,,,,,,
,,,,2023-11-29_00h56.08.982,VH_v3,2023.2.3,MacIntel,58.82352941,,,,,,,,,,,,239.395,240.394,,,,,,,,,,,,,,,,,,,,,,,,,,240.394,241.094,m,1,0.68,,241.094,241.094,,0,85,85,4,1,5,metre,1156,52.5241,1015,0.111,5,harmonic,1.7,word,m,,,,,,,
,,,,2023-11-29_00h56.08.982,VH_v3,2023.2.3,MacIntel,58.82352941,,,,,,,,,,,,241.095,242.093,,,,,,,,,,,,,,,,,,,,,,,,,,242.094,242.777,z,1,0.666,,242.777,242.777,,0,86,86,280,1,281,düktan,,,,,6,notharmonic,2.35,nw,z,,,,,,,
,,,,2023-11-29_00h56.08.982,VH_v3,2023.2.3,MacIntel,58.82352941,,,,,,,,,,,,242.778,243.776,,,,,,,,,,,,,,,,,,,,,,,,,,243.776,244.427,m,1,0.629,,244.427,244.428,,0,87,87,173,1,174,koruma,1187,53.9326,1066,0.1165,6,harmonic,,word,m,,,,,,,
,,,,2023-11-29_00h56.08.982,VH_v3,2023.2.3,MacIntel,58.82352941,,,,,,,,,,,,244.43,245.427,,,,,,,,,,,,,,,,,,,,,,,,,,245.427,246.06,z,1,0.61,,246.06,246.061,,0,88,88,284,1,285,zebap,,,,,5,notharmonic,1.8,nw,z,,,,,,,
,,,,2023-11-29_00h56.08.982,VH_v3,2023.2.3,MacIntel,58.82352941,,,,,,,,,,,,246.062,247.06,,,,,,,,,,,,,,,,,,,,,,,,,,247.06,247.577,z,1,0.496,,247.577,247.577,,0,89,89,309,1,310,yanele,,,,,6,notharmonic,1.85,nw,z,,,,,,,
,,,,2023-11-29_00h56.08.982,VH_v3,2023.2.3,MacIntel,58.82352941,,,,,,,,,,,,247.578,248.577,,,,,,,,,,,,,,,,,,,,,,,,,,248.577,249.144,z,1,0.545,,249.144,249.144,,0,90,90,259,1,260,üreyeş,,,,,6,harmonic,2.9,nw,z,,,,,,,
,,,,2023-11-29_00h56.08.982,VH_v3,2023.2.3,MacIntel,58.82352941,,,,,,,,,,,,249.145,250.144,,,,,,,,,,,,,,,,,,,,,,,,,,250.144,250.66,z,1,0.496,,250.66,250.661,,0,91,91,299,1,300,kurüs,,,,,5,notharmonic,1.95,nw,z,,,,,,,
,,,,2023-11-29_00h56.08.982,VH_v3,2023.2.3,MacIntel,58.82352941,,,,,,,,,,,,250.662,251.661,,,,,,,,,,,,,,,,,,,,,,,,,,251.661,252.444,m,1,0.765,,252.444,252.444,,0,92,92,146,1,147,sarı,2072,94.1435,1838,0.2009,4,harmonic,,word,m,,,,,,,
,,,,2023-11-29_00h56.08.982,VH_v3,2023.2.3,MacIntel,58.82352941,,,,,,,,,,,,252.445,253.444,,,,,,,,,,,,,,,,,,,,,,,,,,253.444,254.044,z,1,0.586,,254.044,254.044,,0,93,93,358,1,359,ksalik,,,,,6,notharmonic,,nw,z,,,,,,,
,,,,2023-11-29_00h56.08.982,VH_v3,2023.2.3,MacIntel,58.82352941,,,,,,,,,,,,254.045,255.044,,,,,,,,,,,,,,,,,,,,,,,,,,255.044,255.744,m,1,0.675,,255.744,255.744,,0,94,94,123,1,124,güneş,4371,198.6009,3610,0.3946,5,harmonic,,word,m,,,,,,,
,,,,2023-11-29_00h56.08.982,VH_v3,2023.2.3,MacIntel,58.82352941,,,,,,,,,,,,255.745,256.744,,,,,,,,,,,,,,,,,,,,,,,,,,256.744,257.244,m,1,0.476,,257.244,257.244,,0,95,95,156,1,157,sosyal,5290,240.3566,4372,0.4779,6,harmonic,,word,m,,,,,,,
,,,,2023-11-29_00h56.08.982,VH_v3,2023.2.3,MacIntel,58.82352941,,,,,,,,,,,,257.245,258.243,,,,,,,,,,,,,,,,,,,,,,,,,,258.243,258.827,z,1,0.564,,258.827,258.828,,0,96,96,305,1,306,itba,,,,,4,notharmonic,1.85,nw,z,,,,,,,
,,,,2023-11-29_00h56.08.982,VH_v3,2023.2.3,MacIntel,58.82352941,,,,,,,,,,,,258.829,259.827,,,,,,,,,,,,,,,,,,,,,,,,,,259.827,260.426,z,1,0.583,,260.427,260.427,,0,97,97,341,1,342,sizika,,,,,6,notharmonic,2.45,nw,z,,,,,,,
,,,,2023-11-29_00h56.08.982,VH_v3,2023.2.3,MacIntel,58.82352941,,,,,,,,,,,,260.428,261.427,,,,,,,,,,,,,,,,,,,,,,,,,,261.427,262.094,m,1,0.644,,262.094,262.094,,0,98,98,66,1,67,sanık,768,34.8949,699,0.0764,5,harmonic,1.85,word,m,,,,,,,
,,,,2023-11-29_00h56.08.982,VH_v3,2023.2.3,MacIntel,58.82352941,,,,,,,,,,,,262.095,263.094,,,,,,,,,,,,,,,,,,,,,,,,,,263.094,263.644,z,1,0.527,,263.644,263.644,,0,99,99,198,1,199,ıdol,,,,,4,harmonic,1.9,nw,z,,,,,,,
,,,,2023-11-29_00h56.08.982,VH_v3,2023.2.3,MacIntel,58.82352941,,,,,,,,,,,,263.645,264.644,,,,,,,,,,,,,,,,,,,,,,,,,,264.644,265.144,m,1,0.479,,265.144,265.144,,0,100,100,59,1,60,köpek,1044,47.4352,901,0.0985,5,harmonic,1.75,word,m,,,,,,,
,,,,2023-11-29_00h56.08.982,VH_v3,2023.2.3,MacIntel,58.82352941,,,,,,,,,,,,265.145,266.144,,,,,,,,,,,,,,,,,,,,,,,,,,266.144,266.694,m,1,0.529,,266.694,266.694,,0,101,101,148,1,149,ışık,1814,82.421,1635,0.1787,4,harmonic,,word,m,,,,,,,
,,,,2023-11-29_00h56.08.982,VH_v3,2023.2.3,MacIntel,58.82352941,,,,,,,,,,,,266.695,267.694,,,,,,,,,,,,,,,,,,,,,,,,,,267.694,268.377,z,1,0.662,,268.378,268.378,,0,102,102,195,1,196,habaş,,,,,5,harmonic,1.95,nw,z,,,,,,,
,,,,2023-11-29_00h56.08.982,VH_v3,2023.2.3,MacIntel,58.82352941,,,,,,,,,,,,268.379,269.377,,,,,,,,,,,,,,,,,,,,,,,,,,269.377,269.944,z,1,0.545,,269.944,269.944,,0,103,103,346,1,347,mamit,,,,,5,notharmonic,1.85,nw,z,,,,,,,
,,,,2023-11-29_00h56.08.982,VH_v3,2023.2.3,MacIntel,58.82352941,,,,,,,,,,,,269.945,270.944,,,,,,,,,,,,,,,,,,,,,,,,,,270.944,271.494,z,1,0.529,,271.494,271.494,,0,104,104,266,1,267,yannoz,,,,,6,harmonic,2.85,nw,z,,,,,,,
,,,,2023-11-29_00h56.08.982,VH_v3,2023.2.3,MacIntel,58.82352941,,,,,,,,,,,,271.495,272.494,,,,,,,,,,,,,,,,,,,,,,,,,,272.494,273.077,m,1,0.565,,273.077,273.077,,0,105,105,30,1,31,çevre,1662,75.5147,1409,0.154,5,harmonic,1.55,word,m,,,,,,,
,,,,2023-11-29_00h56.08.982,VH_v3,2023.2.3,MacIntel,58.82352941,,,,,,,,,,,,273.078,274.077,,,,,,,,,,,,,,,,,,,,,,,,,,274.077,274.711,z,1,0.612,,274.711,274.711,,0,106,106,268,1,269,hayot,,,,,5,harmonic,,nw,z,,,,,,,
,,,,2023-11-29_00h56.08.982,VH_v3,2023.2.3,MacIntel,58.82352941,,,,,,,,,,,,274.712,275.711,,,,,,,,,,,,,,,,,,,,,,,,,,275.711,276.344,z,1,0.612,,276.344,276.344,,0,107,107,219,1,220,tefsi,,,,,5,harmonic,1.8,nw,z,,,,,,,
,,,,2023-11-29_00h56.08.982,VH_v3,2023.2.3,MacIntel,58.82352941,,,,,,,,,,,,276.345,277.344,,,,,,,,,,,,,,,,,,,,,,,,,,277.344,277.861,m,1,0.494,,277.861,277.861,,0,108,108,170,1,171,parmak,1268,57.6129,1165,0.1274,6,harmonic,,word,m,,,,,,,
,,,,2023-11-29_00h56.08.982,VH_v3,2023.2.3,MacIntel,58.82352941,,,,,,,,,,,,277.862,278.861,,,,,,,,,,,,,,,,,,,,,,,,,,278.861,279.578,z,1,0.695,,279.578,279.578,,0,109,109,304,1,305,irak,,,,,4,notharmonic,1.55,nw,z,,,,,,,
,,,,2023-11-29_00h56.08.982,VH_v3,2023.2.3,MacIntel,58.82352941,,,,,,,,,,,,279.579,280.577,,,,,,,,,,,,,,,,,,,,,,,,,,280.577,281.144,m,1,0.545,,281.144,281.144,,0,110,110,158,1,159,tercih,4577,207.9607,4282,0.4681,6,harmonic,,word,m,,,,,,,
,,,,2023-11-29_00h56.08.982,VH_v3,2023.2.3,MacIntel,58.82352941,,,,,,,,,,,,281.145,282.144,,,,,,,,,,,,,,,,,,,,,,,,,,282.144,282.894,z,1,0.728,,282.894,282.895,,0,111,111,225,1,226,sakam,,,,,5,harmonic,1.45,nw,z,,,,,,,
,,,,2023-11-29_00h56.08.982,VH_v3,2023.2.3,MacIntel,58.82352941,,,,,,,,,,,,282.896,283.894,,,,,,,,,,,,,,,,,,,,,,,,,,283.894,284.444,m,1,0.535,,284.444,284.444,,0,112,112,62,1,63,cümle,1911,86.8283,1765,0.193,5,harmonic,1.85,word,m,,,,,,,
,,,,2023-11-29_00h56.08.982,VH_v3,2023.2.3,MacIntel,58.82352941,,,,,,,,,,,,284.445,285.444,,,,,,,,,,,,,,,,,,,,,,,,,,285.444,286.694,z,1,1.229,,286.694,286.694,,0,113,113,339,1,340,halip,,,,,5,notharmonic,1.5,nw,z,,,,,,,
,,,,2023-11-29_00h56.08.982,VH_v3,2023.2.3,MacIntel,58.82352941,,,,,,,,,,,,286.696,287.694,,,,,,,,,,,,,,,,,,,,,,,,,,287.694,288.244,m,1,0.531,,288.244,288.244,,0,114,114,24,1,25,yorgun,1153,52.3877,1108,0.1211,6,harmonic,1.55,word,m,,,,,,,
,,,,2023-11-29_00h56.08.982,VH_v3,2023.2.3,MacIntel,58.82352941,,,,,,,,,,,,288.245,289.244,,,,,,,,,,,,,,,,,,,,,,,,,,289.244,289.928,z,1,0.662,,289.928,289.928,,0,115,115,249,1,250,öldek,,,,,5,harmonic,1.85,nw,z,,,,,,,
,,,,2023-11-29_00h56.08.982,VH_v3,2023.2.3,MacIntel,58.82352941,,,,,,,,,,,,289.929,290.928,,,,,,,,,,,,,,,,,,,,,,,,,,290.928,291.594,z,1,0.644,,291.594,291.595,,0,116,116,187,1,188,hücmet,,,,,6,harmonic,1.85,nw,z,,,,,,,
,,,,2023-11-29_00h56.08.982,VH_v3,2023.2.3,MacIntel,58.82352941,,,,,,,,,,,,291.596,292.594,,,,,,,,,,,,,,,,,,,,,,,,,,292.594,293.111,m,1,0.495,,293.111,293.111,,0,117,117,29,1,30,huzur,1911,86.8283,1799,0.1967,5,harmonic,1.8,word,m,,,,,,,
,,,,2023-11-29_00h56.08.982,VH_v3,2023.2.3,MacIntel,58.82352941,,,,,,,,,,,,293.112,294.111,,,,,,,,,,,,,,,,,,,,,,,,,,294.111,294.911,z,1,0.781,,294.911,294.911,,0,118,118,328,1,329,tadit,,,,,5,notharmonic,1.8,nw,z,,,,,,,
,,,,2023-11-29_00h56.08.982,VH_v3,2023.2.3,MacIntel,58.82352941,,,,,,,,,,,,294.912,295.911,,,,,,,,,,,,,,,,,,,,,,,,,,295.911,296.644,m,1,0.716,,296.644,296.645,,0,119,119,63,1,64,sultan,1756,79.7857,1368,0.1496,6,harmonic,1.55,word,m,,,,,,,
,,,,2023-11-29_00h56.08.982,VH_v3,2023.2.3,MacIntel,58.82352941,,,,,,,,,,,,296.646,297.644,,,,,,,,,,,,,,,,,,,,,,,,,,297.644,298.461,z,1,0.795,,298.461,334.662,space,0,120,120,232,1,233,çemek,,,,,5,harmonic,1.5,nw,z,36.184,,,,,,
,,,,2023-11-29_00h56.08.982,VH_v3,2023.2.3,MacIntel,58.82352941,,,,,,,,,,,,334.664,335.662,,,,,,,,,,,,,,,,,,,,,,,,,,335.662,336.212,m,1,0.527,,336.212,336.212,,0,121,121,99,1,100,çocuk,10612,482.1672,8979,0.9816,5,harmonic,,word,m,,,,,,,
,,,,2023-11-29_00h56.08.982,VH_v3,2023.2.3,MacIntel,58.82352941,,,,,,,,,,,,336.214,337.212,,,,,,,,,,,,,,,,,,,,,,,,,,337.212,337.728,z,0,0.499,,337.728,337.729,,0,122,122,11,1,12,umut,1988,90.3268,1818,0.1987,4,harmonic,1.55,word,m,,,,,,,
,,,,2023-11-29_00h56.08.982,VH_v3,2023.2.3,MacIntel,58.82352941,,,,,,,,,,,,337.73,338.728,,,,,,,,,,,,,,,,,,,,,,,,,,338.729,339.378,z,1,0.627,,339.378,339.379,,0,123,123,320,1,321,sivaka,,,,,6,notharmonic,2.3,nw,z,,,,,,,
,,,,2023-11-29_00h56.08.982,VH_v3,2023.2.3,MacIntel,58.82352941,,,,,,,,,,,,339.38,340.378,,,,,,,,,,,,,,,,,,,,,,,,,,340.378,340.844,m,1,0.444,,340.845,340.845,,0,124,124,7,1,8,hizmet,3023,137.3531,2689,0.294,6,harmonic,1.75,word,m,,,,,,,
,,,,2023-11-29_00h56.08.982,VH_v3,2023.2.3,MacIntel,58.82352941,,,,,,,,,,,,340.846,341.845,,,,,,,,,,,,,,,,,,,,,,,,,,341.845,342.312,m,1,0.444,,342.312,342.312,,0,125,125,1,1,2,erkek,6188,281.1582,5195,0.5679,5,harmonic,1.65,word,m,,,,,,,
,,,,2023-11-29_00h56.08.982,VH_v3,2023.2.3,MacIntel,58.82352941,,,,,,,,,,,,342.313,343.312,,,,,,,,,,,,,,,,,,,,,,,,,,343.312,343.845,z,1,0.519,,343.845,343.845,,0,126,126,257,1,258,dulom,,,,,5,harmonic,2.3,nw,z,,,,,,,
,,,,2023-11-29_00h56.08.982,VH_v3,2023.2.3,MacIntel,58.82352941,,,,,,,,,,,,343.846,344.844,,,,,,,,,,,,,,,,,,,,,,,,,,344.845,345.379,z,1,0.515,,345.379,345.379,,0,127,127,230,1,231,redem,,,,,5,harmonic,2,nw,z,,,,,,,
,,,,2023-11-29_00h56.08.982,VH_v3,2023.2.3,MacIntel,58.82352941,,,,,,,,,,,,345.38,346.378,,,,,,,,,,,,,,,,,,,,,,,,,,346.379,346.878,m,1,0.477,,346.878,346.878,,0,128,128,37,1,38,hayvan,2363,107.3653,1894,0.2071,6,harmonic,1.5,word,m,,,,,,,
,,,,2023-11-29_00h56.08.982,VH_v3,2023.2.3,MacIntel,58.82352941,,,,,,,,,,,,346.879,347.878,,,,,,,,,,,,,,,,,,,,,,,,,,347.879,348.262,m,1,0.362,,348.262,348.262,,0,129,129,104,1,105,çizgi,1340,60.8843,1074,0.1174,5,harmonic,,word,m,,,,,,,
,,,,2023-11-29_00h56.08.982,VH_v3,2023.2.3,MacIntel,58.82352941,,,,,,,,,,,,348.264,349.261,,,,,,,,,,,,,,,,,,,,,,,,,,349.261,349.895,z,1,0.611,,349.896,349.896,,0,130,130,281,1,282,ikva,,,,,4,notharmonic,1.85,nw,z,,,,,,,
,,,,2023-11-29_00h56.08.982,VH_v3,2023.2.3,MacIntel,58.82352941,,,,,,,,,,,,349.897,350.895,,,,,,,,,,,,,,,,,,,,,,,,,,350.895,351.462,z,1,0.545,,351.462,351.462,,0,131,131,188,1,189,hüyen,,,,,5,harmonic,2,nw,z,,,,,,,
,,,,2023-11-29_00h56.08.982,VH_v3,2023.2.3,MacIntel,58.82352941,,,,,,,,,,,,351.463,352.462,,,,,,,,,,,,,,,,,,,,,,,,,,352.462,353.045,z,1,0.562,,353.045,353.045,,0,132,132,252,1,253,savanı,,,,,6,harmonic,1.85,nw,z,,,,,,,
,,,,2023-11-29_00h56.08.982,VH_v3,2023.2.3,MacIntel,58.82352941,,,,,,,,,,,,353.047,354.045,,,,,,,,,,,,,,,,,,,,,,,,,,354.045,354.545,m,1,0.479,,354.545,354.545,,0,133,133,142,1,143,aşık,2464,111.9544,2129,0.2327,4,harmonic,,word,m,,,,,,,
,,,,2023-11-29_00h56.08.982,VH_v3,2023.2.3,MacIntel,58.82352941,,,,,,,,,,,,354.546,355.545,,,,,,,,,,,,,,,,,,,,,,,,,,355.545,356.029,m,1,0.463,,356.029,356.029,,0,134,134,105,1,106,hafta,9257,420.6014,8254,0.9023,5,harmonic,,word,m,,,,,,,
,,,,2023-11-29_00h56.08.982,VH_v3,2023.2.3,MacIntel,58.82352941,,,,,,,,,,,,356.03,357.029,,,,,,,,,,,,,,,,,,,,,,,,,,357.029,357.762,z,1,0.713,,357.762,357.762,,0,135,135,222,1,223,çetiş,,,,,5,harmonic,1.7,nw,z,,,,,,,
,,,,2023-11-29_00h56.08.982,VH_v3,2023.2.3,MacIntel,58.82352941,,,,,,,,,,,,357.763,358.761,,,,,,,,,,,,,,,,,,,,,,,,,,358.761,359.245,z,0,0.463,,359.245,359.245,,0,136,136,144,1,145,şiir,2213,100.5499,1690,0.1848,4,harmonic,,word,m,,,,,,,
,,,,2023-11-29_00h56.08.982,VH_v3,2023.2.3,MacIntel,58.82352941,,,,,,,,,,,,359.246,360.245,,,,,,,,,,,,,,,,,,,,,,,,,,360.245,360.912,z,1,0.646,,360.912,360.912,,0,137,137,287,1,288,beran,,,,,5,notharmonic,1.75,nw,z,,,,,,,
,,,,2023-11-29_00h56.08.982,VH_v3,2023.2.3,MacIntel,58.82352941,,,,,,,,,,,,360.913,361.912,,,,,,,,,,,,,,,,,,,,,,,,,,361.912,362.445,m,1,0.512,,362.445,362.446,,0,138,138,65,1,66,fikir,2552,115.9528,2413,0.2638,5,harmonic,1.9,word,m,,,,,,,
,,,,2023-11-29_00h56.08.982,VH_v3,2023.2.3,MacIntel,58.82352941,,,,,,,,,,,,362.447,363.445,,,,,,,,,,,,,,,,,,,,,,,,,,363.445,364.195,z,1,0.733,,364.195,364.196,,0,139,139,197,1,198,şortal,,,,,6,harmonic,1.95,nw,z,,,,,,,
,,,,2023-11-29_00h56.08.982,VH_v3,2023.2.3,MacIntel,58.82352941,,,,,,,,,,,,364.197,365.195,,,,,,,,,,,,,,,,,,,,,,,,,,365.195,365.812,z,1,0.595,,365.812,365.812,,0,140,140,338,1,339,kunik,,,,,5,notharmonic,1.8,nw,z,,,,,,,
,,,,2023-11-29_00h56.08.982,VH_v3,2023.2.3,MacIntel,58.82352941,,,,,,,,,,,,365.813,366.812,,,,,,,,,,,,,,,,,,,,,,,,,,366.812,367.379,m,1,0.549,,367.379,367.379,,0,141,141,136,1,137,süper,3256,147.9397,2989,0.3268,5,harmonic,,word,m,,,,,,,
,,,,2023-11-29_00h56.08.982,VH_v3,2023.2.3,MacIntel,58.82352941,,,,,,,,,,,,367.38,368.379,,,,,,,,,,,,,,,,,,,,,,,,,,368.379,368.895,m,1,0.497,,368.895,368.895,,0,142,142,43,1,44,geniş,3380,153.5738,3185,0.3482,5,harmonic,1.35,word,m,,,,,,,
,,,,2023-11-29_00h56.08.982,VH_v3,2023.2.3,MacIntel,58.82352941,,,,,,,,,,,,368.896,369.895,,,,,,,,,,,,,,,,,,,,,,,,,,369.895,370.429,m,1,0.518,,370.429,370.429,,0,143,143,141,1,142,kuru,2669,121.2688,2372,0.2593,4,harmonic,,word,m,,,,,,,
,,,,2023-11-29_00h56.08.982,VH_v3,2023.2.3,MacIntel,58.82352941,,,,,,,,,,,,370.43,371.429,,,,,,,,,,,,,,,,,,,,,,,,,,371.429,371.995,z,1,0.546,,371.995,371.995,,0,144,144,243,1,244,şiker,,,,,5,harmonic,1.85,nw,z,,,,,,,
,,,,2023-11-29_00h56.08.982,VH_v3,2023.2.3,MacIntel,58.82352941,,,,,,,,,,,,371.996,372.995,,,,,,,,,,,,,,,,,,,,,,,,,,372.996,373.595,m,1,0.579,,373.595,373.596,,0,145,145,3,1,4,minik,2916,132.4915,2594,0.2836,5,harmonic,1.6,word,m,,,,,,,
,,,,2023-11-29_00h56.08.982,VH_v3,2023.2.3,MacIntel,58.82352941,,,,,,,,,,,,373.597,374.595,,,,,,,,,,,,,,,,,,,,,,,,,,374.596,375.195,z,1,0.582,,375.195,375.196,,0,146,146,308,1,309,tasnin,,,,,6,notharmonic,1.85,nw,z,,,,,,,
,,,,2023-11-29_00h56.08.982,VH_v3,2023.2.3,MacIntel,58.82352941,,,,,,,,,,,,375.197,376.195,,,,,,,,,,,,,,,,,,,,,,,,,,376.196,376.812,z,1,0.599,,376.812,376.812,,0,147,147,258,1,259,meryeş,,,,,6,harmonic,2.35,nw,z,,,,,,,
,,,,2023-11-29_00h56.08.982,VH_v3,2023.2.3,MacIntel,58.82352941,,,,,,,,,,,,376.813,377.812,,,,,,,,,,,,,,,,,,,,,,,,,,377.812,378.395,m,1,0.562,,378.395,378.396,,0,148,148,17,1,18,yakın,7990,363.0339,7595,0.8303,5,harmonic,1.8,word,m,,,,,,,
,,,,2023-11-29_00h56.08.982,VH_v3,2023.2.3,MacIntel,58.82352941,,,,,,,,,,,,378.397,379.396,,,,,,,,,,,,,,,,,,,,,,,,,,379.396,379.945,m,1,0.527,,379.945,379.945,,0,149,149,78,1,79,ulusal,1551,70.4713,1355,0.1481,6,harmonic,1.75,word,m,,,,,,,
,,,,2023-11-29_00h56.08.982,VH_v3,2023.2.3,MacIntel,58.82352941,,,,,,,,,,,,379.946,380.946,,,,,,,,,,,,,,,,,,,,,,,,,,380.946,381.612,z,1,0.644,,381.612,381.612,,0,150,150,264,1,265,yerfek,,,,,6,harmonic,2,nw,z,,,,,,,
,,,,2023-11-29_00h56.08.982,VH_v3,2023.2.3,MacIntel,58.82352941,,,,,,,,,,,,381.613,382.612,,,,,,,,,,,,,,,,,,,,,,,,,,382.612,383.229,z,1,0.596,,383.229,383.229,,0,151,151,353,1,354,medrar,,,,,6,notharmonic,2.05,nw,z,,,,,,,
,,,,2023-11-29_00h56.08.982,VH_v3,2023.2.3,MacIntel,58.82352941,,,,,,,,,,,,383.231,384.229,,,,,,,,,,,,,,,,,,,,,,,,,,384.229,384.812,z,1,0.56,,384.812,384.812,,0,152,152,329,1,330,aniş,,,,,4,notharmonic,1.7,nw,z,,,,,,,
,,,,2023-11-29_00h56.08.982,VH_v3,2023.2.3,MacIntel,58.82352941,,,,,,,,,,,,384.813,385.812,,,,,,,,,,,,,,,,,,,,,,,,,,385.812,386.362,m,1,0.529,,386.362,386.363,,0,153,153,122,1,123,sorun,4653,211.4139,4296,0.4696,5,harmonic,,word,m,,,,,,,
,,,,2023-11-29_00h56.08.982,VH_v3,2023.2.3,MacIntel,58.82352941,,,,,,,,,,,,386.364,387.362,,,,,,,,,,,,,,,,,,,,,,,,,,387.362,387.796,m,1,0.414,,387.796,387.796,,0,154,154,139,1,140,okul,2685,121.9958,2381,0.2603,4,harmonic,,word,m,,,,,,,
,,,,2023-11-29_00h56.08.982,VH_v3,2023.2.3,MacIntel,58.82352941,,,,,,,,,,,,387.797,388.796,,,,,,,,,,,,,,,,,,,,,,,,,,388.796,389.346,m,1,0.534,,389.346,389.346,,0,155,155,9,1,10,karar,8108,368.3954,7436,0.8129,5,harmonic,1.6,word,m,,,,,,,
,,,,2023-11-29_00h56.08.982,VH_v3,2023.2.3,MacIntel,58.82352941,,,,,,,,,,,,389.347,390.346,,,,,,,,,,,,,,,,,,,,,,,,,,390.346,390.946,m,1,0.58,,390.946,390.946,,0,156,156,175,1,176,gündüz,1167,53.0239,1088,0.1189,6,harmonic,,word,m,,,,,,,
,,,,2023-11-29_00h56.08.982,VH_v3,2023.2.3,MacIntel,58.82352941,,,,,,,,,,,,390.947,391.946,,,,,,,,,,,,,,,,,,,,,,,,,,391.946,392.512,m,1,0.552,,392.512,392.512,,0,157,157,57,1,58,bölüm,1910,86.7828,1605,0.1755,5,harmonic,1.45,word,m,,,,,,,
,,,,2023-11-29_00h56.08.982,VH_v3,2023.2.3,MacIntel,58.82352941,,,,,,,,,,,,392.513,393.512,,,,,,,,,,,,,,,,,,,,,,,,,,393.512,394.162,z,1,0.627,,394.163,394.163,,0,158,158,190,1,191,banyak,,,,,6,harmonic,1.85,nw,z,,,,,,,
,,,,2023-11-29_00h56.08.982,VH_v3,2023.2.3,MacIntel,58.82352941,,,,,,,,,,,,394.164,395.162,,,,,,,,,,,,,,,,,,,,,,,,,,395.163,395.779,z,1,0.593,,395.779,395.78,,0,159,159,260,1,261,abaf,,,,,4,harmonic,1.85,nw,z,,,,,,,
,,,,2023-11-29_00h56.08.982,VH_v3,2023.2.3,MacIntel,58.82352941,,,,,,,,,,,,395.781,396.779,,,,,,,,,,,,,,,,,,,,,,,,,,396.779,397.379,m,1,0.584,,397.379,397.379,,0,160,160,91,1,92,zaman,40307,1831.3902,33589,3.672,5,harmonic,,word,m,,,,,,,
,,,,2023-11-29_00h56.08.982,VH_v3,2023.2.3,MacIntel,58.82352941,,,,,,,,,,,,397.38,398.379,,,,,,,,,,,,,,,,,,,,,,,,,,398.379,398.946,z,1,0.544,,398.946,398.946,,0,161,161,313,1,314,hahih,,,,,5,notharmonic,1.95,nw,z,,,,,,,
,,,,2023-11-29_00h56.08.982,VH_v3,2023.2.3,MacIntel,58.82352941,,,,,,,,,,,,398.947,399.946,,,,,,,,,,,,,,,,,,,,,,,,,,399.946,400.462,m,1,0.496,,400.462,400.463,,0,162,162,42,1,43,ürün,2268,103.0489,1954,0.2136,4,harmonic,1.1,word,m,,,,,,,
,,,,2023-11-29_00h56.08.982,VH_v3,2023.2.3,MacIntel,58.82352941,,,,,,,,,,,,400.464,401.462,,,,,,,,,,,,,,,,,,,,,,,,,,401.462,401.962,z,1,0.485,,401.962,401.963,,0,163,163,324,1,325,başi,,,,,4,notharmonic,1.5,nw,z,,,,,,,
,,,,2023-11-29_00h56.08.982,VH_v3,2023.2.3,MacIntel,58.82352941,,,,,,,,,,,,401.964,402.962,,,,,,,,,,,,,,,,,,,,,,,,,,402.963,403.629,m,0,0.645,,403.629,403.629,,0,164,164,211,1,212,metel,,,,,5,harmonic,1.75,nw,z,,,,,,,
,,,,2023-11-29_00h56.08.982,VH_v3,2023.2.3,MacIntel,58.82352941,,,,,,,,,,,,403.63,404.629,,,,,,,,,,,,,,,,,,,,,,,,,,404.629,405.162,m,1,0.516,,405.162,405.163,,0,165,165,77,1,78,ufak,3252,147.758,2980,0.3258,4,harmonic,1.5,word,m,,,,,,,
,,,,2023-11-29_00h56.08.982,VH_v3,2023.2.3,MacIntel,58.82352941,,,,,,,,,,,,405.164,406.162,,,,,,,,,,,,,,,,,,,,,,,,,,406.162,406.679,m,1,0.495,,406.679,406.68,,0,166,166,72,1,73,çorba,1674,76.0599,1513,0.1654,5,harmonic,1.75,word,m,,,,,,,
,,,,2023-11-29_00h56.08.982,VH_v3,2023.2.3,MacIntel,58.82352941,,,,,,,,,,,,406.681,407.679,,,,,,,,,,,,,,,,,,,,,,,,,,407.679,408.129,m,1,0.428,,408.13,408.13,,0,167,167,151,1,152,uzak,4809,218.5019,4564,0.4989,4,harmonic,,word,m,,,,,,,
,,,,2023-11-29_00h56.08.982,VH_v3,2023.2.3,MacIntel,58.82352941,,,,,,,,,,,,408.132,409.129,,,,,,,,,,,,,,,,,,,,,,,,,,409.13,409.646,m,1,0.499,,409.646,409.646,,0,168,168,95,1,96,koyun,1431,65.019,1292,0.1412,5,harmonic,,word,m,,,,,,,
,,,,2023-11-29_00h56.08.982,VH_v3,2023.2.3,MacIntel,58.82352941,,,,,,,,,,,,409.647,410.646,,,,,,,,,,,,,,,,,,,,,,,,,,410.646,411.145,m,1,0.48,,411.145,411.146,,0,169,169,69,1,70,forma,719,32.6685,597,0.0653,5,harmonic,1.8,word,m,,,,,,,
,,,,2023-11-29_00h56.08.982,VH_v3,2023.2.3,MacIntel,58.82352941,,,,,,,,,,,,411.147,412.146,,,,,,,,,,,,,,,,,,,,,,,,,,412.146,412.629,m,1,0.468,,412.629,412.629,,0,170,170,92,1,93,büyük,32406,1472.4001,28224,3.0855,5,harmonic,,word,m,,,,,,,
,,,,2023-11-29_00h56.08.982,VH_v3,2023.2.3,MacIntel,58.82352941,,,,,,,,,,,,412.63,413.629,,,,,,,,,,,,,,,,,,,,,,,,,,413.629,414.029,m,1,0.379,,414.029,414.029,,0,171,171,71,1,72,örnek,3463,157.345,3266,0.357,5,harmonic,1.85,word,m,,,,,,,
,,,,2023-11-29_00h56.08.982,VH_v3,2023.2.3,MacIntel,58.82352941,,,,,,,,,,,,414.031,415.029,,,,,,,,,,,,,,,,,,,,,,,,,,415.029,415.513,m,1,0.461,,415.513,415.513,,0,172,172,177,1,178,mutfak,1110,50.434,1032,0.1128,6,harmonic,,word,m,,,,,,,
,,,,2023-11-29_00h56.08.982,VH_v3,2023.2.3,MacIntel,58.82352941,,,,,,,,,,,,415.514,416.513,,,,,,,,,,,,,,,,,,,,,,,,,,416.513,416.979,z,1,0.445,,416.979,416.979,,0,173,173,321,1,322,kibas,,,,,5,notharmonic,1.9,nw,z,,,,,,,
,,,,2023-11-29_00h56.08.982,VH_v3,2023.2.3,MacIntel,58.82352941,,,,,,,,,,,,416.981,417.979,,,,,,,,,,,,,,,,,,,,,,,,,,417.979,418.579,m,1,0.583,,418.579,418.579,,0,174,174,135,1,136,değer,3333,151.4383,3084,0.3371,5,harmonic,,word,m,,,,,,,
,,,,2023-11-29_00h56.08.982,VH_v3,2023.2.3,MacIntel,58.82352941,,,,,,,,,,,,418.58,419.579,,,,,,,,,,,,,,,,,,,,,,,,,,419.579,420.113,m,1,0.512,,420.113,420.113,,0,175,175,145,1,146,ilgi,2144,97.4149,2041,0.2231,4,harmonic,,word,m,,,,,,,
,,,,2023-11-29_00h56.08.982,VH_v3,2023.2.3,MacIntel,58.82352941,,,,,,,,,,,,420.114,421.113,,,,,,,,,,,,,,,,,,,,,,,,,,421.113,421.746,z,1,0.61,,421.746,421.746,,0,176,176,294,1,295,fiyan,,,,,5,notharmonic,1.65,nw,z,,,,,,,
,,,,2023-11-29_00h56.08.982,VH_v3,2023.2.3,MacIntel,58.82352941,,,,,,,,,,,,421.747,422.746,,,,,,,,,,,,,,,,,,,,,,,,,,422.746,423.279,m,1,0.516,,423.279,423.279,,0,177,177,114,1,115,türlü,7010,318.5066,6559,0.717,5,harmonic,,word,m,,,,,,,
,,,,2023-11-29_00h56.08.982,VH_v3,2023.2.3,MacIntel,58.82352941,,,,,,,,,,,,423.28,424.28,,,,,,,,,,,,,,,,,,,,,,,,,,424.28,424.778,m,1,0.479,,424.779,424.779,,0,178,178,143,1,144,isim,2366,107.5017,2163,0.2365,4,harmonic,,word,m,,,,,,,
,,,,2023-11-29_00h56.08.982,VH_v3,2023.2.3,MacIntel,58.82352941,,,,,,,,,,,,424.78,425.779,,,,,,,,,,,,,,,,,,,,,,,,,,425.779,426.213,m,0,0.413,,426.213,426.213,,0,179,179,214,1,215,yapa,,,,,4,harmonic,1,nw,z,,,,,,,
,,,,2023-11-29_00h56.08.982,VH_v3,2023.2.3,MacIntel,58.82352941,,,,,,,,,,,,426.214,427.213,,,,,,,,,,,,,,,,,,,,,,,,,,427.213,427.646,m,1,0.412,,427.646,427.646,,0,180,180,179,1,180,mesele,995,45.2089,929,0.1016,6,harmonic,,word,m,,,,,,,
,,,,2023-11-29_00h56.08.982,VH_v3,2023.2.3,MacIntel,58.82352941,,,,,,,,,,,,427.647,428.646,,,,,,,,,,,,,,,,,,,,,,,,,,428.646,429.129,m,1,0.462,,429.129,429.13,,0,181,181,160,1,161,günlük,3421,155.4367,3201,0.3499,6,harmonic,,word,m,,,,,,,
,,,,2023-11-29_00h56.08.982,VH_v3,2023.2.3,MacIntel,58.82352941,,,,,,,,,,,,429.131,430.129,,,,,,,,,,,,,,,,,,,,,,,,,,430.13,430.696,z,1,0.545,,430.696,430.696,,0,182,182,292,1,293,semun,,,,,5,notharmonic,1.85,nw,z,,,,,,,
,,,,2023-11-29_00h56.08.982,VH_v3,2023.2.3,MacIntel,58.82352941,,,,,,,,,,,,430.697,431.696,,,,,,,,,,,,,,,,,,,,,,,,,,431.696,432.279,m,1,0.563,,432.28,432.28,,0,183,183,16,1,17,yavaş,5087,231.1331,2886,0.3155,5,harmonic,1.6,word,m,,,,,,,
,,,,2023-11-29_00h56.08.982,VH_v3,2023.2.3,MacIntel,58.82352941,,,,,,,,,,,,432.281,433.279,,,,,,,,,,,,,,,,,,,,,,,,,,433.28,433.846,m,1,0.545,,433.846,433.846,,0,184,184,113,1,114,akşam,7480,339.8615,6833,0.747,5,harmonic,,word,m,,,,,,,
,,,,2023-11-29_00h56.08.982,VH_v3,2023.2.3,MacIntel,58.82352941,,,,,,,,,,,,433.847,434.846,,,,,,,,,,,,,,,,,,,,,,,,,,434.846,435.345,m,1,0.485,,435.346,435.346,,0,185,185,176,1,177,tebrik,1117,50.7521,1102,0.1205,6,harmonic,,word,m,,,,,,,
,,,,2023-11-29_00h56.08.982,VH_v3,2023.2.3,MacIntel,58.82352941,,,,,,,,,,,,435.347,436.346,,,,,,,,,,,,,,,,,,,,,,,,,,436.346,437.146,z,1,0.781,,437.146,437.146,,0,186,186,215,1,216,maflek,,,,,6,harmonic,2.15,nw,z,,,,,,,
,,,,2023-11-29_00h56.08.982,VH_v3,2023.2.3,MacIntel,58.82352941,,,,,,,,,,,,437.147,438.146,,,,,,,,,,,,,,,,,,,,,,,,,,438.146,438.896,m,1,0.727,,438.896,438.896,,0,187,187,46,1,47,takım,4370,198.5555,3726,0.4073,5,harmonic,1.7,word,m,,,,,,,
,,,,2023-11-29_00h56.08.982,VH_v3,2023.2.3,MacIntel,58.82352941,,,,,,,,,,,,438.897,439.896,,,,,,,,,,,,,,,,,,,,,,,,,,439.896,440.529,m,1,0.611,,440.529,440.53,,0,188,188,44,1,45,kayıt,1234,56.0681,1058,0.1157,5,harmonic,1.35,word,m,,,,,,,
,,,,2023-11-29_00h56.08.982,VH_v3,2023.2.3,MacIntel,58.82352941,,,,,,,,,,,,440.53,441.53,,,,,,,,,,,,,,,,,,,,,,,,,,441.53,441.996,z,1,0.452,,441.996,441.996,,0,189,189,269,1,270,kanon,,,,,5,harmonic,,nw,z,,,,,,,
,,,,2023-11-29_00h56.08.982,VH_v3,2023.2.3,MacIntel,58.82352941,,,,,,,,,,,,441.997,442.996,,,,,,,,,,,,,,,,,,,,,,,,,,442.996,443.596,z,0,0.579,,443.596,443.597,,0,190,190,2,1,3,radyo,763,34.6677,636,0.0695,5,harmonic,1.85,word,m,,,,,,,
,,,,2023-11-29_00h56.08.982,VH_v3,2023.2.3,MacIntel,58.82352941,,,,,,,,,,,,443.598,444.596,,,,,,,,,,,,,,,,,,,,,,,,,,444.596,445.096,m,1,0.479,,445.097,445.097,,0,191,191,116,1,117,tatlı,5515,250.5797,4949,0.541,5,harmonic,,word,m,,,,,,,
,,,,2023-11-29_00h56.08.982,VH_v3,2023.2.3,MacIntel,58.82352941,,,,,,,,,,,,445.098,446.096,,,,,,,,,,,,,,,,,,,,,,,,,,446.096,446.53,m,1,0.412,,446.53,446.53,,0,192,192,164,1,165,toprak,1989,90.3723,1762,0.1926,6,harmonic,,word,m,,,,,,,
,,,,2023-11-29_00h56.08.982,VH_v3,2023.2.3,MacIntel,58.82352941,,,,,,,,,,,,446.531,447.53,,,,,,,,,,,,,,,,,,,,,,,,,,447.53,448.13,z,1,0.579,,448.13,448.13,,0,193,193,303,1,304,hahir,,,,,5,notharmonic,1.55,nw,z,,,,,,,
,,,,2023-11-29_00h56.08.982,VH_v3,2023.2.3,MacIntel,58.82352941,,,,,,,,,,,,448.131,449.13,,,,,,,,,,,,,,,,,,,,,,,,,,449.13,449.596,m,1,0.444,,449.596,449.597,,0,194,194,129,1,130,yorum,3801,172.7024,3473,0.3797,5,harmonic,,word,m,,,,,,,
,,,,2023-11-29_00h56.08.982,VH_v3,2023.2.3,MacIntel,58.82352941,,,,,,,,,,,,449.598,450.596,,,,,,,,,,,,,,,,,,,,,,,,,,450.596,451.246,z,1,0.631,,451.246,451.247,,0,195,195,327,1,328,zena,,,,,4,notharmonic,1.65,nw,z,,,,,,,
,,,,2023-11-29_00h56.08.982,VH_v3,2023.2.3,MacIntel,58.82352941,,,,,,,,,,,,451.248,452.246,,,,,,,,,,,,,,,,,,,,,,,,,,452.246,452.846,z,1,0.579,,452.846,452.847,,0,196,196,209,1,210,çirre,,,,,5,harmonic,2,nw,z,,,,,,,
,,,,2023-11-29_00h56.08.982,VH_v3,2023.2.3,MacIntel,58.82352941,,,,,,,,,,,,452.848,453.846,,,,,,,,,,,,,,,,,,,,,,,,,,453.847,454.446,m,1,0.58,,454.446,454.447,,0,197,197,49,1,50,şeker,4708,213.9128,4170,0.4559,5,harmonic,1.6,word,m,,,,,,,
,,,,2023-11-29_00h56.08.982,VH_v3,2023.2.3,MacIntel,58.82352941,,,,,,,,,,,,454.448,455.446,,,,,,,,,,,,,,,,,,,,,,,,,,455.446,456.263,m,1,0.795,,456.263,456.263,,0,198,198,48,1,49,teşvik,932,42.3464,867,0.0948,6,harmonic,1.8,word,m,,,,,,,
,,,,2023-11-29_00h56.08.982,VH_v3,2023.2.3,MacIntel,58.82352941,,,,,,,,,,,,456.264,457.263,,,,,,,,,,,,,,,,,,,,,,,,,,457.263,457.73,m,1,0.446,,457.73,457.73,,0,199,199,150,1,151,ağır,4441,201.7814,3961,0.433,4,harmonic,,word,m,,,,,,,
,,,,2023-11-29_00h56.08.982,VH_v3,2023.2.3,MacIntel,58.82352941,,,,,,,,,,,,457.731,458.73,,,,,,,,,,,,,,,,,,,,,,,,,,458.73,459.413,m,1,0.666,,459.413,459.413,,0,200,200,85,1,86,geçmiş,4195,190.6042,4039,0.4415,6,harmonic,1.55,word,m,,,,,,,
,,,,2023-11-29_00h56.08.982,VH_v3,2023.2.3,MacIntel,58.82352941,,,,,,,,,,,,459.414,460.413,,,,,,,,,,,,,,,,,,,,,,,,,,460.413,460.863,m,1,0.433,,460.863,460.863,,0,201,201,153,1,154,para,7124,323.6863,5953,0.6508,4,harmonic,,word,m,,,,,,,
,,,,2023-11-29_00h56.08.982,VH_v3,2023.2.3,MacIntel,58.82352941,,,,,,,,,,,,460.864,461.863,,,,,,,,,,,,,,,,,,,,,,,,,,461.863,462.463,z,1,0.583,,462.463,462.463,,0,202,202,206,1,207,bülse,,,,,5,harmonic,2,nw,z,,,,,,,
,,,,2023-11-29_00h56.08.982,VH_v3,2023.2.3,MacIntel,58.82352941,,,,,,,,,,,,462.464,463.463,,,,,,,,,,,,,,,,,,,,,,,,,,463.463,464.313,z,1,0.829,,464.313,464.313,,0,203,203,234,1,235,taslam,,,,,6,harmonic,1.9,nw,z,,,,,,,
,,,,2023-11-29_00h56.08.982,VH_v3,2023.2.3,MacIntel,58.82352941,,,,,,,,,,,,464.314,465.313,,,,,,,,,,,,,,,,,,,,,,,,,,465.313,465.963,z,1,0.629,,465.963,465.963,,0,204,204,210,1,211,şatla,,,,,5,harmonic,1.5,nw,z,,,,,,,
,,,,2023-11-29_00h56.08.982,VH_v3,2023.2.3,MacIntel,58.82352941,,,,,,,,,,,,465.964,466.963,,,,,,,,,,,,,,,,,,,,,,,,,,466.963,467.497,m,1,0.512,,467.497,467.497,,0,205,205,118,1,119,deniz,5006,227.4528,4256,0.4653,5,harmonic,,word,m,,,,,,,
,,,,2023-11-29_00h56.08.982,VH_v3,2023.2.3,MacIntel,58.82352941,,,,,,,,,,,,467.498,468.497,,,,,,,,,,,,,,,,,,,,,,,,,,468.497,469.063,m,0,0.546,,469.063,469.063,,0,206,206,282,1,283,edap,,,,,4,notharmonic,1.7,nw,z,,,,,,,
,,,,2023-11-29_00h56.08.982,VH_v3,2023.2.3,MacIntel,58.82352941,,,,,,,,,,,,469.064,470.063,,,,,,,,,,,,,,,,,,,,,,,,,,470.063,470.813,z,1,0.728,,470.813,470.813,,0,207,207,270,1,271,sarip,,,,,5,notharmonic,1.65,nw,z,,,,,,,
,,,,2023-11-29_00h56.08.982,VH_v3,2023.2.3,MacIntel,58.82352941,,,,,,,,,,,,470.815,471.813,,,,,,,,,,,,,,,,,,,,,,,,,,471.813,472.547,m,1,0.712,,472.547,472.547,,0,208,208,130,1,131,sonuç,3768,171.203,3626,0.3964,5,harmonic,,word,m,,,,,,,
,,,,2023-11-29_00h56.08.982,VH_v3,2023.2.3,MacIntel,58.82352941,,,,,,,,,,,,472.548,473.547,,,,,,,,,,,,,,,,,,,,,,,,,,473.547,473.996,m,1,0.429,,473.996,473.996,,0,209,209,162,1,163,destek,3328,151.2111,3065,0.3351,6,harmonic,,word,m,,,,,,,
,,,,2023-11-29_00h56.08.982,VH_v3,2023.2.3,MacIntel,58.82352941,,,,,,,,,,,,473.997,474.997,,,,,,,,,,,,,,,,,,,,,,,,,,474.997,475.597,z,1,0.585,,475.597,475.597,,0,210,210,300,1,301,iştal,,,,,5,notharmonic,1.8,nw,z,,,,,,,
,,,,2023-11-29_00h56.08.982,VH_v3,2023.2.3,MacIntel,58.82352941,,,,,,,,,,,,475.598,476.597,,,,,,,,,,,,,,,,,,,,,,,,,,476.597,477.13,z,1,0.516,,477.13,477.13,,0,211,211,334,1,335,mecda,,,,,5,notharmonic,1.95,nw,z,,,,,,,
,,,,2023-11-29_00h56.08.982,VH_v3,2023.2.3,MacIntel,58.82352941,,,,,,,,,,,,477.131,478.13,,,,,,,,,,,,,,,,,,,,,,,,,,478.13,478.646,z,1,0.496,,478.646,478.647,,0,212,212,355,1,356,daneta,,,,,6,notharmonic,2.4,nw,z,,,,,,,
,,,,2023-11-29_00h56.08.982,VH_v3,2023.2.3,MacIntel,58.82352941,,,,,,,,,,,,478.648,479.647,,,,,,,,,,,,,,,,,,,,,,,,,,479.647,480.197,z,1,0.527,,480.197,480.197,,0,213,213,302,1,303,desum,,,,,5,notharmonic,2,nw,z,,,,,,,
,,,,2023-11-29_00h56.08.982,VH_v3,2023.2.3,MacIntel,58.82352941,,,,,,,,,,,,480.198,481.196,,,,,,,,,,,,,,,,,,,,,,,,,,481.196,481.98,z,1,0.763,,481.98,481.98,,0,214,214,325,1,326,icanat,,,,,6,notharmonic,2.25,nw,z,,,,,,,
,,,,2023-11-29_00h56.08.982,VH_v3,2023.2.3,MacIntel,58.82352941,,,,,,,,,,,,481.981,482.98,,,,,,,,,,,,,,,,,,,,,,,,,,482.98,483.63,m,1,0.635,,483.63,483.63,,0,215,215,121,1,122,şeker,4708,213.9128,4170,0.4559,5,harmonic,,word,m,,,,,,,
,,,,2023-11-29_00h56.08.982,VH_v3,2023.2.3,MacIntel,58.82352941,,,,,,,,,,,,483.631,484.63,,,,,,,,,,,,,,,,,,,,,,,,,,484.63,485.33,z,1,0.683,,485.33,485.33,,0,216,216,352,1,353,yarema,,,,,6,notharmonic,1.95,nw,z,,,,,,,
,,,,2023-11-29_00h56.08.982,VH_v3,2023.2.3,MacIntel,58.82352941,,,,,,,,,,,,485.331,486.33,,,,,,,,,,,,,,,,,,,,,,,,,,486.33,486.98,z,1,0.628,,486.98,486.98,,0,217,217,333,1,334,uleç,,,,,4,notharmonic,1.95,nw,z,,,,,,,
,,,,2023-11-29_00h56.08.982,VH_v3,2023.2.3,MacIntel,58.82352941,,,,,,,,,,,,486.982,487.98,,,,,,,,,,,,,,,,,,,,,,,,,,487.98,488.58,z,1,0.586,,488.58,488.58,,0,218,218,347,1,348,şeylam,,,,,6,notharmonic,2.4,nw,z,,,,,,,
,,,,2023-11-29_00h56.08.982,VH_v3,2023.2.3,MacIntel,58.82352941,,,,,,,,,,,,488.581,489.58,,,,,,,,,,,,,,,,,,,,,,,,,,489.58,490.247,z,1,0.646,,490.247,490.247,,0,219,219,244,1,245,tazık,,,,,5,harmonic,1.7,nw,z,,,,,,,
,,,,2023-11-29_00h56.08.982,VH_v3,2023.2.3,MacIntel,58.82352941,,,,,,,,,,,,490.248,491.247,,,,,,,,,,,,,,,,,,,,,,,,,,491.247,491.713,z,0,0.445,,491.714,491.714,,0,220,220,166,1,167,tespit,1929,87.6461,1745,0.1908,6,harmonic,,word,m,,,,,,,
,,,,2023-11-29_00h56.08.982,VH_v3,2023.2.3,MacIntel,58.82352941,,,,,,,,,,,,491.715,492.714,,,,,,,,,,,,,,,,,,,,,,,,,,492.714,493.197,m,1,0.462,,493.197,493.197,,0,221,221,88,1,89,yalnız,5891,267.6637,5440,0.5947,6,harmonic,1.6,word,m,,,,,,,
,,,,2023-11-29_00h56.08.982,VH_v3,2023.2.3,MacIntel,58.82352941,,,,,,,,,,,,493.198,494.196,,,,,,,,,,,,,,,,,,,,,,,,,,494.196,494.697,m,1,0.483,,494.697,494.697,,0,222,222,8,1,9,güven,1433,65.1098,1300,0.1421,5,harmonic,1.35,word,m,,,,,,,
,,,,2023-11-29_00h56.08.982,VH_v3,2023.2.3,MacIntel,58.82352941,,,,,,,,,,,,494.698,495.697,,,,,,,,,,,,,,,,,,,,,,,,,,495.697,496.28,m,0,0.562,,496.28,496.28,,0,223,223,200,1,201,duftu,,,,,5,harmonic,2.5,nw,z,,,,,,,
,,,,2023-11-29_00h56.08.982,VH_v3,2023.2.3,MacIntel,58.82352941,,,,,,,,,,,,496.282,497.28,,,,,,,,,,,,,,,,,,,,,,,,,,497.281,497.997,z,1,0.695,,497.997,497.997,,0,224,224,344,1,345,adalüt,,,,,6,notharmonic,,nw,z,,,,,,,
,,,,2023-11-29_00h56.08.982,VH_v3,2023.2.3,MacIntel,58.82352941,,,,,,,,,,,,497.999,498.997,,,,,,,,,,,,,,,,,,,,,,,,,,498.997,499.597,m,1,0.579,,499.597,499.597,,0,225,225,18,1,19,normal,4154,188.7413,3788,0.4141,6,harmonic,1.75,word,m,,,,,,,
,,,,2023-11-29_00h56.08.982,VH_v3,2023.2.3,MacIntel,58.82352941,,,,,,,,,,,,499.598,500.597,,,,,,,,,,,,,,,,,,,,,,,,,,500.597,501.264,z,1,0.648,,501.264,501.264,,0,226,226,248,1,249,harık,,,,,5,harmonic,1.55,nw,z,,,,,,,
,,,,2023-11-29_00h56.08.982,VH_v3,2023.2.3,MacIntel,58.82352941,,,,,,,,,,,,501.265,502.264,,,,,,,,,,,,,,,,,,,,,,,,,,502.264,502.847,z,1,0.562,,502.847,502.847,,0,227,227,314,1,315,betaş,,,,,5,notharmonic,1.9,nw,z,,,,,,,
,,,,2023-11-29_00h56.08.982,VH_v3,2023.2.3,MacIntel,58.82352941,,,,,,,,,,,,502.848,503.847,,,,,,,,,,,,,,,,,,,,,,,,,,503.847,504.346,z,1,0.482,,504.346,504.346,,0,228,228,337,1,338,yakim,,,,,5,notharmonic,1.75,nw,z,,,,,,,
,,,,2023-11-29_00h56.08.982,VH_v3,2023.2.3,MacIntel,58.82352941,,,,,,,,,,,,504.347,505.347,,,,,,,,,,,,,,,,,,,,,,,,,,505.347,505.947,m,1,0.578,,505.947,505.947,,0,229,229,84,1,85,ülke,3121,141.8059,2801,0.3062,4,harmonic,1.65,word,m,,,,,,,
,,,,2023-11-29_00h56.08.982,VH_v3,2023.2.3,MacIntel,58.82352941,,,,,,,,,,,,505.948,506.947,,,,,,,,,,,,,,,,,,,,,,,,,,506.947,507.414,m,1,0.445,,507.414,507.414,,0,230,230,133,1,134,ortak,3666,166.5685,3331,0.3641,5,harmonic,,word,m,,,,,,,
,,,,2023-11-29_00h56.08.982,VH_v3,2023.2.3,MacIntel,58.82352941,,,,,,,,,,,,507.415,508.414,,,,,,,,,,,,,,,,,,,,,,,,,,508.414,508.947,m,1,0.511,,508.947,508.947,,0,231,231,161,1,162,servis,3344,151.9381,2968,0.3245,6,harmonic,,word,m,,,,,,,
,,,,2023-11-29_00h56.08.982,VH_v3,2023.2.3,MacIntel,58.82352941,,,,,,,,,,,,508.948,509.947,,,,,,,,,,,,,,,,,,,,,,,,,,509.947,510.396,m,1,0.428,,510.396,510.397,,0,232,232,157,1,158,eğitim,4784,217.366,3846,0.4204,6,harmonic,,word,m,,,,,,,
,,,,2023-11-29_00h56.08.982,VH_v3,2023.2.3,MacIntel,58.82352941,,,,,,,,,,,,510.397,511.397,,,,,,,,,,,,,,,,,,,,,,,,,,511.397,511.864,m,1,0.452,,511.864,511.864,,0,233,233,107,1,108,sivil,1334,60.6117,1151,0.1258,5,harmonic,,word,m,,,,,,,
,,,,2023-11-29_00h56.08.982,VH_v3,2023.2.3,MacIntel,58.82352941,,,,,,,,,,,,511.865,512.864,,,,,,,,,,,,,,,,,,,,,,,,,,512.864,513.48,z,1,0.595,,513.481,513.481,,0,234,234,196,1,197,gakık,,,,,5,harmonic,2,nw,z,,,,,,,
,,,,2023-11-29_00h56.08.982,VH_v3,2023.2.3,MacIntel,58.82352941,,,,,,,,,,,,513.482,514.48,,,,,,,,,,,,,,,,,,,,,,,,,,514.481,515.08,m,1,0.578,,515.081,515.081,,0,235,235,13,1,14,nokta,2085,94.7341,1939,0.212,5,harmonic,1.5,word,m,,,,,,,
,,,,2023-11-29_00h56.08.982,VH_v3,2023.2.3,MacIntel,58.82352941,,,,,,,,,,,,515.082,516.08,,,,,,,,,,,,,,,,,,,,,,,,,,516.081,516.581,m,1,0.477,,516.581,516.581,,0,236,236,103,1,104,yemek,9626,437.3673,8311,0.9086,5,harmonic,,word,m,,,,,,,
,,,,2023-11-29_00h56.08.982,VH_v3,2023.2.3,MacIntel,58.82352941,,,,,,,,,,,,516.582,517.581,,,,,,,,,,,,,,,,,,,,,,,,,,517.581,518.314,z,1,0.711,,518.314,518.314,,0,237,237,192,1,193,kusu,,,,,4,harmonic,1.5,nw,z,,,,,,,
,,,,2023-11-29_00h56.08.982,VH_v3,2023.2.3,MacIntel,58.82352941,,,,,,,,,,,,518.315,519.314,,,,,,,,,,,,,,,,,,,,,,,,,,519.314,519.897,z,1,0.562,,519.897,519.898,,0,238,238,245,1,246,mahram,,,,,6,harmonic,1.85,nw,z,,,,,,,
,,,,2023-11-29_00h56.08.982,VH_v3,2023.2.3,MacIntel,58.82352941,,,,,,,,,,,,519.899,520.897,,,,,,,,,,,,,,,,,,,,,,,,,,520.897,521.547,z,1,0.632,,521.547,521.548,,0,239,239,212,1,213,toya,,,,,4,harmonic,1.6,nw,z,,,,,,,
,,,,2023-11-29_00h56.08.982,VH_v3,2023.2.3,MacIntel,58.82352941,,,,,,,,,,,,521.549,522.547,,,,,,,,,,,,,,,,,,,,,,,,,,522.547,523.113,m,1,0.545,,523.113,534.297,space,0,240,240,117,1,118,yavaş,5087,231.1331,2886,0.3155,5,harmonic,,word,m,11.172,,,,,,
,,,,2023-11-29_00h56.08.982,VH_v3,2023.2.3,MacIntel,58.82352941,,,,,,,,,,,,534.298,535.297,,,,,,,,,,,,,,,,,,,,,,,,,,535.297,535.781,m,1,0.469,,535.781,535.781,,0,241,241,154,1,155,oyun,4926,223.8179,3995,0.4367,4,harmonic,,word,m,,,,,,,
,,,,2023-11-29_00h56.08.982,VH_v3,2023.2.3,MacIntel,58.82352941,,,,,,,,,,,,535.782,536.781,,,,,,,,,,,,,,,,,,,,,,,,,,536.781,537.597,z,1,0.794,,537.597,537.598,,0,242,242,224,1,225,binci,,,,,5,harmonic,1.5,nw,z,,,,,,,
,,,,2023-11-29_00h56.08.982,VH_v3,2023.2.3,MacIntel,58.82352941,,,,,,,,,,,,537.599,538.597,,,,,,,,,,,,,,,,,,,,,,,,,,538.598,539.181,z,1,0.561,,539.181,539.181,,0,243,243,317,1,318,zila,,,,,4,notharmonic,1.65,nw,z,,,,,,,
,,,,2023-11-29_00h56.08.982,VH_v3,2023.2.3,MacIntel,58.82352941,,,,,,,,,,,,539.182,540.18,,,,,,,,,,,,,,,,,,,,,,,,,,540.18,540.748,z,1,0.546,,540.748,540.748,,0,244,244,185,1,186,bebin,,,,,5,harmonic,1.7,nw,z,,,,,,,
,,,,2023-11-29_00h56.08.982,VH_v3,2023.2.3,MacIntel,58.82352941,,,,,,,,,,,,540.749,541.748,,,,,,,,,,,,,,,,,,,,,,,,,,541.748,542.398,m,1,0.629,,542.398,542.398,,0,245,245,6,1,7,hayal,4498,204.3713,4079,0.4459,5,harmonic,1.45,word,m,,,,,,,
,,,,2023-11-29_00h56.08.982,VH_v3,2023.2.3,MacIntel,58.82352941,,,,,,,,,,,,542.399,543.398,,,,,,,,,,,,,,,,,,,,,,,,,,543.398,544.047,z,1,0.629,,544.048,544.048,,0,246,246,323,1,324,itkea,,,,,5,notharmonic,2.35,nw,z,,,,,,,
,,,,2023-11-29_00h56.08.982,VH_v3,2023.2.3,MacIntel,58.82352941,,,,,,,,,,,,544.049,545.048,,,,,,,,,,,,,,,,,,,,,,,,,,545.048,545.664,z,1,0.596,,545.664,545.664,,0,247,247,275,1,276,makis,,,,,5,notharmonic,1.8,nw,z,,,,,,,
,,,,2023-11-29_00h56.08.982,VH_v3,2023.2.3,MacIntel,58.82352941,,,,,,,,,,,,545.666,546.664,,,,,,,,,,,,,,,,,,,,,,,,,,546.664,547.398,m,1,0.715,,547.398,547.398,,0,248,248,22,1,23,anlam,1730,78.6043,1617,0.1768,5,harmonic,1.25,word,m,,,,,,,
,,,,2023-11-29_00h56.08.982,VH_v3,2023.2.3,MacIntel,58.82352941,,,,,,,,,,,,547.399,548.398,,,,,,,,,,,,,,,,,,,,,,,,,,548.398,548.93,m,1,0.512,,548.93,548.93,,0,249,249,36,1,37,meslek,1082,49.1618,976,0.1067,6,harmonic,1.9,word,m,,,,,,,
,,,,2023-11-29_00h56.08.982,VH_v3,2023.2.3,MacIntel,58.82352941,,,,,,,,,,,,548.931,549.93,,,,,,,,,,,,,,,,,,,,,,,,,,549.93,550.463,m,1,0.513,,550.464,550.464,,0,250,250,68,1,69,ücret,734,33.35,634,0.0693,5,harmonic,1.85,word,m,,,,,,,
,,,,2023-11-29_00h56.08.982,VH_v3,2023.2.3,MacIntel,58.82352941,,,,,,,,,,,,550.465,551.464,,,,,,,,,,,,,,,,,,,,,,,,,,551.464,551.997,m,1,0.517,,551.998,551.998,,0,251,251,167,1,168,yoğurt,1484,67.4271,1359,0.1486,6,harmonic,,word,m,,,,,,,
,,,,2023-11-29_00h56.08.982,VH_v3,2023.2.3,MacIntel,58.82352941,,,,,,,,,,,,551.999,552.998,,,,,,,,,,,,,,,,,,,,,,,,,,552.998,553.548,z,1,0.534,,553.548,553.548,,0,252,252,340,1,341,zizon,,,,,5,notharmonic,1.85,nw,z,,,,,,,
,,,,2023-11-29_00h56.08.982,VH_v3,2023.2.3,MacIntel,58.82352941,,,,,,,,,,,,553.549,554.548,,,,,,,,,,,,,,,,,,,,,,,,,,554.548,555.114,z,1,0.552,,555.114,555.114,,0,253,253,208,1,209,guzır,,,,,5,harmonic,2.05,nw,z,,,,,,,
,,,,2023-11-29_00h56.08.982,VH_v3,2023.2.3,MacIntel,58.82352941,,,,,,,,,,,,555.115,556.114,,,,,,,,,,,,,,,,,,,,,,,,,,556.114,556.731,z,1,0.599,,556.731,556.732,,0,254,254,336,1,337,zanit,,,,,5,notharmonic,1.85,nw,z,,,,,,,
,,,,2023-11-29_00h56.08.982,VH_v3,2023.2.3,MacIntel,58.82352941,,,,,,,,,,,,556.732,557.731,,,,,,,,,,,,,,,,,,,,,,,,,,557.731,558.381,z,1,0.627,,558.381,558.381,,0,255,255,298,1,299,memzur,,,,,6,notharmonic,1.95,nw,z,,,,,,,
,,,,2023-11-29_00h56.08.982,VH_v3,2023.2.3,MacIntel,58.82352941,,,,,,,,,,,,558.382,559.381,,,,,,,,,,,,,,,,,,,,,,,,,,559.381,559.964,z,1,0.565,,559.964,559.965,,0,256,256,293,1,294,mosil,,,,,5,notharmonic,1.85,nw,z,,,,,,,
,,,,2023-11-29_00h56.08.982,VH_v3,2023.2.3,MacIntel,58.82352941,,,,,,,,,,,,559.966,560.964,,,,,,,,,,,,,,,,,,,,,,,,,,560.965,561.631,m,1,0.645,,561.631,561.632,,0,257,257,79,1,80,durum,6783,308.1926,6431,0.703,5,harmonic,1.7,word,m,,,,,,,
,,,,2023-11-29_00h56.08.982,VH_v3,2023.2.3,MacIntel,58.82352941,,,,,,,,,,,,561.633,562.631,,,,,,,,,,,,,,,,,,,,,,,,,,562.631,563.648,z,1,0.996,,563.648,563.648,,0,258,258,288,1,289,talif,,,,,5,notharmonic,1.5,nw,z,,,,,,,
,,,,2023-11-29_00h56.08.982,VH_v3,2023.2.3,MacIntel,58.82352941,,,,,,,,,,,,563.649,564.648,,,,,,,,,,,,,,,,,,,,,,,,,,564.648,565.331,m,1,0.662,,565.331,565.332,,0,259,259,25,1,26,rapor,703,31.9415,617,0.0675,5,harmonic,1.8,word,m,,,,,,,
,,,,2023-11-29_00h56.08.982,VH_v3,2023.2.3,MacIntel,58.82352941,,,,,,,,,,,,565.333,566.331,,,,,,,,,,,,,,,,,,,,,,,,,,566.331,566.814,m,1,0.468,,566.814,566.815,,0,260,260,54,1,55,yedek,825,37.4847,732,0.08,5,harmonic,1.65,word,m,,,,,,,
,,,,2023-11-29_00h56.08.982,VH_v3,2023.2.3,MacIntel,58.82352941,,,,,,,,,,,,566.816,567.814,,,,,,,,,,,,,,,,,,,,,,,,,,567.815,568.531,z,1,0.694,,568.531,568.531,,0,261,261,254,1,255,ileşçe,,,,,6,harmonic,2.65,nw,z,,,,,,,
,,,,2023-11-29_00h56.08.982,VH_v3,2023.2.3,MacIntel,58.82352941,,,,,,,,,,,,568.532,569.531,,,,,,,,,,,,,,,,,,,,,,,,,,569.531,570.115,z,1,0.568,,570.115,570.115,,0,262,262,220,1,221,lingin,,,,,6,harmonic,1.85,nw,z,,,,,,,
,,,,2023-11-29_00h56.08.982,VH_v3,2023.2.3,MacIntel,58.82352941,,,,,,,,,,,,570.116,571.115,,,,,,,,,,,,,,,,,,,,,,,,,,571.115,571.665,m,1,0.53,,571.665,571.665,,0,263,263,0,1,1,sanat,3121,141.8059,2485,0.2717,5,harmonic,1.4,word,m,,,,,,,
,,,,2023-11-29_00h56.08.982,VH_v3,2023.2.3,MacIntel,58.82352941,,,,,,,,,,,,571.666,572.665,,,,,,,,,,,,,,,,,,,,,,,,,,572.665,573.181,m,1,0.496,,573.181,573.181,,0,264,264,172,1,173,halka,1196,54.3415,1014,0.1109,6,harmonic,,word,m,,,,,,,
,,,,2023-11-29_00h56.08.982,VH_v3,2023.2.3,MacIntel,58.82352941,,,,,,,,,,,,573.182,574.181,,,,,,,,,,,,,,,,,,,,,,,,,,574.182,574.631,m,1,0.428,,574.631,574.632,,0,265,265,126,1,127,ciddi,4147,188.4232,3686,0.403,5,harmonic,,word,m,,,,,,,
,,,,2023-11-29_00h56.08.982,VH_v3,2023.2.3,MacIntel,58.82352941,,,,,,,,,,,,574.633,575.631,,,,,,,,,,,,,,,,,,,,,,,,,,575.631,576.081,m,1,0.429,,576.081,576.082,,0,266,266,60,1,61,doğu,2105,95.6429,1823,0.1993,4,harmonic,1.05,word,m,,,,,,,
,,,,2023-11-29_00h56.08.982,VH_v3,2023.2.3,MacIntel,58.82352941,,,,,,,,,,,,576.083,577.081,,,,,,,,,,,,,,,,,,,,,,,,,,577.081,577.781,z,1,0.682,,577.781,577.782,,0,267,267,238,1,239,bodu,,,,,4,harmonic,1.85,nw,z,,,,,,,
,,,,2023-11-29_00h56.08.982,VH_v3,2023.2.3,MacIntel,58.82352941,,,,,,,,,,,,577.782,578.781,,,,,,,,,,,,,,,,,,,,,,,,,,578.781,579.381,z,1,0.58,,579.382,579.382,,0,268,268,250,1,251,çonsa,,,,,5,harmonic,1.9,nw,z,,,,,,,
,,,,2023-11-29_00h56.08.982,VH_v3,2023.2.3,MacIntel,58.82352941,,,,,,,,,,,,579.383,580.382,,,,,,,,,,,,,,,,,,,,,,,,,,580.382,580.997,m,1,0.595,,580.997,580.998,,0,269,269,14,1,15,yaşam,4348,197.5559,3918,0.4283,5,harmonic,1.4,word,m,,,,,,,
,,,,2023-11-29_00h56.08.982,VH_v3,2023.2.3,MacIntel,58.82352941,,,,,,,,,,,,580.999,581.998,,,,,,,,,,,,,,,,,,,,,,,,,,581.998,582.431,m,1,0.412,,582.431,582.431,,0,270,270,15,1,16,hayat,7922,359.9443,7314,0.7996,5,harmonic,1.9,word,m,,,,,,,
,,,,2023-11-29_00h56.08.982,VH_v3,2023.2.3,MacIntel,58.82352941,,,,,,,,,,,,582.432,583.431,,,,,,,,,,,,,,,,,,,,,,,,,,583.432,584.165,z,1,0.711,,584.165,584.165,,0,271,271,279,1,280,ikaza,,,,,5,notharmonic,1.9,nw,z,,,,,,,
,,,,2023-11-29_00h56.08.982,VH_v3,2023.2.3,MacIntel,58.82352941,,,,,,,,,,,,584.166,585.165,,,,,,,,,,,,,,,,,,,,,,,,,,585.165,585.765,m,1,0.578,,585.765,585.765,,0,272,272,106,1,107,sağlık,8866,402.8359,8289,0.9062,5,harmonic,,word,m,,,,,,,
,,,,2023-11-29_00h56.08.982,VH_v3,2023.2.3,MacIntel,58.82352941,,,,,,,,,,,,585.766,586.765,,,,,,,,,,,,,,,,,,,,,,,,,,586.765,587.632,z,1,0.845,,587.632,587.632,,0,273,273,310,1,311,moderp,,,,,6,notharmonic,,nw,z,,,,,,,
,,,,2023-11-29_00h56.08.982,VH_v3,2023.2.3,MacIntel,58.82352941,,,,,,,,,,,,587.633,588.632,,,,,,,,,,,,,,,,,,,,,,,,,,588.632,589.114,m,1,0.466,,589.115,589.115,,0,274,274,101,1,102,kabul,10003,454.4967,9014,0.9854,5,harmonic,,word,m,,,,,,,
,,,,2023-11-29_00h56.08.982,VH_v3,2023.2.3,MacIntel,58.82352941,,,,,,,,,,,,589.116,590.115,,,,,,,,,,,,,,,,,,,,,,,,,,590.115,590.615,m,1,0.477,,590.615,590.615,,0,275,275,40,1,41,tepki,1695,77.0141,1578,0.1725,5,harmonic,1.55,word,m,,,,,,,
,,,,2023-11-29_00h56.08.982,VH_v3,2023.2.3,MacIntel,58.82352941,,,,,,,,,,,,590.616,591.615,,,,,,,,,,,,,,,,,,,,,,,,,,591.615,592.398,z,1,0.763,,592.398,592.399,,0,276,276,267,1,268,eşti,,,,,4,harmonic,1.85,nw,z,,,,,,,
,,,,2023-11-29_00h56.08.982,VH_v3,2023.2.3,MacIntel,58.82352941,,,,,,,,,,,,592.4,593.398,,,,,,,,,,,,,,,,,,,,,,,,,,593.399,594.082,m,1,0.662,,594.082,594.082,,0,277,277,171,1,172,şirket,1227,55.75,1022,0.1117,6,harmonic,,word,m,,,,,,,
,,,,2023-11-29_00h56.08.982,VH_v3,2023.2.3,MacIntel,58.82352941,,,,,,,,,,,,594.083,595.082,,,,,,,,,,,,,,,,,,,,,,,,,,595.082,595.615,m,1,0.513,,595.615,595.615,,0,278,278,21,1,22,duygu,1877,85.2834,1760,0.1924,5,harmonic,1.8,word,m,,,,,,,
,,,,2023-11-29_00h56.08.982,VH_v3,2023.2.3,MacIntel,58.82352941,,,,,,,,,,,,595.616,596.615,,,,,,,,,,,,,,,,,,,,,,,,,,596.615,597.132,m,1,0.5,,597.132,597.132,,0,279,279,89,1,90,etki,1234,56.0681,1169,0.1278,4,harmonic,1.4,word,m,,,,,,,
,,,,2023-11-29_00h56.08.982,VH_v3,2023.2.3,MacIntel,58.82352941,,,,,,,,,,,,597.133,598.132,,,,,,,,,,,,,,,,,,,,,,,,,,598.132,598.648,z,1,0.494,,598.648,598.649,,0,280,280,253,1,254,notan,,,,,5,harmonic,1.85,nw,z,,,,,,,
,,,,2023-11-29_00h56.08.982,VH_v3,2023.2.3,MacIntel,58.82352941,,,,,,,,,,,,598.65,599.648,,,,,,,,,,,,,,,,,,,,,,,,,,599.649,600.181,z,1,0.512,,600.181,600.181,,0,281,281,315,1,316,çarki,,,,,5,notharmonic,1.85,nw,z,,,,,,,
,,,,2023-11-29_00h56.08.982,VH_v3,2023.2.3,MacIntel,58.82352941,,,,,,,,,,,,600.182,601.182,,,,,,,,,,,,,,,,,,,,,,,,,,601.182,601.765,m,1,0.562,,601.765,601.765,,0,282,282,61,1,62,yıldız,1775,80.649,1532,0.1675,6,harmonic,1.6,word,m,,,,,,,
,,,,2023-11-29_00h56.08.982,VH_v3,2023.2.3,MacIntel,58.82352941,,,,,,,,,,,,601.766,602.765,,,,,,,,,,,,,,,,,,,,,,,,,,602.765,603.264,m,1,0.478,,603.264,603.265,,0,283,283,87,1,88,mümkün,6604,300.0596,6264,0.6848,6,harmonic,1.9,word,m,,,,,,,
,,,,2023-11-29_00h56.08.982,VH_v3,2023.2.3,MacIntel,58.82352941,,,,,,,,,,,,603.266,604.265,,,,,,,,,,,,,,,,,,,,,,,,,,604.265,604.898,z,1,0.613,,604.899,604.899,,0,284,284,277,1,278,melbut,,,,,6,notharmonic,1.95,nw,z,,,,,,,
,,,,2023-11-29_00h56.08.982,VH_v3,2023.2.3,MacIntel,58.82352941,,,,,,,,,,,,604.9,605.899,,,,,,,,,,,,,,,,,,,,,,,,,,605.899,606.532,z,1,0.619,,606.532,606.532,,0,285,285,330,1,331,tevaze,,,,,6,notharmonic,2.05,nw,z,,,,,,,
,,,,2023-11-29_00h56.08.982,VH_v3,2023.2.3,MacIntel,58.82352941,,,,,,,,,,,,606.533,607.532,,,,,,,,,,,,,,,,,,,,,,,,,,607.532,607.999,z,1,0.444,,607.999,607.999,,0,286,286,204,1,205,cabor,,,,,5,harmonic,2.1,nw,z,,,,,,,
,,,,2023-11-29_00h56.08.982,VH_v3,2023.2.3,MacIntel,58.82352941,,,,,,,,,,,,608,608.999,,,,,,,,,,,,,,,,,,,,,,,,,,608.999,609.499,z,1,0.478,,609.499,609.499,,0,287,287,191,1,192,unot,,,,,4,harmonic,1.85,nw,z,,,,,,,
,,,,2023-11-29_00h56.08.982,VH_v3,2023.2.3,MacIntel,58.82352941,,,,,,,,,,,,609.5,610.499,,,,,,,,,,,,,,,,,,,,,,,,,,610.499,611.065,m,1,0.546,,611.065,611.065,,0,288,288,138,1,139,yazar,3175,144.2594,2877,0.3145,5,harmonic,,word,m,,,,,,,
,,,,2023-11-29_00h56.08.982,VH_v3,2023.2.3,MacIntel,58.82352941,,,,,,,,,,,,611.066,612.065,,,,,,,,,,,,,,,,,,,,,,,,,,612.065,612.682,m,1,0.595,,612.682,612.682,,0,289,289,67,1,68,bayram,1948,88.5094,1648,0.1802,6,harmonic,1.85,word,m,,,,,,,
,,,,2023-11-29_00h56.08.982,VH_v3,2023.2.3,MacIntel,58.82352941,,,,,,,,,,,,612.683,613.682,,,,,,,,,,,,,,,,,,,,,,,,,,613.682,614.132,m,1,0.429,,614.132,614.132,,0,290,290,83,1,84,küçük,14048,638.2854,12467,1.3629,5,harmonic,1.75,word,m,,,,,,,
,,,,2023-11-29_00h56.08.982,VH_v3,2023.2.3,MacIntel,58.82352941,,,,,,,,,,,,614.133,615.132,,,,,,,,,,,,,,,,,,,,,,,,,,615.132,615.699,z,1,0.546,,615.699,615.699,,0,291,291,356,1,357,ated,,,,,4,notharmonic,,nw,z,,,,,,,
,,,,2023-11-29_00h56.08.982,VH_v3,2023.2.3,MacIntel,58.82352941,,,,,,,,,,,,615.7,616.699,,,,,,,,,,,,,,,,,,,,,,,,,,616.699,617.249,z,1,0.529,,617.249,617.249,,0,292,292,201,1,202,azlaş,,,,,5,harmonic,1.8,nw,z,,,,,,,
,,,,2023-11-29_00h56.08.982,VH_v3,2023.2.3,MacIntel,58.82352941,,,,,,,,,,,,617.25,618.249,,,,,,,,,,,,,,,,,,,,,,,,,,618.249,618.799,z,1,0.529,,618.799,618.799,,0,293,293,316,1,317,karkiş,,,,,6,notharmonic,2,nw,z,,,,,,,
,,,,2023-11-29_00h56.08.982,VH_v3,2023.2.3,MacIntel,58.82352941,,,,,,,,,,,,618.8,619.799,,,,,,,,,,,,,,,,,,,,,,,,,,619.799,620.482,m,1,0.667,,620.482,620.482,,0,294,294,81,1,82,üretim,1593,72.3796,1283,0.1403,6,harmonic,1.6,word,m,,,,,,,
,,,,2023-11-29_00h56.08.982,VH_v3,2023.2.3,MacIntel,58.82352941,,,,,,,,,,,,620.483,621.482,,,,,,,,,,,,,,,,,,,,,,,,,,621.482,621.932,m,1,0.428,,621.932,621.932,,0,295,295,86,1,87,gerçek,8983,408.1519,8058,0.8809,6,harmonic,1.7,word,m,,,,,,,
,,,,2023-11-29_00h56.08.982,VH_v3,2023.2.3,MacIntel,58.82352941,,,,,,,,,,,,621.933,622.932,,,,,,,,,,,,,,,,,,,,,,,,,,622.932,623.499,m,1,0.546,,623.499,623.499,,0,296,296,58,1,59,ayak,2143,97.3694,1931,0.2111,4,harmonic,1,word,m,,,,,,,
,,,,2023-11-29_00h56.08.982,VH_v3,2023.2.3,MacIntel,58.82352941,,,,,,,,,,,,623.5,624.499,,,,,,,,,,,,,,,,,,,,,,,,,,624.499,625.049,z,1,0.529,,625.049,625.049,,0,297,297,285,1,286,safiç,,,,,5,notharmonic,1.9,nw,z,,,,,,,
,,,,2023-11-29_00h56.08.982,VH_v3,2023.2.3,MacIntel,58.82352941,,,,,,,,,,,,625.05,626.049,,,,,,,,,,,,,,,,,,,,,,,,,,626.049,626.632,m,1,0.565,,626.632,626.632,,0,298,298,120,1,121,doğal,4821,219.0471,4328,0.4731,5,harmonic,,word,m,,,,,,,
,,,,2023-11-29_00h56.08.982,VH_v3,2023.2.3,MacIntel,58.82352941,,,,,,,,,,,,626.633,627.632,,,,,,,,,,,,,,,,,,,,,,,,,,627.632,628.265,z,1,0.62,,628.265,628.265,,0,299,299,332,1,333,makik,,,,,5,notharmonic,1.6,nw,z,,,,,,,
,,,,2023-11-29_00h56.08.982,VH_v3,2023.2.3,MacIntel,58.82352941,,,,,,,,,,,,628.266,629.264,,,,,,,,,,,,,,,,,,,,,,,,,,629.265,629.815,z,1,0.53,,629.815,629.816,,0,300,300,193,1,194,şıkta,,,,,5,harmonic,2,nw,z,,,,,,,
,,,,2023-11-29_00h56.08.982,VH_v3,2023.2.3,MacIntel,58.82352941,,,,,,,,,,,,629.817,630.815,,,,,,,,,,,,,,,,,,,,,,,,,,630.815,631.365,z,1,0.529,,631.365,631.366,,0,301,301,345,1,346,kiru,,,,,4,notharmonic,1.8,nw,z,,,,,,,
,,,,2023-11-29_00h56.08.982,VH_v3,2023.2.3,MacIntel,58.82352941,,,,,,,,,,,,631.367,632.365,,,,,,,,,,,,,,,,,,,,,,,,,,632.366,632.999,z,1,0.611,,632.999,632.999,,0,302,302,213,1,214,yofa,,,,,4,harmonic,1.75,nw,z,,,,,,,
,,,,2023-11-29_00h56.08.982,VH_v3,2023.2.3,MacIntel,58.82352941,,,,,,,,,,,,633,633.999,,,,,,,,,,,,,,,,,,,,,,,,,,633.999,634.615,z,1,0.602,,634.616,634.616,,0,303,303,354,1,355,dizdat,,,,,6,notharmonic,2.4,nw,z,,,,,,,
,,,,2023-11-29_00h56.08.982,VH_v3,2023.2.3,MacIntel,58.82352941,,,,,,,,,,,,634.617,635.615,,,,,,,,,,,,,,,,,,,,,,,,,,635.616,636.166,m,1,0.53,,636.166,636.166,,0,304,304,159,1,160,derece,4766,216.5481,4462,0.4878,6,harmonic,,word,m,,,,,,,
,,,,2023-11-29_00h56.08.982,VH_v3,2023.2.3,MacIntel,58.82352941,,,,,,,,,,,,636.167,637.166,,,,,,,,,,,,,,,,,,,,,,,,,,637.166,637.765,z,1,0.578,,637.766,637.766,,0,305,305,301,1,302,meyav,,,,,5,notharmonic,1.85,nw,z,,,,,,,
,,,,2023-11-29_00h56.08.982,VH_v3,2023.2.3,MacIntel,58.82352941,,,,,,,,,,,,637.767,638.765,,,,,,,,,,,,,,,,,,,,,,,,,,638.766,639.365,m,1,0.578,,639.365,639.365,,0,306,306,152,1,153,sene,6752,306.7841,5843,0.6388,4,harmonic,,word,m,,,,,,,
,,,,2023-11-29_00h56.08.982,VH_v3,2023.2.3,MacIntel,58.82352941,,,,,,,,,,,,639.366,640.366,,,,,,,,,,,,,,,,,,,,,,,,,,640.366,640.866,m,1,0.478,,640.866,640.866,,0,307,307,19,1,20,ödül,1063,48.2985,926,0.1012,4,harmonic,1.7,word,m,,,,,,,
,,,,2023-11-29_00h56.08.982,VH_v3,2023.2.3,MacIntel,58.82352941,,,,,,,,,,,,640.867,641.865,,,,,,,,,,,,,,,,,,,,,,,,,,641.865,642.616,z,1,0.731,,642.616,642.616,,0,308,308,186,1,187,yadal,,,,,5,harmonic,1.85,nw,z,,,,,,,
,,,,2023-11-29_00h56.08.982,VH_v3,2023.2.3,MacIntel,58.82352941,,,,,,,,,,,,642.617,643.616,,,,,,,,,,,,,,,,,,,,,,,,,,643.616,644.249,m,1,0.611,,644.249,644.249,,0,309,309,109,1,110,dalga,1307,59.3849,1117,0.1221,5,harmonic,,word,m,,,,,,,
,,,,2023-11-29_00h56.08.982,VH_v3,2023.2.3,MacIntel,58.82352941,,,,,,,,,,,,644.25,645.249,,,,,,,,,,,,,,,,,,,,,,,,,,645.249,645.915,z,1,0.645,,645.915,645.915,,0,310,310,229,1,230,ilgent,,,,,6,harmonic,2.7,nw,z,,,,,,,
,,,,2023-11-29_00h56.08.982,VH_v3,2023.2.3,MacIntel,58.82352941,,,,,,,,,,,,645.916,646.916,,,,,,,,,,,,,,,,,,,,,,,,,,646.916,647.549,z,1,0.611,,647.549,647.549,,0,311,311,326,1,327,melaş,,,,,5,notharmonic,1.8,nw,z,,,,,,,
,,,,2023-11-29_00h56.08.982,VH_v3,2023.2.3,MacIntel,58.82352941,,,,,,,,,,,,647.55,648.549,,,,,,,,,,,,,,,,,,,,,,,,,,648.549,649.132,z,1,0.562,,649.132,649.133,,0,312,312,247,1,248,fonta,,,,,5,harmonic,1.75,nw,z,,,,,,,
,,,,2023-11-29_00h56.08.982,VH_v3,2023.2.3,MacIntel,58.82352941,,,,,,,,,,,,649.134,650.132,,,,,,,,,,,,,,,,,,,,,,,,,,650.132,650.616,m,1,0.462,,650.616,650.616,,0,313,313,94,1,95,bütün,18630,846.4733,16711,1.8269,5,harmonic,,word,m,,,,,,,
,,,,2023-11-29_00h56.08.982,VH_v3,2023.2.3,MacIntel,58.82352941,,,,,,,,,,,,650.617,651.616,,,,,,,,,,,,,,,,,,,,,,,,,,651.616,652.149,m,1,0.513,,652.149,652.15,,0,314,314,127,1,128,müzik,3999,181.6987,3340,0.3651,5,harmonic,,word,m,,,,,,,
,,,,2023-11-29_00h56.08.982,VH_v3,2023.2.3,MacIntel,58.82352941,,,,,,,,,,,,652.151,653.149,,,,,,,,,,,,,,,,,,,,,,,,,,653.149,653.765,z,1,0.595,,653.765,653.765,,0,315,315,228,1,229,nekir,,,,,5,harmonic,1.65,nw,z,,,,,,,
,,,,2023-11-29_00h56.08.982,VH_v3,2023.2.3,MacIntel,58.82352941,,,,,,,,,,,,653.766,654.766,,,,,,,,,,,,,,,,,,,,,,,,,,654.766,655.466,m,1,0.678,,655.466,655.466,,0,316,316,10,1,11,bardak,1728,78.5135,1569,0.1715,6,harmonic,1.6,word,m,,,,,,,
,,,,2023-11-29_00h56.08.982,VH_v3,2023.2.3,MacIntel,58.82352941,,,,,,,,,,,,655.467,656.466,,,,,,,,,,,,,,,,,,,,,,,,,,656.466,657.232,z,1,0.749,,657.232,657.233,,0,317,317,291,1,292,kasge,,,,,5,notharmonic,2,nw,z,,,,,,,
,,,,2023-11-29_00h56.08.982,VH_v3,2023.2.3,MacIntel,58.82352941,,,,,,,,,,,,657.233,658.232,,,,,,,,,,,,,,,,,,,,,,,,,,658.233,658.832,m,1,0.585,,658.832,658.833,,0,318,318,56,1,57,sağlam,1818,82.6027,1720,0.188,6,harmonic,1.6,word,m,,,,,,,
,,,,2023-11-29_00h56.08.982,VH_v3,2023.2.3,MacIntel,58.82352941,,,,,,,,,,,,658.834,659.832,,,,,,,,,,,,,,,,,,,,,,,,,,659.832,660.366,m,1,0.518,,660.366,660.366,,0,319,319,52,1,53,resim,2506,113.8627,2188,0.2392,5,harmonic,1.4,word,m,,,,,,,
,,,,2023-11-29_00h56.08.982,VH_v3,2023.2.3,MacIntel,58.82352941,,,,,,,,,,,,660.367,661.366,,,,,,,,,,,,,,,,,,,,,,,,,,661.366,662.099,z,1,0.712,,662.099,662.099,,0,320,320,306,1,307,napare,,,,,6,notharmonic,2.15,nw,z,,,,,,,
,,,,2023-11-29_00h56.08.982,VH_v3,2023.2.3,MacIntel,58.82352941,,,,,,,,,,,,662.1,663.099,,,,,,,,,,,,,,,,,,,,,,,,,,663.099,663.766,z,1,0.646,,663.766,663.766,,0,321,321,349,1,350,mane,,,,,4,notharmonic,1.45,nw,z,,,,,,,
,,,,2023-11-29_00h56.08.982,VH_v3,2023.2.3,MacIntel,58.82352941,,,,,,,,,,,,663.767,664.766,,,,,,,,,,,,,,,,,,,,,,,,,,664.766,665.466,z,1,0.679,,665.466,665.466,,0,322,322,241,1,242,sılman,,,,,6,harmonic,2,nw,z,,,,,,,
,,,,2023-11-29_00h56.08.982,VH_v3,2023.2.3,MacIntel,58.82352941,,,,,,,,,,,,665.467,666.466,,,,,,,,,,,,,,,,,,,,,,,,,,666.466,667.149,z,1,0.662,,667.149,667.15,,0,323,323,217,1,218,dötim,,,,,5,harmonic,2,nw,z,,,,,,,
,,,,2023-11-29_00h56.08.982,VH_v3,2023.2.3,MacIntel,58.82352941,,,,,,,,,,,,667.15,668.149,,,,,,,,,,,,,,,,,,,,,,,,,,668.149,668.766,m,1,0.599,,668.766,668.766,,0,324,324,149,1,150,ince,4045,183.7888,3429,0.3749,4,harmonic,,word,m,,,,,,,
,,,,2023-11-29_00h56.08.982,VH_v3,2023.2.3,MacIntel,58.82352941,,,,,,,,,,,,668.767,669.766,,,,,,,,,,,,,,,,,,,,,,,,,,669.766,670.466,z,1,0.685,,670.466,670.466,,0,325,325,218,1,219,yaltın,,,,,6,harmonic,1.8,nw,z,,,,,,,
,,,,2023-11-29_00h56.08.982,VH_v3,2023.2.3,MacIntel,58.82352941,,,,,,,,,,,,670.467,671.465,,,,,,,,,,,,,,,,,,,,,,,,,,671.465,671.849,z,1,0.364,,671.849,671.849,,0,326,326,203,1,204,yırdun,,,,,6,harmonic,2.8,nw,z,,,,,,,
,,,,2023-11-29_00h56.08.982,VH_v3,2023.2.3,MacIntel,58.82352941,,,,,,,,,,,,671.85,672.849,,,,,,,,,,,,,,,,,,,,,,,,,,672.849,673.416,m,1,0.55,,673.416,673.416,,0,327,327,110,1,111,beden,1333,60.5662,1119,0.1223,5,harmonic,,word,m,,,,,,,
,,,,2023-11-29_00h56.08.982,VH_v3,2023.2.3,MacIntel,58.82352941,,,,,,,,,,,,673.417,674.416,,,,,,,,,,,,,,,,,,,,,,,,,,674.416,674.949,m,1,0.513,,674.949,674.95,,0,328,328,119,1,120,rahat,4833,219.5924,4316,0.4718,5,harmonic,,word,m,,,,,,,
,,,,2023-11-29_00h56.08.982,VH_v3,2023.2.3,MacIntel,58.82352941,,,,,,,,,,,,674.951,675.949,,,,,,,,,,,,,,,,,,,,,,,,,,675.949,676.532,z,1,0.56,,676.532,676.532,,0,329,329,307,1,308,masil,,,,,5,notharmonic,1.65,nw,z,,,,,,,
,,,,2023-11-29_00h56.08.982,VH_v3,2023.2.3,MacIntel,58.82352941,,,,,,,,,,,,676.533,677.533,,,,,,,,,,,,,,,,,,,,,,,,,,677.533,678.083,z,1,0.528,,678.083,678.083,,0,330,330,312,1,313,izmal,,,,,5,notharmonic,1.8,nw,z,,,,,,,
,,,,2023-11-29_00h56.08.982,VH_v3,2023.2.3,MacIntel,58.82352941,,,,,,,,,,,,678.084,679.083,,,,,,,,,,,,,,,,,,,,,,,,,,679.083,679.666,z,1,0.561,,679.666,679.666,,0,331,331,262,1,263,ürze,,,,,4,harmonic,1.95,nw,z,,,,,,,
,,,,2023-11-29_00h56.08.982,VH_v3,2023.2.3,MacIntel,58.82352941,,,,,,,,,,,,679.667,680.666,,,,,,,,,,,,,,,,,,,,,,,,,,680.666,681.216,m,1,0.536,,681.216,681.216,,0,332,332,97,1,98,kadın,10751,488.4828,8665,0.9473,5,harmonic,,word,m,,,,,,,
,,,,2023-11-29_00h56.08.982,VH_v3,2023.2.3,MacIntel,58.82352941,,,,,,,,,,,,681.217,682.216,,,,,,,,,,,,,,,,,,,,,,,,,,682.216,682.799,z,1,0.561,,682.8,682.8,,0,333,333,199,1,200,repes,,,,,5,harmonic,2,nw,z,,,,,,,
,,,,2023-11-29_00h56.08.982,VH_v3,2023.2.3,MacIntel,58.82352941,,,,,,,,,,,,682.801,683.799,,,,,,,,,,,,,,,,,,,,,,,,,,683.8,684.366,m,1,0.545,,684.366,684.366,,0,334,334,70,1,71,yarın,3440,156.3,3222,0.3522,5,harmonic,1.85,word,m,,,,,,,
,,,,2023-11-29_00h56.08.982,VH_v3,2023.2.3,MacIntel,58.82352941,,,,,,,,,,,,684.368,685.366,,,,,,,,,,,,,,,,,,,,,,,,,,685.366,685.949,m,1,0.565,,685.949,685.949,,0,335,335,155,1,156,devlet,5766,261.9842,4854,0.5306,6,harmonic,,word,m,,,,,,,
,,,,2023-11-29_00h56.08.982,VH_v3,2023.2.3,MacIntel,58.82352941,,,,,,,,,,,,685.95,686.949,,,,,,,,,,,,,,,,,,,,,,,,,,686.95,687.466,m,1,0.499,,687.466,687.466,,0,336,336,74,1,75,başarı,1398,63.5196,1300,0.1421,6,harmonic,1.2,word,m,,,,,,,
,,,,2023-11-29_00h56.08.982,VH_v3,2023.2.3,MacIntel,58.82352941,,,,,,,,,,,,687.467,688.466,,,,,,,,,,,,,,,,,,,,,,,,,,688.466,689.149,z,1,0.669,,689.149,689.15,,0,337,337,233,1,234,alıt,,,,,4,harmonic,1.15,nw,z,,,,,,,
,,,,2023-11-29_00h56.08.982,VH_v3,2023.2.3,MacIntel,58.82352941,,,,,,,,,,,,689.15,690.149,,,,,,,,,,,,,,,,,,,,,,,,,,690.15,690.75,z,1,0.578,,690.75,690.75,,0,338,338,343,1,344,tazen,,,,,5,notharmonic,1.8,nw,z,,,,,,,
,,,,2023-11-29_00h56.08.982,VH_v3,2023.2.3,MacIntel,58.82352941,,,,,,,,,,,,690.751,691.749,,,,,,,,,,,,,,,,,,,,,,,,,,691.749,692.465,m,1,0.696,,692.465,692.466,,0,339,339,26,1,27,sebze,1094,49.707,961,0.1051,5,harmonic,1.9,word,m,,,,,,,
,,,,2023-11-29_00h56.08.982,VH_v3,2023.2.3,MacIntel,58.82352941,,,,,,,,,,,,692.467,693.466,,,,,,,,,,,,,,,,,,,,,,,,,,693.466,694.95,z,1,1.468,,694.95,694.95,,0,340,340,350,1,351,bügun,,,,,5,notharmonic,2,nw,z,,,,,,,
,,,,2023-11-29_00h56.08.982,VH_v3,2023.2.3,MacIntel,58.82352941,,,,,,,,,,,,694.951,695.95,,,,,,,,,,,,,,,,,,,,,,,,,,695.95,696.583,m,1,0.613,,696.583,696.583,,0,341,341,147,1,148,dizi,1995,90.6449,1689,0.1846,4,harmonic,,word,m,,,,,,,
,,,,2023-11-29_00h56.08.982,VH_v3,2023.2.3,MacIntel,58.82352941,,,,,,,,,,,,696.584,697.583,,,,,,,,,,,,,,,,,,,,,,,,,,697.583,698.433,z,1,0.832,,698.433,698.433,,0,342,342,348,1,349,minsar,,,,,6,notharmonic,2,nw,z,,,,,,,
,,,,2023-11-29_00h56.08.982,VH_v3,2023.2.3,MacIntel,58.82352941,,,,,,,,,,,,698.434,699.433,,,,,,,,,,,,,,,,,,,,,,,,,,699.433,700,m,1,0.547,,700,700,,0,343,343,55,1,56,akıl,2208,100.3228,2004,0.2191,4,harmonic,1,word,m,,,,,,,
,,,,2023-11-29_00h56.08.982,VH_v3,2023.2.3,MacIntel,58.82352941,,,,,,,,,,,,700.001,701,,,,,,,,,,,,,,,,,,,,,,,,,,701,701.5,m,1,0.484,,701.5,701.5,,0,344,344,76,1,77,ilişki,1675,76.1054,1524,0.1666,6,harmonic,1.8,word,m,,,,,,,
,,,,2023-11-29_00h56.08.982,VH_v3,2023.2.3,MacIntel,58.82352941,,,,,,,,,,,,701.501,702.5,,,,,,,,,,,,,,,,,,,,,,,,,,702.5,703.166,z,1,0.648,,703.166,703.167,,0,345,345,256,1,257,ulosız,,,,,6,harmonic,3,nw,z,,,,,,,
,,,,2023-11-29_00h56.08.982,VH_v3,2023.2.3,MacIntel,58.82352941,,,,,,,,,,,,703.168,704.166,,,,,,,,,,,,,,,,,,,,,,,,,,704.166,704.716,m,1,0.536,,704.716,704.716,,0,346,346,96,1,97,mutlu,11447,520.1063,10279,1.1237,5,harmonic,,word,m,,,,,,,
,,,,2023-11-29_00h56.08.982,VH_v3,2023.2.3,MacIntel,58.82352941,,,,,,,,,,,,704.717,705.716,,,,,,,,,,,,,,,,,,,,,,,,,,705.716,706.233,m,1,0.496,,706.233,706.233,,0,347,347,128,1,129,güçlü,3924,178.291,3614,0.3951,5,harmonic,,word,m,,,,,,,
,,,,2023-11-29_00h56.08.982,VH_v3,2023.2.3,MacIntel,58.82352941,,,,,,,,,,,,706.234,707.233,,,,,,,,,,,,,,,,,,,,,,,,,,707.233,707.75,m,1,0.501,,707.75,707.75,,0,348,348,33,1,34,moda,1381,62.7472,1231,0.1346,4,harmonic,1.55,word,m,,,,,,,
,,,,2023-11-29_00h56.08.982,VH_v3,2023.2.3,MacIntel,58.82352941,,,,,,,,,,,,707.751,708.749,,,,,,,,,,,,,,,,,,,,,,,,,,708.749,709.349,m,1,0.58,,709.349,709.349,,0,349,349,20,1,21,nefes,2871,130.4469,2553,0.2791,5,harmonic,1.8,word,m,,,,,,,
,,,,2023-11-29_00h56.08.982,VH_v3,2023.2.3,MacIntel,58.82352941,,,,,,,,,,,,709.35,710.35,,,,,,,,,,,,,,,,,,,,,,,,,,710.35,711.083,m,1,0.712,,711.083,711.083,,0,350,350,51,1,52,ilginç,2803,127.3572,2690,0.2941,6,harmonic,1.8,word,m,,,,,,,
,,,,2023-11-29_00h56.08.982,VH_v3,2023.2.3,MacIntel,58.82352941,,,,,,,,,,,,711.084,712.083,,,,,,,,,,,,,,,,,,,,,,,,,,712.083,712.7,z,1,0.599,,712.7,712.7,,0,351,351,273,1,274,sisaf,,,,,5,notharmonic,2,nw,z,,,,,,,
,,,,2023-11-29_00h56.08.982,VH_v3,2023.2.3,MacIntel,58.82352941,,,,,,,,,,,,712.701,713.7,,,,,,,,,,,,,,,,,,,,,,,,,,713.7,714.333,z,1,0.616,,714.333,714.333,,0,352,352,216,1,217,halban,,,,,6,harmonic,2,nw,z,,,,,,,
,,,,2023-11-29_00h56.08.982,VH_v3,2023.2.3,MacIntel,58.82352941,,,,,,,,,,,,714.334,715.333,,,,,,,,,,,,,,,,,,,,,,,,,,715.333,715.95,m,1,0.594,,715.95,715.95,,0,353,353,108,1,109,sabah,8179,371.6213,7277,0.7955,5,harmonic,,word,m,,,,,,,
,,,,2023-11-29_00h56.08.982,VH_v3,2023.2.3,MacIntel,58.82352941,,,,,,,,,,,,715.951,716.95,,,,,,,,,,,,,,,,,,,,,,,,,,716.95,717.683,m,1,0.713,,717.683,717.684,,0,354,354,169,1,170,düzgün,1384,62.8835,1310,0.1432,6,harmonic,,word,m,,,,,,,
,,,,2023-11-29_00h56.08.982,VH_v3,2023.2.3,MacIntel,58.82352941,,,,,,,,,,,,717.685,718.683,,,,,,,,,,,,,,,,,,,,,,,,,,718.683,719.283,z,1,0.578,,719.283,719.284,,0,355,355,272,1,273,sakke,,,,,5,notharmonic,1.85,nw,z,,,,,,,
,,,,2023-11-29_00h56.08.982,VH_v3,2023.2.3,MacIntel,58.82352941,,,,,,,,,,,,719.285,720.283,,,,,,,,,,,,,,,,,,,,,,,,,,720.283,720.95,z,1,0.645,,720.95,720.95,,0,356,356,235,1,236,mörüm,,,,,5,harmonic,1.9,nw,z,,,,,,,
,,,,2023-11-29_00h56.08.982,VH_v3,2023.2.3,MacIntel,58.82352941,,,,,,,,,,,,720.951,721.95,,,,,,,,,,,,,,,,,,,,,,,,,,721.95,722.599,z,1,0.629,,722.599,722.599,,0,357,357,202,1,203,kulom,,,,,5,harmonic,2,nw,z,,,,,,,
,,,,2023-11-29_00h56.08.982,VH_v3,2023.2.3,MacIntel,58.82352941,,,,,,,,,,,,722.6,723.6,,,,,,,,,,,,,,,,,,,,,,,,,,723.6,724.383,z,1,0.761,,724.383,724.384,,0,358,358,311,1,312,mase,,,,,4,notharmonic,1.75,nw,z,,,,,,,
,,,,2023-11-29_00h56.08.982,VH_v3,2023.2.3,MacIntel,58.82352941,,,,,,,,,,,,724.385,725.383,,,,,,,,,,,,,,,,,,,,,,,,,,725.383,725.983,m,1,0.581,,725.983,725.984,,0,359,359,47,1,48,kaza,740,33.6227,679,0.0742,4,harmonic,1.85,word,m,,,,,,,
,,,,2023-11-29_00h56.08.982,VH_v3,2023.2.3,MacIntel,58.82352941,,,,,,,,,,,,,,,,,,,,,,,,,,,,,,,,,,,,,,,,,,,,,,,,,,,,,,,,,,,,,,,,,,725.985,727.784,space,1.773,