anket.started,anket.stopped,participant,session,date,expName,psychopyVersion,OS,frameRate,Welcome_screen.started,Welcome_screen.stopped,key_respwelcome.keys,key_respwelcome.rt,key_respwelcome.duration,intro_x.thisRepN,intro_x.thisTrialN,intro_x.thisN,intro_x.thisIndex,intro_x.ran,Introduction,Fixation.started,Fixation.stopped,Studypractice.started,Studypractice.stopped,key_respstudy.keys,key_respstudy.corr,key_respstudy.rt,key_respstudy.duration,rt,corr,Feedback.started,Feedback.stopped,practice_loop.thisRepN,practice_loop.thisTrialN,practice_loop.thisN,practice_loop.thisIndex,practice_loop.ran,item_nr_p,target_p,isHarmonic_p,target_cond_p,CorrAns_p,Instraction.started,Instraction.stopped,key_respınstraction.keys,key_respınstraction.rt,key_respınstraction.duration,TestTrial.started,TestTrial.stopped,key_respTest.keys,key_respTest.corr,key_respTest.rt,key_respTest.duration,Pause.started,Pause.stopped,key_resp_xx.keys,test_loop.thisRepN,test_loop.thisTrialN,test_loop.thisN,test_loop.thisIndex,test_loop.ran,item_nr,target,BlogFreq_A1,BlogFreqpm_A1,BlogCD_A1,BlogCDPc_A1,WordLength_A1,isHarmonic_A1,old20,target_cond,CorrAns,key_resp_xx.rt,key_resp_xx.duration,Goodbye_screen.started,Goodbye_screen.stopped,key_respgoodbye.keys,key_respgoodbye.rt,key_respgoodbye.duration
0.0004,0.0006,,,2023-11-28_21h46.34.378,VH_v3,2023.2.3,Win32,143.9677512,,,,,,,,,,,,,,,,,,,,,,,,,,,,,,,,,,,,,,,,,,,,,,,,,,,,,,,,,,,,,,,,,,,,,,
,,,,2023-11-28_21h46.34.378,VH_v3,2023.2.3,Win32,143.9677512,0.0115,2.1038,space,2.0811,,0,0,0,0,1,"Deneye hoş geldiniz,

Devam etmek için BOŞLUK tuşuna basınız.",,,,,,,,,,,,,,,,,,,,,,,,,,,,,,,,,,,,,,,,,,,,,,,,,,,,,,,,,,,
,,,,2023-11-28_21h46.34.378,VH_v3,2023.2.3,Win32,143.9677512,2.104,11.018,space,8.9061,,0,1,1,1,1,"Bu çalışma Valencia Üniversitesi kapsamında yürütülmektedir. Deneydeki göreviniz, ekrana çıkacak Türkçe sözcüklerin kelime olup olmadığını belirlemenizdir. Eğer sözcük gerçek bir kelime ise ""m"" tuşuna, değil ise ""z"" tuşuna basınız.   

Devam etmek için BOŞLUK tuşuna basınız.",,,,,,,,,,,,,,,,,,,,,,,,,,,,,,,,,,,,,,,,,,,,,,,,,,,,,,,,,,,
,,,,2023-11-28_21h46.34.378,VH_v3,2023.2.3,Win32,143.9677512,11.0233,18.037,space,7.0056,,0,2,2,2,1,"Her sözcük için en fazla iki saniyede cevap vermeniz beklenmektedir. Aksi takdirde deney bir sonraki sözcük ile devam eder. 
Bu çalışmada oldukça hızlı ve doğru cevaplama yapmanız beklenmektedir.

Devam etmek için BOŞLUK tuşuna basınız.",,,,,,,,,,,,,,,,,,,,,,,,,,,,,,,,,,,,,,,,,,,,,,,,,,,,,,,,,,,
,,,,2023-11-28_21h46.34.378,VH_v3,2023.2.3,Win32,143.9677512,18.0418,25.3369,space,7.2856,,0,3,3,3,1,"Çalışmaya başlamadan önce ufak bir pratik yer almaktadır.
Kelimedir: ""m""
Kelime değildir: ""z""

Pratik teste başlamak için BOŞLUK tuşuna basınız. ",,,,,,,,,,,,,,,,,,,,,,,,,,,,,,,,,,,,,,,,,,,,,,,,,,,,,,,,,,,
,,,,2023-11-28_21h46.34.378,VH_v3,2023.2.3,Win32,143.9677512,,,,,,,,,,,,25.3465,26.3398,26.3399,27.6848,z,1,1.3321,,1.3321,1,27.6849,29.1849,0,0,0,15,1,16,geki,harmonic,nw,z,,,,,,,,,,,,,,,,,,,,,,,,,,,,,,,,,,,,,
,,,,2023-11-28_21h46.34.378,VH_v3,2023.2.3,Win32,143.9677512,,,,,,,,,,,,29.1851,30.1851,30.1851,30.4282,z,1,0.2374,,0.2374,1,30.4282,31.9286,0,1,1,13,1,14,orat,harmonic,nw,z,,,,,,,,,,,,,,,,,,,,,,,,,,,,,,,,,,,,,
,,,,2023-11-28_21h46.34.378,VH_v3,2023.2.3,Win32,143.9677512,,,,,,,,,,,,31.9288,32.9285,32.9285,32.9841,z,0,0.0431,,0.0431,0,32.9842,34.4846,0,2,2,8,1,9,bilim,harmonic,word,m,,,,,,,,,,,,,,,,,,,,,,,,,,,,,,,,,,,,,
,,,,2023-11-28_21h46.34.378,VH_v3,2023.2.3,Win32,143.9677512,,,,,,,,,,,,34.4847,35.487,35.487,35.9318,m,1,0.4379,,0.4379,1,35.9318,37.4319,0,3,3,1,1,2,veri,harmonic,word,m,,,,,,,,,,,,,,,,,,,,,,,,,,,,,,,,,,,,,
,,,,2023-11-28_21h46.34.378,VH_v3,2023.2.3,Win32,143.9677512,,,,,,,,,,,,37.4321,38.4273,38.4273,38.849,m,1,0.4146,,0.4146,1,38.849,40.3468,0,4,4,3,1,4,sevgi,harmonic,word,m,,,,,,,,,,,,,,,,,,,,,,,,,,,,,,,,,,,,,
,,,,2023-11-28_21h46.34.378,VH_v3,2023.2.3,Win32,143.9677512,,,,,,,,,,,,40.347,41.3424,41.3424,41.9024,m,1,0.5498,,0.5498,1,41.9025,43.4029,0,5,5,9,1,10,zarar,harmonic,word,m,,,,,,,,,,,,,,,,,,,,,,,,,,,,,,,,,,,,,
,,,,2023-11-28_21h46.34.378,VH_v3,2023.2.3,Win32,143.9677512,,,,,,,,,,,,43.4031,44.4034,44.4034,44.6878,m,1,0.2727,,0.2727,1,44.6878,46.1879,0,6,6,0,1,1,hazır,harmonic,word,m,,,,,,,,,,,,,,,,,,,,,,,,,,,,,,,,,,,,,
,,,,2023-11-28_21h46.34.378,VH_v3,2023.2.3,Win32,143.9677512,,,,,,,,,,,,46.1881,47.1882,47.1883,47.4252,m,0,0.2295,,0.2295,0,47.4252,48.9246,0,7,7,21,1,22,güçli,harmonic,nw,z,,,,,,,,,,,,,,,,,,,,,,,,,,,,,,,,,,,,,
,,,,2023-11-28_21h46.34.378,VH_v3,2023.2.3,Win32,143.9677512,,,,,,,,,,,,48.9249,49.9248,49.9249,50.4526,m,1,0.519,,0.519,1,50.4526,51.953,0,8,8,4,1,5,soğuk,harmonic,word,m,,,,,,,,,,,,,,,,,,,,,,,,,,,,,,,,,,,,,
,,,,2023-11-28_21h46.34.378,VH_v3,2023.2.3,Win32,143.9677512,,,,,,,,,,,,51.9532,52.9575,52.9575,53.3725,m,1,0.4077,,0.4077,1,53.3725,54.8701,0,9,9,10,1,11,nefret,harmonic,word,m,,,,,,,,,,,,,,,,,,,,,,,,,,,,,,,,,,,,,
,,,,2023-11-28_21h46.34.378,VH_v3,2023.2.3,Win32,143.9677512,,,,,,,,,,,,54.8704,55.8731,55.8731,56.169,m,1,0.2847,,0.2847,1,56.1691,57.6694,0,10,10,11,1,12,teslim,harmonic,word,m,,,,,,,,,,,,,,,,,,,,,,,,,,,,,,,,,,,,,
,,,,2023-11-28_21h46.34.378,VH_v3,2023.2.3,Win32,143.9677512,,,,,,,,,,,,57.6696,58.6649,58.6649,58.9959,m,0,0.3233,,0.3233,0,58.9959,60.4917,0,11,11,12,1,13,tahip,notharmonic,nw,z,,,,,,,,,,,,,,,,,,,,,,,,,,,,,,,,,,,,,
,,,,2023-11-28_21h46.34.378,VH_v3,2023.2.3,Win32,143.9677512,,,,,,,,,,,,60.4919,61.4895,61.4895,61.8715,m,1,0.3682,,0.3682,1,61.8715,63.3673,0,12,12,2,1,3,yardım,harmonic,word,m,,,,,,,,,,,,,,,,,,,,,,,,,,,,,,,,,,,,,
,,,,2023-11-28_21h46.34.378,VH_v3,2023.2.3,Win32,143.9677512,,,,,,,,,,,,63.3676,64.365,64.365,65.0135,z,1,0.6391,,0.6391,1,65.0135,66.5112,0,13,13,14,1,15,mahne,notharmonic,nw,z,,,,,,,,,,,,,,,,,,,,,,,,,,,,,,,,,,,,,
,,,,2023-11-28_21h46.34.378,VH_v3,2023.2.3,Win32,143.9677512,,,,,,,,,,,,66.5113,67.5113,67.5113,68.3613,z,1,0.8405,,0.8405,1,68.3613,69.8614,0,14,14,17,1,18,pilar,notharmonic,nw,z,,,,,,,,,,,,,,,,,,,,,,,,,,,,,,,,,,,,,
,,,,2023-11-28_21h46.34.378,VH_v3,2023.2.3,Win32,143.9677512,,,,,,,,,,,,69.8616,70.8663,70.8663,71.4288,m,1,0.5498,,0.5498,1,71.4288,72.9289,0,15,15,6,1,7,sebep,harmonic,word,m,,,,,,,,,,,,,,,,,,,,,,,,,,,,,,,,,,,,,
,,,,2023-11-28_21h46.34.378,VH_v3,2023.2.3,Win32,143.9677512,,,,,,,,,,,,72.9291,73.93,73.93,74.5126,z,1,0.5706,,0.5706,1,74.5127,76.0155,0,16,16,22,1,23,gizım,notharmonic,nw,z,,,,,,,,,,,,,,,,,,,,,,,,,,,,,,,,,,,,,
,,,,2023-11-28_21h46.34.378,VH_v3,2023.2.3,Win32,143.9677512,,,,,,,,,,,,76.0157,77.0132,77.0132,77.5271,m,1,0.5017,,0.5017,1,77.5271,79.0274,0,17,17,5,1,6,gizli,harmonic,word,m,,,,,,,,,,,,,,,,,,,,,,,,,,,,,,,,,,,,,
,,,,2023-11-28_21h46.34.378,VH_v3,2023.2.3,Win32,143.9677512,,,,,,,,,,,,79.0275,80.0275,80.0276,80.5997,z,1,0.5628,,0.5628,1,80.5997,82.0973,0,18,18,19,1,20,mımal,harmonic,nw,z,,,,,,,,,,,,,,,,,,,,,,,,,,,,,,,,,,,,,
,,,,2023-11-28_21h46.34.378,VH_v3,2023.2.3,Win32,143.9677512,,,,,,,,,,,,82.0975,83.0932,83.0932,83.8478,z,1,0.7432,,0.7432,1,83.8479,85.3436,0,19,19,16,1,17,ihlot,notharmonic,nw,z,,,,,,,,,,,,,,,,,,,,,,,,,,,,,,,,,,,,,
,,,,2023-11-28_21h46.34.378,VH_v3,2023.2.3,Win32,143.9677512,,,,,,,,,,,,85.3439,86.3414,86.3415,87.0011,z,1,0.6459,,0.6459,1,87.0011,88.5041,0,20,20,18,1,19,pimer,harmonic,nw,z,,,,,,,,,,,,,,,,,,,,,,,,,,,,,,,,,,,,,
,,,,2023-11-28_21h46.34.378,VH_v3,2023.2.3,Win32,143.9677512,,,,,,,,,,,,88.5043,89.5016,89.5016,90.2197,z,1,0.7066,,0.7066,1,90.2197,91.7172,0,21,21,20,1,21,yoğuk,harmonic,nw,z,,,,,,,,,,,,,,,,,,,,,,,,,,,,,,,,,,,,,
,,,,2023-11-28_21h46.34.378,VH_v3,2023.2.3,Win32,143.9677512,,,,,,,,,,,,91.7174,92.7174,92.7174,93.1968,z,0,0.4686,,0.4686,0,93.1968,94.697,0,22,22,7,1,8,oran,harmonic,word,m,,,,,,,,,,,,,,,,,,,,,,,,,,,,,,,,,,,,,
,,,,2023-11-28_21h46.34.378,VH_v3,2023.2.3,Win32,143.9677512,,,,,,,,,,,,94.6972,95.6971,95.6971,96.1139,m,0,0.4029,,0.4029,0,96.1139,97.6141,0,23,23,23,1,24,zarim,notharmonic,nw,z,,,,,,,,,,,,,,,,,,,,,,,,,,,,,,,,,,,,,
,,,,2023-11-28_21h46.34.378,VH_v3,2023.2.3,Win32,143.9677512,,,,,,,,,,,,,,,,,,,,,,,,,,,,,,,,,,97.6144,104.8866,space,7.258,,,,,,,,,,,,,,,,,,,,,,,,,,,,,,,,,
,,,,2023-11-28_21h46.34.378,VH_v3,2023.2.3,Win32,143.9677512,,,,,,,,,,,,104.9197,105.8866,,,,,,,,,,,,,,,,,,,,,,,,,,105.8868,106.4215,m,1,0.5276,,106.4215,106.4222,,0,0,0,119,1,120,rahat,4833,219.5924,4316,0.4718,5,harmonic,,word,m,,,,,,,
,,,,2023-11-28_21h46.34.378,VH_v3,2023.2.3,Win32,143.9677512,,,,,,,,,,,,106.4224,107.4215,,,,,,,,,,,,,,,,,,,,,,,,,,107.4216,107.8521,m,1,0.4256,,107.8522,107.8522,,0,1,1,13,1,14,nokta,2085,94.7341,1939,0.212,5,harmonic,1.5,word,m,,,,,,,
,,,,2023-11-28_21h46.34.378,VH_v3,2023.2.3,Win32,143.9677512,,,,,,,,,,,,107.8524,108.8523,,,,,,,,,,,,,,,,,,,,,,,,,,108.8524,109.2274,m,0,0.3716,,109.2274,109.2275,,0,2,2,253,1,254,notan,,,,,5,harmonic,1.85,nw,z,,,,,,,
,,,,2023-11-28_21h46.34.378,VH_v3,2023.2.3,Win32,143.9677512,,,,,,,,,,,,109.2277,110.2276,,,,,,,,,,,,,,,,,,,,,,,,,,110.2276,110.8112,m,0,0.5791,,110.8112,110.8112,,0,3,3,334,1,335,mecda,,,,,5,notharmonic,1.95,nw,z,,,,,,,
,,,,2023-11-28_21h46.34.378,VH_v3,2023.2.3,Win32,143.9677512,,,,,,,,,,,,110.8114,111.8114,,,,,,,,,,,,,,,,,,,,,,,,,,111.8114,112.5405,z,1,0.7217,,112.5405,112.5405,,0,4,4,194,1,195,yabum,,,,,5,harmonic,2,nw,z,,,,,,,
,,,,2023-11-28_21h46.34.378,VH_v3,2023.2.3,Win32,143.9677512,,,,,,,,,,,,112.5407,113.5408,,,,,,,,,,,,,,,,,,,,,,,,,,113.5409,114.0338,m,1,0.4845,,114.0338,114.0338,,0,5,5,151,1,152,uzak,4809,218.5019,4564,0.4989,4,harmonic,,word,m,,,,,,,
,,,,2023-11-28_21h46.34.378,VH_v3,2023.2.3,Win32,143.9677512,,,,,,,,,,,,114.034,115.0341,,,,,,,,,,,,,,,,,,,,,,,,,,115.0341,115.5411,m,1,0.501,,115.5411,115.5411,,0,6,6,113,1,114,akşam,7480,339.8615,6833,0.747,5,harmonic,,word,m,,,,,,,
,,,,2023-11-28_21h46.34.378,VH_v3,2023.2.3,Win32,143.9677512,,,,,,,,,,,,115.5414,116.5412,,,,,,,,,,,,,,,,,,,,,,,,,,116.5412,117.1178,m,1,0.5701,,117.1178,117.1178,,0,7,7,126,1,127,ciddi,4147,188.4232,3686,0.403,5,harmonic,,word,m,,,,,,,
,,,,2023-11-28_21h46.34.378,VH_v3,2023.2.3,Win32,143.9677512,,,,,,,,,,,,117.118,118.1181,,,,,,,,,,,,,,,,,,,,,,,,,,118.1182,118.8404,z,1,0.7132,,118.8404,118.8405,,0,8,8,287,1,288,beran,,,,,5,notharmonic,1.75,nw,z,,,,,,,
,,,,2023-11-28_21h46.34.378,VH_v3,2023.2.3,Win32,143.9677512,,,,,,,,,,,,118.8407,119.8407,,,,,,,,,,,,,,,,,,,,,,,,,,119.8408,120.4518,m,1,0.6062,,120.4518,120.4518,,0,9,9,156,1,157,sosyal,5290,240.3566,4372,0.4779,6,harmonic,,word,m,,,,,,,
,,,,2023-11-28_21h46.34.378,VH_v3,2023.2.3,Win32,143.9677512,,,,,,,,,,,,120.4521,121.4518,,,,,,,,,,,,,,,,,,,,,,,,,,121.4518,122.0283,z,1,0.5713,,122.0284,122.0284,,0,10,10,325,1,326,icanat,,,,,6,notharmonic,2.25,nw,z,,,,,,,
,,,,2023-11-28_21h46.34.378,VH_v3,2023.2.3,Win32,143.9677512,,,,,,,,,,,,122.0286,123.0285,,,,,,,,,,,,,,,,,,,,,,,,,,123.0286,123.6606,z,1,0.6258,,123.6606,123.6607,,0,11,11,231,1,232,çekir,,,,,5,harmonic,1.45,nw,z,,,,,,,
,,,,2023-11-28_21h46.34.378,VH_v3,2023.2.3,Win32,143.9677512,,,,,,,,,,,,123.661,124.6609,,,,,,,,,,,,,,,,,,,,,,,,,,124.6609,125.2373,m,1,0.5698,,125.2373,125.2374,,0,12,12,114,1,115,türlü,7010,318.5066,6559,0.717,5,harmonic,,word,m,,,,,,,
,,,,2023-11-28_21h46.34.378,VH_v3,2023.2.3,Win32,143.9677512,,,,,,,,,,,,125.2376,126.2375,,,,,,,,,,,,,,,,,,,,,,,,,,126.2375,126.7098,m,1,0.4652,,126.7099,126.7099,,0,13,13,145,1,146,ilgi,2144,97.4149,2041,0.2231,4,harmonic,,word,m,,,,,,,
,,,,2023-11-28_21h46.34.378,VH_v3,2023.2.3,Win32,143.9677512,,,,,,,,,,,,126.7101,127.7101,,,,,,,,,,,,,,,,,,,,,,,,,,127.7101,128.1615,m,1,0.4416,,128.1615,128.1615,,0,14,14,140,1,141,ünlü,2684,121.9503,2457,0.2686,4,harmonic,,word,m,,,,,,,
,,,,2023-11-28_21h46.34.378,VH_v3,2023.2.3,Win32,143.9677512,,,,,,,,,,,,128.1618,129.1616,,,,,,,,,,,,,,,,,,,,,,,,,,129.1617,129.9325,m,1,0.7657,,129.9325,129.9326,,0,15,15,150,1,151,ağır,4441,201.7814,3961,0.433,4,harmonic,,word,m,,,,,,,
,,,,2023-11-28_21h46.34.378,VH_v3,2023.2.3,Win32,143.9677512,,,,,,,,,,,,129.9327,130.9327,,,,,,,,,,,,,,,,,,,,,,,,,,130.9328,131.5579,z,1,0.6178,,131.5579,131.5579,,0,16,16,204,1,205,cabor,,,,,5,harmonic,2.1,nw,z,,,,,,,
,,,,2023-11-28_21h46.34.378,VH_v3,2023.2.3,Win32,143.9677512,,,,,,,,,,,,131.558,132.558,,,,,,,,,,,,,,,,,,,,,,,,,,132.558,133.1345,m,1,0.5692,,133.1345,133.1346,,0,17,17,70,1,71,yarın,3440,156.3,3222,0.3522,5,harmonic,1.85,word,m,,,,,,,
,,,,2023-11-28_21h46.34.378,VH_v3,2023.2.3,Win32,143.9677512,,,,,,,,,,,,133.1348,134.1349,,,,,,,,,,,,,,,,,,,,,,,,,,134.1349,134.7738,z,1,0.6322,,134.7738,134.7738,,0,18,18,211,1,212,metel,,,,,5,harmonic,1.75,nw,z,,,,,,,
,,,,2023-11-28_21h46.34.378,VH_v3,2023.2.3,Win32,143.9677512,,,,,,,,,,,,134.7741,135.7739,,,,,,,,,,,,,,,,,,,,,,,,,,135.774,136.281,m,1,0.4984,,136.281,136.2811,,0,19,19,7,1,8,hizmet,3023,137.3531,2689,0.294,6,harmonic,1.75,word,m,,,,,,,
,,,,2023-11-28_21h46.34.378,VH_v3,2023.2.3,Win32,143.9677512,,,,,,,,,,,,136.2813,137.2813,,,,,,,,,,,,,,,,,,,,,,,,,,137.2813,138.0035,z,1,0.7178,,138.0035,138.0036,,0,20,20,275,1,276,makis,,,,,5,notharmonic,1.8,nw,z,,,,,,,
,,,,2023-11-28_21h46.34.378,VH_v3,2023.2.3,Win32,143.9677512,,,,,,,,,,,,138.0038,139.0038,,,,,,,,,,,,,,,,,,,,,,,,,,139.0038,139.7956,z,1,0.7873,,139.7956,139.7957,,0,21,21,310,1,311,moderp,,,,,6,notharmonic,,nw,z,,,,,,,
,,,,2023-11-28_21h46.34.378,VH_v3,2023.2.3,Win32,143.9677512,,,,,,,,,,,,139.7959,140.7958,,,,,,,,,,,,,,,,,,,,,,,,,,140.7958,141.5112,m,0,0.7069,,141.5112,141.5112,,0,22,22,339,1,340,halip,,,,,5,notharmonic,1.5,nw,z,,,,,,,
,,,,2023-11-28_21h46.34.378,VH_v3,2023.2.3,Win32,143.9677512,,,,,,,,,,,,141.5113,142.5113,,,,,,,,,,,,,,,,,,,,,,,,,,142.5114,143.2127,m,0,0.6958,,143.2127,143.2128,,0,23,23,270,1,271,sarip,,,,,5,notharmonic,1.65,nw,z,,,,,,,
,,,,2023-11-28_21h46.34.378,VH_v3,2023.2.3,Win32,143.9677512,,,,,,,,,,,,143.2129,144.2131,,,,,,,,,,,,,,,,,,,,,,,,,,144.2131,144.9979,m,1,0.7781,,144.998,144.998,,0,24,24,100,1,101,zayıf,1359,61.7476,1285,0.1405,5,harmonic,,word,m,,,,,,,
,,,,2023-11-28_21h46.34.378,VH_v3,2023.2.3,Win32,143.9677512,,,,,,,,,,,,144.9981,145.9981,,,,,,,,,,,,,,,,,,,,,,,,,,145.9981,146.6856,z,1,0.6811,,146.6856,146.6856,,0,25,25,265,1,266,münrün,,,,,6,harmonic,2.75,nw,z,,,,,,,
,,,,2023-11-28_21h46.34.378,VH_v3,2023.2.3,Win32,143.9677512,,,,,,,,,,,,146.6859,147.6859,,,,,,,,,,,,,,,,,,,,,,,,,,147.6859,148.2832,m,1,0.5932,,148.2832,148.2833,,0,26,26,95,1,96,koyun,1431,65.019,1292,0.1412,5,harmonic,,word,m,,,,,,,
,,,,2023-11-28_21h46.34.378,VH_v3,2023.2.3,Win32,143.9677512,,,,,,,,,,,,148.2836,149.2834,,,,,,,,,,,,,,,,,,,,,,,,,,149.2834,150.3738,z,1,1.0842,,150.3738,150.3739,,0,27,27,263,1,264,geğniş,,,,,6,harmonic,2.35,nw,z,,,,,,,
,,,,2023-11-28_21h46.34.378,VH_v3,2023.2.3,Win32,143.9677512,,,,,,,,,,,,150.3741,151.374,,,,,,,,,,,,,,,,,,,,,,,,,,151.3741,152.1102,z,1,0.7278,,152.1103,152.1103,,0,28,28,316,1,317,karkiş,,,,,6,notharmonic,2,nw,z,,,,,,,
,,,,2023-11-28_21h46.34.378,VH_v3,2023.2.3,Win32,143.9677512,,,,,,,,,,,,152.1104,153.1105,,,,,,,,,,,,,,,,,,,,,,,,,,153.1105,153.7773,z,1,0.6602,,153.7774,153.7775,,0,29,29,305,1,306,itba,,,,,4,notharmonic,1.85,nw,z,,,,,,,
,,,,2023-11-28_21h46.34.378,VH_v3,2023.2.3,Win32,143.9677512,,,,,,,,,,,,153.7776,154.7774,,,,,,,,,,,,,,,,,,,,,,,,,,154.7775,155.3886,z,1,0.6056,,155.3886,155.3887,,0,30,30,188,1,189,hüyen,,,,,5,harmonic,2,nw,z,,,,,,,
,,,,2023-11-28_21h46.34.378,VH_v3,2023.2.3,Win32,143.9677512,,,,,,,,,,,,155.3888,156.3888,,,,,,,,,,,,,,,,,,,,,,,,,,156.3888,157.4516,z,1,1.0581,,157.4516,157.4516,,0,31,31,301,1,302,meyav,,,,,5,notharmonic,1.85,nw,z,,,,,,,
,,,,2023-11-28_21h46.34.378,VH_v3,2023.2.3,Win32,143.9677512,,,,,,,,,,,,157.4518,158.4518,,,,,,,,,,,,,,,,,,,,,,,,,,158.4519,159.4173,z,1,0.9567,,159.4173,159.4173,,0,32,32,274,1,275,rikal,,,,,5,notharmonic,1.85,nw,z,,,,,,,
,,,,2023-11-28_21h46.34.378,VH_v3,2023.2.3,Win32,143.9677512,,,,,,,,,,,,159.4175,160.4174,,,,,,,,,,,,,,,,,,,,,,,,,,160.4174,161.0985,z,1,0.6744,,161.0985,161.0985,,0,33,33,336,1,337,zanit,,,,,5,notharmonic,1.85,nw,z,,,,,,,
,,,,2023-11-28_21h46.34.378,VH_v3,2023.2.3,Win32,143.9677512,,,,,,,,,,,,161.0987,162.0982,,,,,,,,,,,,,,,,,,,,,,,,,,162.0983,162.6192,m,1,0.5165,,162.6193,162.6193,,0,34,34,97,1,98,kadın,10751,488.4828,8665,0.9473,5,harmonic,,word,m,,,,,,,
,,,,2023-11-28_21h46.34.378,VH_v3,2023.2.3,Win32,143.9677512,,,,,,,,,,,,162.6197,163.6194,,,,,,,,,,,,,,,,,,,,,,,,,,163.6194,164.2654,z,1,0.6367,,164.2654,164.2654,,0,35,35,227,1,228,temzik,,,,,6,harmonic,1.9,nw,z,,,,,,,
,,,,2023-11-28_21h46.34.378,VH_v3,2023.2.3,Win32,143.9677512,,,,,,,,,,,,164.2657,165.2655,,,,,,,,,,,,,,,,,,,,,,,,,,165.2655,165.7795,m,1,0.5092,,165.7795,165.7796,,0,36,36,148,1,149,ışık,1814,82.421,1635,0.1787,4,harmonic,,word,m,,,,,,,
,,,,2023-11-28_21h46.34.378,VH_v3,2023.2.3,Win32,143.9677512,,,,,,,,,,,,165.7797,166.7796,,,,,,,,,,,,,,,,,,,,,,,,,,166.7796,167.2867,m,1,0.4996,,167.2867,167.2868,,0,37,37,58,1,59,ayak,2143,97.3694,1931,0.2111,4,harmonic,1,word,m,,,,,,,
,,,,2023-11-28_21h46.34.378,VH_v3,2023.2.3,Win32,143.9677512,,,,,,,,,,,,167.2869,168.2869,,,,,,,,,,,,,,,,,,,,,,,,,,168.287,168.8356,z,1,0.5438,,168.8356,168.8357,,0,38,38,234,1,235,taslam,,,,,6,harmonic,1.9,nw,z,,,,,,,
,,,,2023-11-28_21h46.34.378,VH_v3,2023.2.3,Win32,143.9677512,,,,,,,,,,,,168.8359,169.8359,,,,,,,,,,,,,,,,,,,,,,,,,,169.836,170.3151,m,1,0.4758,,170.3151,170.3152,,0,39,39,128,1,129,güçlü,3924,178.291,3614,0.3951,5,harmonic,,word,m,,,,,,,
,,,,2023-11-28_21h46.34.378,VH_v3,2023.2.3,Win32,143.9677512,,,,,,,,,,,,170.3154,171.3152,,,,,,,,,,,,,,,,,,,,,,,,,,171.3152,172.3571,z,1,1.0351,,172.3572,172.3572,,0,40,40,249,1,250,öldek,,,,,5,harmonic,1.85,nw,z,,,,,,,
,,,,2023-11-28_21h46.34.378,VH_v3,2023.2.3,Win32,143.9677512,,,,,,,,,,,,172.3573,173.3574,,,,,,,,,,,,,,,,,,,,,,,,,,173.3574,173.9962,m,1,0.6334,,173.9962,173.9962,,0,41,41,54,1,55,yedek,825,37.4847,732,0.08,5,harmonic,1.65,word,m,,,,,,,
,,,,2023-11-28_21h46.34.378,VH_v3,2023.2.3,Win32,143.9677512,,,,,,,,,,,,173.9964,174.9966,,,,,,,,,,,,,,,,,,,,,,,,,,174.9966,175.573,m,0,0.5715,,175.573,175.5731,,0,42,42,355,1,356,daneta,,,,,6,notharmonic,2.4,nw,z,,,,,,,
,,,,2023-11-28_21h46.34.378,VH_v3,2023.2.3,Win32,143.9677512,,,,,,,,,,,,175.5734,176.5731,,,,,,,,,,,,,,,,,,,,,,,,,,176.5731,177.3859,m,1,0.8041,,177.3859,177.386,,0,43,43,144,1,145,şiir,2213,100.5499,1690,0.1848,4,harmonic,,word,m,,,,,,,
,,,,2023-11-28_21h46.34.378,VH_v3,2023.2.3,Win32,143.9677512,,,,,,,,,,,,177.3862,178.3861,,,,,,,,,,,,,,,,,,,,,,,,,,178.3861,179.039,z,1,0.6449,,179.039,179.039,,0,44,44,190,1,191,banyak,,,,,6,harmonic,1.85,nw,z,,,,,,,
,,,,2023-11-28_21h46.34.378,VH_v3,2023.2.3,Win32,143.9677512,,,,,,,,,,,,179.0392,180.0392,,,,,,,,,,,,,,,,,,,,,,,,,,180.0392,180.5739,m,1,0.5268,,180.574,180.574,,0,45,45,177,1,178,mutfak,1110,50.434,1032,0.1128,6,harmonic,,word,m,,,,,,,
,,,,2023-11-28_21h46.34.378,VH_v3,2023.2.3,Win32,143.9677512,,,,,,,,,,,,180.5741,181.5742,,,,,,,,,,,,,,,,,,,,,,,,,,181.5742,182.1506,m,1,0.5704,,182.1506,182.1506,,0,46,46,47,1,48,kaza,740,33.6227,679,0.0742,4,harmonic,1.85,word,m,,,,,,,
,,,,2023-11-28_21h46.34.378,VH_v3,2023.2.3,Win32,143.9677512,,,,,,,,,,,,182.1509,183.1508,,,,,,,,,,,,,,,,,,,,,,,,,,183.1508,183.6439,m,1,0.4875,,183.6439,183.6439,,0,47,47,138,1,139,yazar,3175,144.2594,2877,0.3145,5,harmonic,,word,m,,,,,,,
,,,,2023-11-28_21h46.34.378,VH_v3,2023.2.3,Win32,143.9677512,,,,,,,,,,,,183.6442,184.6439,,,,,,,,,,,,,,,,,,,,,,,,,,184.644,185.1928,z,1,0.54,,185.1929,185.1929,,0,48,48,291,1,292,kasge,,,,,5,notharmonic,2,nw,z,,,,,,,
,,,,2023-11-28_21h46.34.378,VH_v3,2023.2.3,Win32,143.9677512,,,,,,,,,,,,185.1931,186.1931,,,,,,,,,,,,,,,,,,,,,,,,,,186.1931,186.9084,z,1,0.7094,,186.9084,186.9084,,0,49,49,213,1,214,yofa,,,,,4,harmonic,1.75,nw,z,,,,,,,
,,,,2023-11-28_21h46.34.378,VH_v3,2023.2.3,Win32,143.9677512,,,,,,,,,,,,186.9087,187.9087,,,,,,,,,,,,,,,,,,,,,,,,,,187.9087,188.4573,m,1,0.5399,,188.4574,188.4574,,0,50,50,63,1,64,sultan,1756,79.7857,1368,0.1496,6,harmonic,1.55,word,m,,,,,,,
,,,,2023-11-28_21h46.34.378,VH_v3,2023.2.3,Win32,143.9677512,,,,,,,,,,,,188.4576,189.4575,,,,,,,,,,,,,,,,,,,,,,,,,,189.4575,190.0061,z,1,0.5412,,190.0062,190.0062,,0,51,51,297,1,298,şasep,,,,,5,notharmonic,1.9,nw,z,,,,,,,
,,,,2023-11-28_21h46.34.378,VH_v3,2023.2.3,Win32,143.9677512,,,,,,,,,,,,190.0063,191.0063,,,,,,,,,,,,,,,,,,,,,,,,,,191.0064,191.9579,m,1,0.9447,,191.958,191.958,,0,52,52,39,1,40,yaygın,1061,48.2076,1019,0.1114,6,harmonic,1.35,word,m,,,,,,,
,,,,2023-11-28_21h46.34.378,VH_v3,2023.2.3,Win32,143.9677512,,,,,,,,,,,,191.9583,192.9582,,,,,,,,,,,,,,,,,,,,,,,,,,192.9582,193.5345,m,1,0.5683,,193.5346,193.5346,,0,53,53,153,1,154,para,7124,323.6863,5953,0.6508,4,harmonic,,word,m,,,,,,,
,,,,2023-11-28_21h46.34.378,VH_v3,2023.2.3,Win32,143.9677512,,,,,,,,,,,,193.5347,194.5349,,,,,,,,,,,,,,,,,,,,,,,,,,194.5349,195.0835,z,1,0.5441,,195.0836,195.0836,,0,54,54,264,1,265,yerfek,,,,,6,harmonic,2,nw,z,,,,,,,
,,,,2023-11-28_21h46.34.378,VH_v3,2023.2.3,Win32,143.9677512,,,,,,,,,,,,195.0837,196.0837,,,,,,,,,,,,,,,,,,,,,,,,,,196.0837,196.5908,z,1,0.4989,,196.5908,196.5908,,0,55,55,235,1,236,mörüm,,,,,5,harmonic,1.9,nw,z,,,,,,,
,,,,2023-11-28_21h46.34.378,VH_v3,2023.2.3,Win32,143.9677512,,,,,,,,,,,,196.5911,197.5908,,,,,,,,,,,,,,,,,,,,,,,,,,197.5908,198.2855,m,1,0.6881,,198.2856,198.2856,,0,56,56,174,1,175,hayran,1171,53.2056,1073,0.1173,6,harmonic,,word,m,,,,,,,
,,,,2023-11-28_21h46.34.378,VH_v3,2023.2.3,Win32,143.9677512,,,,,,,,,,,,198.2858,199.2858,,,,,,,,,,,,,,,,,,,,,,,,,,199.2858,199.8761,z,1,0.5841,,199.8762,199.8762,,0,57,57,280,1,281,düktan,,,,,6,notharmonic,2.35,nw,z,,,,,,,
,,,,2023-11-28_21h46.34.378,VH_v3,2023.2.3,Win32,143.9677512,,,,,,,,,,,,199.8763,200.8763,,,,,,,,,,,,,,,,,,,,,,,,,,200.8763,201.3765,m,1,0.4916,,201.3765,201.3765,,0,58,58,125,1,126,hızlı,4167,189.332,3688,0.4032,5,harmonic,,word,m,,,,,,,
,,,,2023-11-28_21h46.34.378,VH_v3,2023.2.3,Win32,143.9677512,,,,,,,,,,,,201.3767,202.3765,,,,,,,,,,,,,,,,,,,,,,,,,,202.3766,202.9113,m,1,0.5264,,202.9114,202.9114,,0,59,59,137,1,138,yoğun,3189,144.8955,3026,0.3308,5,harmonic,,word,m,,,,,,,
,,,,2023-11-28_21h46.34.378,VH_v3,2023.2.3,Win32,143.9677512,,,,,,,,,,,,202.9116,203.9115,,,,,,,,,,,,,,,,,,,,,,,,,,203.9115,204.4396,z,1,0.5203,,204.4396,204.4397,,0,60,60,347,1,348,şeylam,,,,,6,notharmonic,2.4,nw,z,,,,,,,
,,,,2023-11-28_21h46.34.378,VH_v3,2023.2.3,Win32,143.9677512,,,,,,,,,,,,204.4399,205.4396,,,,,,,,,,,,,,,,,,,,,,,,,,205.4397,205.9605,m,1,0.5116,,205.9605,205.9605,,0,61,61,18,1,19,normal,4154,188.7413,3788,0.4141,6,harmonic,1.75,word,m,,,,,,,
,,,,2023-11-28_21h46.34.378,VH_v3,2023.2.3,Win32,143.9677512,,,,,,,,,,,,205.9607,206.9607,,,,,,,,,,,,,,,,,,,,,,,,,,206.9607,207.6067,z,1,0.6384,,207.6067,207.6067,,0,62,62,183,1,184,titik,,,,,5,harmonic,1.7,nw,z,,,,,,,
,,,,2023-11-28_21h46.34.378,VH_v3,2023.2.3,Win32,143.9677512,,,,,,,,,,,,207.6069,208.6069,,,,,,,,,,,,,,,,,,,,,,,,,,208.6069,209.1902,z,1,0.5757,,209.1903,209.1903,,0,63,63,210,1,211,şatla,,,,,5,harmonic,1.5,nw,z,,,,,,,
,,,,2023-11-28_21h46.34.378,VH_v3,2023.2.3,Win32,143.9677512,,,,,,,,,,,,209.1905,210.1854,,,,,,,,,,,,,,,,,,,,,,,,,,210.1854,210.7532,m,1,0.5592,,210.7532,210.7532,,0,64,64,90,1,91,güzel,42841,1946.5251,37209,4.0677,5,harmonic,,word,m,,,,,,,
,,,,2023-11-28_21h46.34.378,VH_v3,2023.2.3,Win32,143.9677512,,,,,,,,,,,,210.7535,211.7533,,,,,,,,,,,,,,,,,,,,,,,,,,211.7533,212.2812,z,1,0.5184,,212.2812,212.2813,,0,65,65,248,1,249,harık,,,,,5,harmonic,1.55,nw,z,,,,,,,
,,,,2023-11-28_21h46.34.378,VH_v3,2023.2.3,Win32,143.9677512,,,,,,,,,,,,212.2814,213.2814,,,,,,,,,,,,,,,,,,,,,,,,,,213.2815,214.1009,m,1,0.8136,,214.101,214.101,,0,66,66,162,1,163,destek,3328,151.2111,3065,0.3351,6,harmonic,,word,m,,,,,,,
,,,,2023-11-28_21h46.34.378,VH_v3,2023.2.3,Win32,143.9677512,,,,,,,,,,,,214.1012,215.1011,,,,,,,,,,,,,,,,,,,,,,,,,,215.1011,215.872,m,1,0.7615,,215.872,215.872,,0,67,67,85,1,86,geçmiş,4195,190.6042,4039,0.4415,6,harmonic,1.55,word,m,,,,,,,
,,,,2023-11-28_21h46.34.378,VH_v3,2023.2.3,Win32,143.9677512,,,,,,,,,,,,215.8722,216.8722,,,,,,,,,,,,,,,,,,,,,,,,,,216.8722,217.3446,z,1,0.4641,,217.3446,217.3447,,0,68,68,328,1,329,tadit,,,,,5,notharmonic,1.8,nw,z,,,,,,,
,,,,2023-11-28_21h46.34.378,VH_v3,2023.2.3,Win32,143.9677512,,,,,,,,,,,,217.3448,218.3448,,,,,,,,,,,,,,,,,,,,,,,,,,218.3448,218.9074,z,1,0.5575,,218.9074,218.9075,,0,69,69,222,1,223,çetiş,,,,,5,harmonic,1.7,nw,z,,,,,,,
,,,,2023-11-28_21h46.34.378,VH_v3,2023.2.3,Win32,143.9677512,,,,,,,,,,,,218.9076,219.9075,,,,,,,,,,,,,,,,,,,,,,,,,,219.9076,220.4007,m,1,0.4835,,220.4008,220.4009,,0,70,70,88,1,89,yalnız,5891,267.6637,5440,0.5947,6,harmonic,1.6,word,m,,,,,,,
,,,,2023-11-28_21h46.34.378,VH_v3,2023.2.3,Win32,143.9677512,,,,,,,,,,,,220.4011,221.4008,,,,,,,,,,,,,,,,,,,,,,,,,,221.4009,221.9428,z,1,0.5334,,221.9428,221.9428,,0,71,71,182,1,183,rafto,,,,,5,harmonic,2,nw,z,,,,,,,
,,,,2023-11-28_21h46.34.378,VH_v3,2023.2.3,Win32,143.9677512,,,,,,,,,,,,221.943,222.9429,,,,,,,,,,,,,,,,,,,,,,,,,,222.9429,223.4846,m,1,0.536,,223.4846,223.4847,,0,72,72,86,1,87,gerçek,8983,408.1519,8058,0.8809,6,harmonic,1.7,word,m,,,,,,,
,,,,2023-11-28_21h46.34.378,VH_v3,2023.2.3,Win32,143.9677512,,,,,,,,,,,,223.4848,224.4848,,,,,,,,,,,,,,,,,,,,,,,,,,224.4849,224.95,m,1,0.4581,,224.9501,224.9501,,0,73,73,59,1,60,köpek,1044,47.4352,901,0.0985,5,harmonic,1.75,word,m,,,,,,,
,,,,2023-11-28_21h46.34.378,VH_v3,2023.2.3,Win32,143.9677512,,,,,,,,,,,,224.9504,225.9504,,,,,,,,,,,,,,,,,,,,,,,,,,225.9504,226.3671,z,1,0.4075,,226.3671,226.3672,,0,74,74,313,1,314,hahih,,,,,5,notharmonic,1.95,nw,z,,,,,,,
,,,,2023-11-28_21h46.34.378,VH_v3,2023.2.3,Win32,143.9677512,,,,,,,,,,,,226.3674,227.3673,,,,,,,,,,,,,,,,,,,,,,,,,,227.3673,227.8951,m,1,0.5201,,227.8951,227.8952,,0,75,75,159,1,160,derece,4766,216.5481,4462,0.4878,6,harmonic,,word,m,,,,,,,
,,,,2023-11-28_21h46.34.378,VH_v3,2023.2.3,Win32,143.9677512,,,,,,,,,,,,227.8954,228.8954,,,,,,,,,,,,,,,,,,,,,,,,,,228.8954,229.3119,z,1,0.4079,,229.312,229.312,,0,76,76,269,1,270,kanon,,,,,5,harmonic,,nw,z,,,,,,,
,,,,2023-11-28_21h46.34.378,VH_v3,2023.2.3,Win32,143.9677512,,,,,,,,,,,,229.3123,230.3122,,,,,,,,,,,,,,,,,,,,,,,,,,230.3123,230.7637,m,1,0.4468,,230.7638,230.7638,,0,77,77,121,1,122,şeker,4708,213.9128,4170,0.4559,5,harmonic,,word,m,,,,,,,
,,,,2023-11-28_21h46.34.378,VH_v3,2023.2.3,Win32,143.9677512,,,,,,,,,,,,230.764,231.7639,,,,,,,,,,,,,,,,,,,,,,,,,,231.7639,232.4237,m,1,0.6521,,232.4238,232.4238,,0,78,78,81,1,82,üretim,1593,72.3796,1283,0.1403,6,harmonic,1.6,word,m,,,,,,,
,,,,2023-11-28_21h46.34.378,VH_v3,2023.2.3,Win32,143.9677512,,,,,,,,,,,,232.4241,233.4239,,,,,,,,,,,,,,,,,,,,,,,,,,233.4239,233.9726,z,1,0.5429,,233.9726,233.9726,,0,79,79,271,1,272,icazi,,,,,5,notharmonic,1.95,nw,z,,,,,,,
,,,,2023-11-28_21h46.34.378,VH_v3,2023.2.3,Win32,143.9677512,,,,,,,,,,,,233.9728,234.9727,,,,,,,,,,,,,,,,,,,,,,,,,,234.9728,235.605,z,1,0.6256,,235.605,235.6051,,0,80,80,349,1,350,mane,,,,,4,notharmonic,1.45,nw,z,,,,,,,
,,,,2023-11-28_21h46.34.378,VH_v3,2023.2.3,Win32,143.9677512,,,,,,,,,,,,235.6053,236.6052,,,,,,,,,,,,,,,,,,,,,,,,,,236.6052,237.1954,m,1,0.5852,,237.1954,237.1954,,0,81,81,98,1,99,yerel,1399,63.565,1187,0.1298,5,harmonic,,word,m,,,,,,,
,,,,2023-11-28_21h46.34.378,VH_v3,2023.2.3,Win32,143.9677512,,,,,,,,,,,,237.1956,238.1957,,,,,,,,,,,,,,,,,,,,,,,,,,238.1957,238.7375,z,1,0.5347,,238.7375,238.7376,,0,82,82,302,1,303,desum,,,,,5,notharmonic,2,nw,z,,,,,,,
,,,,2023-11-28_21h46.34.378,VH_v3,2023.2.3,Win32,143.9677512,,,,,,,,,,,,238.7378,239.7377,,,,,,,,,,,,,,,,,,,,,,,,,,239.7377,240.2654,m,1,0.5189,,240.2654,240.2655,,0,83,83,112,1,113,genel,7752,352.2201,6893,0.7535,5,harmonic,,word,m,,,,,,,
,,,,2023-11-28_21h46.34.378,VH_v3,2023.2.3,Win32,143.9677512,,,,,,,,,,,,240.2656,241.2657,,,,,,,,,,,,,,,,,,,,,,,,,,241.2657,241.7659,m,1,0.4933,,241.7659,241.7659,,0,84,84,89,1,90,etki,1234,56.0681,1169,0.1278,4,harmonic,1.4,word,m,,,,,,,
,,,,2023-11-28_21h46.34.378,VH_v3,2023.2.3,Win32,143.9677512,,,,,,,,,,,,241.7661,242.7659,,,,,,,,,,,,,,,,,,,,,,,,,,242.7659,243.2869,z,1,0.5124,,243.2869,243.287,,0,85,85,257,1,258,dulom,,,,,5,harmonic,2.3,nw,z,,,,,,,
,,,,2023-11-28_21h46.34.378,VH_v3,2023.2.3,Win32,143.9677512,,,,,,,,,,,,243.2871,244.2872,,,,,,,,,,,,,,,,,,,,,,,,,,244.2872,244.7247,z,1,0.4319,,244.7248,244.7248,,0,86,86,202,1,203,kulom,,,,,5,harmonic,2,nw,z,,,,,,,
,,,,2023-11-28_21h46.34.378,VH_v3,2023.2.3,Win32,143.9677512,,,,,,,,,,,,244.7251,245.7248,,,,,,,,,,,,,,,,,,,,,,,,,,245.7248,246.2527,z,1,0.5225,,246.2527,246.2528,,0,87,87,317,1,318,zila,,,,,4,notharmonic,1.65,nw,z,,,,,,,
,,,,2023-11-28_21h46.34.378,VH_v3,2023.2.3,Win32,143.9677512,,,,,,,,,,,,246.253,247.2529,,,,,,,,,,,,,,,,,,,,,,,,,,247.2529,247.6836,z,1,0.4257,,247.6836,247.6837,,0,88,88,242,1,243,ziye,,,,,4,harmonic,1.75,nw,z,,,,,,,
,,,,2023-11-28_21h46.34.378,VH_v3,2023.2.3,Win32,143.9677512,,,,,,,,,,,,247.6838,248.6837,,,,,,,,,,,,,,,,,,,,,,,,,,248.6837,249.288,m,1,0.5955,,249.2881,249.2881,,0,89,89,3,1,4,minik,2916,132.4915,2594,0.2836,5,harmonic,1.6,word,m,,,,,,,
,,,,2023-11-28_21h46.34.378,VH_v3,2023.2.3,Win32,143.9677512,,,,,,,,,,,,249.2884,250.2882,,,,,,,,,,,,,,,,,,,,,,,,,,250.2882,250.8716,m,1,0.5747,,250.8716,250.8717,,0,90,90,57,1,58,bölüm,1910,86.7828,1605,0.1755,5,harmonic,1.45,word,m,,,,,,,
,,,,2023-11-28_21h46.34.378,VH_v3,2023.2.3,Win32,143.9677512,,,,,,,,,,,,250.8719,251.8717,,,,,,,,,,,,,,,,,,,,,,,,,,251.8717,252.4135,z,1,0.5354,,252.4135,252.4136,,0,91,91,306,1,307,napare,,,,,6,notharmonic,2.15,nw,z,,,,,,,
,,,,2023-11-28_21h46.34.378,VH_v3,2023.2.3,Win32,143.9677512,,,,,,,,,,,,252.4138,253.4138,,,,,,,,,,,,,,,,,,,,,,,,,,253.4139,254.2125,m,1,0.7925,,254.2125,254.2125,,0,92,92,51,1,52,ilginç,2803,127.3572,2690,0.2941,6,harmonic,1.8,word,m,,,,,,,
,,,,2023-11-28_21h46.34.378,VH_v3,2023.2.3,Win32,143.9677512,,,,,,,,,,,,254.2128,255.2127,,,,,,,,,,,,,,,,,,,,,,,,,,255.2127,255.6364,m,1,0.4176,,255.6364,255.6365,,0,93,93,147,1,148,dizi,1995,90.6449,1689,0.1846,4,harmonic,,word,m,,,,,,,
,,,,2023-11-28_21h46.34.378,VH_v3,2023.2.3,Win32,143.9677512,,,,,,,,,,,,255.6366,256.6367,,,,,,,,,,,,,,,,,,,,,,,,,,256.6367,257.1506,z,1,0.5058,,257.1506,257.1506,,0,94,94,216,1,217,halban,,,,,6,harmonic,2,nw,z,,,,,,,
,,,,2023-11-28_21h46.34.378,VH_v3,2023.2.3,Win32,143.9677512,,,,,,,,,,,,257.1508,258.1507,,,,,,,,,,,,,,,,,,,,,,,,,,258.1508,258.9633,m,1,0.8081,,258.9634,258.9635,,0,95,95,108,1,109,sabah,8179,371.6213,7277,0.7955,5,harmonic,,word,m,,,,,,,
,,,,2023-11-28_21h46.34.378,VH_v3,2023.2.3,Win32,143.9677512,,,,,,,,,,,,258.9637,259.9636,,,,,,,,,,,,,,,,,,,,,,,,,,259.9636,260.4776,z,0,0.5058,,260.4776,260.4776,,0,96,96,170,1,171,parmak,1268,57.6129,1165,0.1274,6,harmonic,,word,m,,,,,,,
,,,,2023-11-28_21h46.34.378,VH_v3,2023.2.3,Win32,143.9677512,,,,,,,,,,,,260.4779,261.4778,,,,,,,,,,,,,,,,,,,,,,,,,,261.4779,262.2071,z,1,0.7208,,262.2071,262.2071,,0,97,97,329,1,330,aniş,,,,,4,notharmonic,1.7,nw,z,,,,,,,
,,,,2023-11-28_21h46.34.378,VH_v3,2023.2.3,Win32,143.9677512,,,,,,,,,,,,262.2074,263.2073,,,,,,,,,,,,,,,,,,,,,,,,,,263.2074,263.7419,m,1,0.5271,,263.742,263.7421,,0,98,98,123,1,124,güneş,4371,198.6009,3610,0.3946,5,harmonic,,word,m,,,,,,,
,,,,2023-11-28_21h46.34.378,VH_v3,2023.2.3,Win32,143.9677512,,,,,,,,,,,,263.7422,264.7422,,,,,,,,,,,,,,,,,,,,,,,,,,264.7422,265.284,m,1,0.5365,,265.284,265.284,,0,99,99,122,1,123,sorun,4653,211.4139,4296,0.4696,5,harmonic,,word,m,,,,,,,
,,,,2023-11-28_21h46.34.378,VH_v3,2023.2.3,Win32,143.9677512,,,,,,,,,,,,265.2843,266.2842,,,,,,,,,,,,,,,,,,,,,,,,,,266.2842,266.8399,z,1,0.5466,,266.8399,266.8399,,0,100,100,186,1,187,yadal,,,,,5,harmonic,1.85,nw,z,,,,,,,
,,,,2023-11-28_21h46.34.378,VH_v3,2023.2.3,Win32,143.9677512,,,,,,,,,,,,266.8402,267.8401,,,,,,,,,,,,,,,,,,,,,,,,,,267.8401,268.4097,z,1,0.5598,,268.4097,268.4097,,0,101,101,203,1,204,yırdun,,,,,6,harmonic,2.8,nw,z,,,,,,,
,,,,2023-11-28_21h46.34.378,VH_v3,2023.2.3,Win32,143.9677512,,,,,,,,,,,,268.4098,269.4098,,,,,,,,,,,,,,,,,,,,,,,,,,269.4099,269.9724,z,1,0.5566,,269.9724,269.9725,,0,102,102,343,1,344,tazen,,,,,5,notharmonic,1.8,nw,z,,,,,,,
,,,,2023-11-28_21h46.34.378,VH_v3,2023.2.3,Win32,143.9677512,,,,,,,,,,,,269.9727,270.9725,,,,,,,,,,,,,,,,,,,,,,,,,,270.9725,271.681,z,1,0.7034,,271.681,271.681,,0,103,103,323,1,324,itkea,,,,,5,notharmonic,2.35,nw,z,,,,,,,
,,,,2023-11-28_21h46.34.378,VH_v3,2023.2.3,Win32,143.9677512,,,,,,,,,,,,271.6812,272.6811,,,,,,,,,,,,,,,,,,,,,,,,,,272.6811,273.4869,z,1,0.7973,,273.4869,273.487,,0,104,104,230,1,231,redem,,,,,5,harmonic,2,nw,z,,,,,,,
,,,,2023-11-28_21h46.34.378,VH_v3,2023.2.3,Win32,143.9677512,,,,,,,,,,,,273.4872,274.4871,,,,,,,,,,,,,,,,,,,,,,,,,,274.4871,275.1122,z,1,0.6158,,275.1122,275.1123,,0,105,105,342,1,343,çaneke,,,,,6,notharmonic,2.6,nw,z,,,,,,,
,,,,2023-11-28_21h46.34.378,VH_v3,2023.2.3,Win32,143.9677512,,,,,,,,,,,,275.1124,276.1125,,,,,,,,,,,,,,,,,,,,,,,,,,276.1125,276.9042,z,1,0.7847,,276.9043,276.9043,,0,106,106,229,1,230,ilgent,,,,,6,harmonic,2.7,nw,z,,,,,,,
,,,,2023-11-28_21h46.34.378,VH_v3,2023.2.3,Win32,143.9677512,,,,,,,,,,,,276.9045,277.9045,,,,,,,,,,,,,,,,,,,,,,,,,,277.9045,278.6199,m,1,0.7107,,278.6199,278.6199,,0,107,107,91,1,92,zaman,40307,1831.3902,33589,3.672,5,harmonic,,word,m,,,,,,,
,,,,2023-11-28_21h46.34.378,VH_v3,2023.2.3,Win32,143.9677512,,,,,,,,,,,,278.6202,279.6201,,,,,,,,,,,,,,,,,,,,,,,,,,279.6201,280.2173,z,1,0.5883,,280.2174,280.2174,,0,108,108,226,1,227,mara,,,,,4,harmonic,1,nw,z,,,,,,,
,,,,2023-11-28_21h46.34.378,VH_v3,2023.2.3,Win32,143.9677512,,,,,,,,,,,,280.2175,281.2175,,,,,,,,,,,,,,,,,,,,,,,,,,281.2175,281.7732,z,1,0.5491,,281.7732,281.7732,,0,109,109,219,1,220,tefsi,,,,,5,harmonic,1.8,nw,z,,,,,,,
,,,,2023-11-28_21h46.34.378,VH_v3,2023.2.3,Win32,143.9677512,,,,,,,,,,,,281.7734,282.7733,,,,,,,,,,,,,,,,,,,,,,,,,,282.7734,283.2734,z,1,0.4902,,283.2734,283.2735,,0,110,110,236,1,237,abar,,,,,4,harmonic,1.1,nw,z,,,,,,,
,,,,2023-11-28_21h46.34.378,VH_v3,2023.2.3,Win32,143.9677512,,,,,,,,,,,,283.2736,284.2736,,,,,,,,,,,,,,,,,,,,,,,,,,284.2737,284.7319,m,1,0.4536,,284.7319,284.7321,,0,111,111,61,1,62,yıldız,1775,80.649,1532,0.1675,6,harmonic,1.6,word,m,,,,,,,
,,,,2023-11-28_21h46.34.378,VH_v3,2023.2.3,Win32,143.9677512,,,,,,,,,,,,284.7322,285.7323,,,,,,,,,,,,,,,,,,,,,,,,,,285.7323,286.2462,z,1,0.5062,,286.2463,286.2463,,0,112,112,304,1,305,irak,,,,,4,notharmonic,1.55,nw,z,,,,,,,
,,,,2023-11-28_21h46.34.378,VH_v3,2023.2.3,Win32,143.9677512,,,,,,,,,,,,286.2465,287.2464,,,,,,,,,,,,,,,,,,,,,,,,,,287.2465,287.9202,z,1,0.6636,,287.9202,287.9202,,0,113,113,223,1,224,kamut,,,,,5,harmonic,1.5,nw,z,,,,,,,
,,,,2023-11-28_21h46.34.378,VH_v3,2023.2.3,Win32,143.9677512,,,,,,,,,,,,287.9204,288.9204,,,,,,,,,,,,,,,,,,,,,,,,,,288.9204,289.4689,z,1,0.5418,,289.4689,289.469,,0,114,114,273,1,274,sisaf,,,,,5,notharmonic,2,nw,z,,,,,,,
,,,,2023-11-28_21h46.34.378,VH_v3,2023.2.3,Win32,143.9677512,,,,,,,,,,,,289.4692,290.4692,,,,,,,,,,,,,,,,,,,,,,,,,,290.4692,291.0943,m,1,0.6168,,291.0944,291.0944,,0,115,115,35,1,36,hava,4975,226.0443,4398,0.4808,4,harmonic,1,word,m,,,,,,,
,,,,2023-11-28_21h46.34.378,VH_v3,2023.2.3,Win32,143.9677512,,,,,,,,,,,,291.0947,292.0945,,,,,,,,,,,,,,,,,,,,,,,,,,292.0946,292.6571,m,1,0.5556,,292.6572,292.6573,,0,116,116,168,1,169,peynir,1421,64.5646,1248,0.1364,6,harmonic,,word,m,,,,,,,
,,,,2023-11-28_21h46.34.378,VH_v3,2023.2.3,Win32,143.9677512,,,,,,,,,,,,292.6574,293.6574,,,,,,,,,,,,,,,,,,,,,,,,,,293.6574,294.2199,z,1,0.5567,,294.2199,294.22,,0,117,117,320,1,321,sivaka,,,,,6,notharmonic,2.3,nw,z,,,,,,,
,,,,2023-11-28_21h46.34.378,VH_v3,2023.2.3,Win32,143.9677512,,,,,,,,,,,,294.2201,295.2201,,,,,,,,,,,,,,,,,,,,,,,,,,295.2201,295.7318,m,1,0.5079,,295.7319,295.7319,,0,118,118,115,1,116,uygun,6757,307.0113,6297,0.6884,5,harmonic,,word,m,,,,,,,
,,,,2023-11-28_21h46.34.378,VH_v3,2023.2.3,Win32,143.9677512,,,,,,,,,,,,295.732,296.7274,,,,,,,,,,,,,,,,,,,,,,,,,,296.7274,297.283,z,1,0.546,,297.283,297.2831,,0,119,119,285,1,286,safiç,,,,,5,notharmonic,1.9,nw,z,,,,,,,
,,,,2023-11-28_21h46.34.378,VH_v3,2023.2.3,Win32,143.9677512,,,,,,,,,,,,297.2833,298.2832,,,,,,,,,,,,,,,,,,,,,,,,,,298.2832,298.9292,z,1,0.6323,,298.9292,301.1171,space,0,120,120,337,1,338,yakim,,,,,5,notharmonic,1.75,nw,z,2.1762,,,,,,
,,,,2023-11-28_21h46.34.378,VH_v3,2023.2.3,Win32,143.9677512,,,,,,,,,,,,301.1217,302.1172,,,,,,,,,,,,,,,,,,,,,,,,,,302.1172,302.5965,z,0,0.4682,,302.5965,302.5966,,0,121,121,8,1,9,güven,1433,65.1098,1300,0.1421,5,harmonic,1.35,word,m,,,,,,,
,,,,2023-11-28_21h46.34.378,VH_v3,2023.2.3,Win32,143.9677512,,,,,,,,,,,,302.5967,303.5968,,,,,,,,,,,,,,,,,,,,,,,,,,303.5968,304.1523,m,1,0.5418,,304.1524,304.1525,,0,122,122,25,1,26,rapor,703,31.9415,617,0.0675,5,harmonic,1.8,word,m,,,,,,,
,,,,2023-11-28_21h46.34.378,VH_v3,2023.2.3,Win32,143.9677512,,,,,,,,,,,,304.1527,305.1549,,,,,,,,,,,,,,,,,,,,,,,,,,305.1549,305.7081,z,1,0.5447,,305.7081,305.7082,,0,123,123,276,1,277,dapel,,,,,5,notharmonic,1.9,nw,z,,,,,,,
,,,,2023-11-28_21h46.34.378,VH_v3,2023.2.3,Win32,143.9677512,,,,,,,,,,,,305.7085,306.7083,,,,,,,,,,,,,,,,,,,,,,,,,,306.7083,307.3405,z,1,0.6212,,307.3405,307.3405,,0,124,124,356,1,357,ated,,,,,4,notharmonic,,nw,z,,,,,,,
,,,,2023-11-28_21h46.34.378,VH_v3,2023.2.3,Win32,143.9677512,,,,,,,,,,,,307.3407,308.3407,,,,,,,,,,,,,,,,,,,,,,,,,,308.3407,308.892,z,1,0.542,,308.892,308.8921,,0,125,125,331,1,332,ilcaet,,,,,6,notharmonic,2.7,nw,z,,,,,,,
,,,,2023-11-28_21h46.34.378,VH_v3,2023.2.3,Win32,143.9677512,,,,,,,,,,,,308.8923,309.8895,,,,,,,,,,,,,,,,,,,,,,,,,,309.8896,310.4549,m,0,0.556,,310.4549,310.4549,,0,126,126,350,1,351,bügun,,,,,5,notharmonic,2,nw,z,,,,,,,
,,,,2023-11-28_21h46.34.378,VH_v3,2023.2.3,Win32,143.9677512,,,,,,,,,,,,310.4551,311.4547,,,,,,,,,,,,,,,,,,,,,,,,,,311.4547,312.0079,z,1,0.5431,,312.008,312.008,,0,127,127,193,1,194,şıkta,,,,,5,harmonic,2,nw,z,,,,,,,
,,,,2023-11-28_21h46.34.378,VH_v3,2023.2.3,Win32,143.9677512,,,,,,,,,,,,312.0082,313.0081,,,,,,,,,,,,,,,,,,,,,,,,,,313.0081,313.4762,m,1,0.4588,,313.4762,313.4762,,0,128,128,130,1,131,sonuç,3768,171.203,3626,0.3964,5,harmonic,,word,m,,,,,,,
,,,,2023-11-28_21h46.34.378,VH_v3,2023.2.3,Win32,143.9677512,,,,,,,,,,,,313.4765,314.4738,,,,,,,,,,,,,,,,,,,,,,,,,,314.4738,314.9877,z,1,0.5039,,314.9877,314.9877,,0,129,129,225,1,226,sakam,,,,,5,harmonic,1.45,nw,z,,,,,,,
,,,,2023-11-28_21h46.34.378,VH_v3,2023.2.3,Win32,143.9677512,,,,,,,,,,,,314.988,315.9903,,,,,,,,,,,,,,,,,,,,,,,,,,315.9903,316.8491,m,1,0.8474,,316.8492,316.8492,,0,130,130,179,1,180,mesele,995,45.2089,929,0.1016,6,harmonic,,word,m,,,,,,,
,,,,2023-11-28_21h46.34.378,VH_v3,2023.2.3,Win32,143.9677512,,,,,,,,,,,,316.8494,317.8494,,,,,,,,,,,,,,,,,,,,,,,,,,317.8494,318.4146,z,1,0.556,,318.4146,318.4147,,0,131,131,322,1,323,galiç,,,,,5,notharmonic,1.8,nw,z,,,,,,,
,,,,2023-11-28_21h46.34.378,VH_v3,2023.2.3,Win32,143.9677512,,,,,,,,,,,,318.4148,319.4121,,,,,,,,,,,,,,,,,,,,,,,,,,319.4121,319.9261,m,1,0.5015,,319.9261,319.9262,,0,132,132,42,1,43,ürün,2268,103.0489,1954,0.2136,4,harmonic,1.1,word,m,,,,,,,
,,,,2023-11-28_21h46.34.378,VH_v3,2023.2.3,Win32,143.9677512,,,,,,,,,,,,319.9263,320.9217,,,,,,,,,,,,,,,,,,,,,,,,,,320.9217,321.461,z,1,0.5301,,321.461,321.4611,,0,133,133,262,1,263,ürze,,,,,4,harmonic,1.95,nw,z,,,,,,,
,,,,2023-11-28_21h46.34.378,VH_v3,2023.2.3,Win32,143.9677512,,,,,,,,,,,,321.4613,322.4613,,,,,,,,,,,,,,,,,,,,,,,,,,322.4613,322.9614,z,1,0.4861,,322.9615,322.9615,,0,134,134,348,1,349,minsar,,,,,6,notharmonic,2,nw,z,,,,,,,
,,,,2023-11-28_21h46.34.378,VH_v3,2023.2.3,Win32,143.9677512,,,,,,,,,,,,322.9616,323.9614,,,,,,,,,,,,,,,,,,,,,,,,,,323.9614,324.5589,z,1,0.5851,,324.5589,324.559,,0,135,135,197,1,198,şortal,,,,,6,harmonic,1.95,nw,z,,,,,,,
,,,,2023-11-28_21h46.34.378,VH_v3,2023.2.3,Win32,143.9677512,,,,,,,,,,,,324.5592,325.5545,,,,,,,,,,,,,,,,,,,,,,,,,,325.5545,326.1173,m,1,0.5559,,326.1174,326.1174,,0,136,136,62,1,63,cümle,1911,86.8283,1765,0.193,5,harmonic,1.85,word,m,,,,,,,
,,,,2023-11-28_21h46.34.378,VH_v3,2023.2.3,Win32,143.9677512,,,,,,,,,,,,326.1176,327.1149,,,,,,,,,,,,,,,,,,,,,,,,,,327.115,327.5897,m,1,0.4655,,327.5897,327.5898,,0,137,137,157,1,158,eğitim,4784,217.366,3846,0.4204,6,harmonic,,word,m,,,,,,,
,,,,2023-11-28_21h46.34.378,VH_v3,2023.2.3,Win32,143.9677512,,,,,,,,,,,,327.59,328.5875,,,,,,,,,,,,,,,,,,,,,,,,,,328.5875,329.0944,m,1,0.4919,,329.0945,329.0946,,0,138,138,29,1,30,huzur,1911,86.8283,1799,0.1967,5,harmonic,1.8,word,m,,,,,,,
,,,,2023-11-28_21h46.34.378,VH_v3,2023.2.3,Win32,143.9677512,,,,,,,,,,,,329.0947,330.097,,,,,,,,,,,,,,,,,,,,,,,,,,330.097,330.685,m,1,0.5787,,330.685,330.685,,0,139,139,40,1,41,tepki,1695,77.0141,1578,0.1725,5,harmonic,1.55,word,m,,,,,,,
,,,,2023-11-28_21h46.34.378,VH_v3,2023.2.3,Win32,143.9677512,,,,,,,,,,,,330.6852,331.6853,,,,,,,,,,,,,,,,,,,,,,,,,,331.6853,332.22,m,1,0.5243,,332.2201,332.2201,,0,140,140,175,1,176,gündüz,1167,53.0239,1088,0.1189,6,harmonic,,word,m,,,,,,,
,,,,2023-11-28_21h46.34.378,VH_v3,2023.2.3,Win32,143.9677512,,,,,,,,,,,,332.2203,333.2155,,,,,,,,,,,,,,,,,,,,,,,,,,333.2156,333.7966,z,1,0.5722,,333.7966,333.7967,,0,141,141,307,1,308,masil,,,,,5,notharmonic,1.65,nw,z,,,,,,,
,,,,2023-11-28_21h46.34.378,VH_v3,2023.2.3,Win32,143.9677512,,,,,,,,,,,,333.7968,334.7969,,,,,,,,,,,,,,,,,,,,,,,,,,334.797,335.3621,z,1,0.5557,,335.3621,335.3622,,0,142,142,181,1,182,erben,,,,,5,harmonic,1.8,nw,z,,,,,,,
,,,,2023-11-28_21h46.34.378,VH_v3,2023.2.3,Win32,143.9677512,,,,,,,,,,,,335.3624,336.3596,,,,,,,,,,,,,,,,,,,,,,,,,,336.3596,336.9432,m,1,0.5697,,336.9432,336.9433,,0,143,143,19,1,20,ödül,1063,48.2985,926,0.1012,4,harmonic,1.7,word,m,,,,,,,
,,,,2023-11-28_21h46.34.378,VH_v3,2023.2.3,Win32,143.9677512,,,,,,,,,,,,336.9434,337.9433,,,,,,,,,,,,,,,,,,,,,,,,,,337.9433,338.4156,m,1,0.4584,,338.4157,338.4157,,0,144,144,172,1,173,halka,1196,54.3415,1014,0.1109,6,harmonic,,word,m,,,,,,,
,,,,2023-11-28_21h46.34.378,VH_v3,2023.2.3,Win32,143.9677512,,,,,,,,,,,,338.4158,339.4159,,,,,,,,,,,,,,,,,,,,,,,,,,339.4159,340.0756,m,1,0.6495,,340.0757,340.0758,,0,145,145,164,1,165,toprak,1989,90.3723,1762,0.1926,6,harmonic,,word,m,,,,,,,
,,,,2023-11-28_21h46.34.378,VH_v3,2023.2.3,Win32,143.9677512,,,,,,,,,,,,340.0759,341.0759,,,,,,,,,,,,,,,,,,,,,,,,,,341.0759,341.9023,z,1,0.8134,,341.9024,341.9024,,0,146,146,358,1,359,ksalik,,,,,6,notharmonic,,nw,z,,,,,,,
,,,,2023-11-28_21h46.34.378,VH_v3,2023.2.3,Win32,143.9677512,,,,,,,,,,,,341.9026,342.9025,,,,,,,,,,,,,,,,,,,,,,,,,,342.9025,343.5511,m,1,0.6391,,343.5512,343.5512,,0,147,147,92,1,93,büyük,32406,1472.4001,28224,3.0855,5,harmonic,,word,m,,,,,,,
,,,,2023-11-28_21h46.34.378,VH_v3,2023.2.3,Win32,143.9677512,,,,,,,,,,,,343.5514,344.5487,,,,,,,,,,,,,,,,,,,,,,,,,,344.5487,345.0557,z,1,0.4934,,345.0557,345.0557,,0,148,148,278,1,279,camet,,,,,5,notharmonic,1.8,nw,z,,,,,,,
,,,,2023-11-28_21h46.34.378,VH_v3,2023.2.3,Win32,143.9677512,,,,,,,,,,,,345.056,346.0559,,,,,,,,,,,,,,,,,,,,,,,,,,346.0559,347.3714,z,1,1.3057,,347.3715,347.3715,,0,149,149,315,1,316,çarki,,,,,5,notharmonic,1.85,nw,z,,,,,,,
,,,,2023-11-28_21h46.34.378,VH_v3,2023.2.3,Win32,143.9677512,,,,,,,,,,,,347.3717,348.3688,,,,,,,,,,,,,,,,,,,,,,,,,,348.3688,348.8853,m,1,0.5051,,348.8853,348.8854,,0,150,150,74,1,75,başarı,1398,63.5196,1300,0.1421,6,harmonic,1.2,word,m,,,,,,,
,,,,2023-11-28_21h46.34.378,VH_v3,2023.2.3,Win32,143.9677512,,,,,,,,,,,,348.8856,349.8831,,,,,,,,,,,,,,,,,,,,,,,,,,349.8831,350.383,m,1,0.4876,,350.383,350.3831,,0,151,151,65,1,66,fikir,2552,115.9528,2413,0.2638,5,harmonic,1.9,word,m,,,,,,,
,,,,2023-11-28_21h46.34.378,VH_v3,2023.2.3,Win32,143.9677512,,,,,,,,,,,,350.3833,351.3834,,,,,,,,,,,,,,,,,,,,,,,,,,351.3834,351.9806,m,0,0.5859,,351.9806,351.9806,,0,152,152,277,1,278,melbut,,,,,6,notharmonic,1.95,nw,z,,,,,,,
,,,,2023-11-28_21h46.34.378,VH_v3,2023.2.3,Win32,143.9677512,,,,,,,,,,,,351.9808,352.9808,,,,,,,,,,,,,,,,,,,,,,,,,,352.9809,353.7032,m,1,0.7086,,353.7033,353.7033,,0,153,153,4,1,5,metre,1156,52.5241,1015,0.111,5,harmonic,1.7,word,m,,,,,,,
,,,,2023-11-28_21h46.34.378,VH_v3,2023.2.3,Win32,143.9677512,,,,,,,,,,,,353.7034,354.7057,,,,,,,,,,,,,,,,,,,,,,,,,,354.7057,355.2452,z,1,0.5281,,355.2452,355.2452,,0,154,154,247,1,248,fonta,,,,,5,harmonic,1.75,nw,z,,,,,,,
,,,,2023-11-28_21h46.34.378,VH_v3,2023.2.3,Win32,143.9677512,,,,,,,,,,,,355.2454,356.2409,,,,,,,,,,,,,,,,,,,,,,,,,,356.241,356.8148,m,1,0.5631,,356.8149,356.8149,,0,155,155,9,1,10,karar,8108,368.3954,7436,0.8129,5,harmonic,1.6,word,m,,,,,,,
,,,,2023-11-28_21h46.34.378,VH_v3,2023.2.3,Win32,143.9677512,,,,,,,,,,,,356.8151,357.815,,,,,,,,,,,,,,,,,,,,,,,,,,357.8151,358.3151,m,1,0.4904,,358.3151,358.3151,,0,156,156,76,1,77,ilişki,1675,76.1054,1524,0.1666,6,harmonic,1.8,word,m,,,,,,,
,,,,2023-11-28_21h46.34.378,VH_v3,2023.2.3,Win32,143.9677512,,,,,,,,,,,,358.3153,359.3154,,,,,,,,,,,,,,,,,,,,,,,,,,359.3154,359.7762,m,1,0.4514,,359.7762,359.7764,,0,157,157,36,1,37,meslek,1082,49.1618,976,0.1067,6,harmonic,1.9,word,m,,,,,,,
,,,,2023-11-28_21h46.34.378,VH_v3,2023.2.3,Win32,143.9677512,,,,,,,,,,,,359.7765,360.7764,,,,,,,,,,,,,,,,,,,,,,,,,,360.7764,361.1212,m,1,0.3345,,361.1212,361.1213,,0,158,158,78,1,79,ulusal,1551,70.4713,1355,0.1481,6,harmonic,1.75,word,m,,,,,,,
,,,,2023-11-28_21h46.34.378,VH_v3,2023.2.3,Win32,143.9677512,,,,,,,,,,,,361.1216,362.1214,,,,,,,,,,,,,,,,,,,,,,,,,,362.1214,362.7188,m,1,0.5839,,362.7188,362.7188,,0,159,159,24,1,25,yorgun,1153,52.3877,1108,0.1211,6,harmonic,1.55,word,m,,,,,,,
,,,,2023-11-28_21h46.34.378,VH_v3,2023.2.3,Win32,143.9677512,,,,,,,,,,,,362.7191,363.719,,,,,,,,,,,,,,,,,,,,,,,,,,363.7191,364.2606,m,1,0.5304,,364.2607,364.2607,,0,160,160,15,1,16,hayat,7922,359.9443,7314,0.7996,5,harmonic,1.9,word,m,,,,,,,
,,,,2023-11-28_21h46.34.378,VH_v3,2023.2.3,Win32,143.9677512,,,,,,,,,,,,364.2609,365.2609,,,,,,,,,,,,,,,,,,,,,,,,,,365.2609,365.7054,m,0,0.4287,,365.7055,365.7055,,0,161,161,232,1,233,çemek,,,,,5,harmonic,1.5,nw,z,,,,,,,
,,,,2023-11-28_21h46.34.378,VH_v3,2023.2.3,Win32,143.9677512,,,,,,,,,,,,365.7056,366.7056,,,,,,,,,,,,,,,,,,,,,,,,,,366.7056,367.1708,m,1,0.4558,,367.1709,367.1709,,0,162,162,84,1,85,ülke,3121,141.8059,2801,0.3062,4,harmonic,1.65,word,m,,,,,,,
,,,,2023-11-28_21h46.34.378,VH_v3,2023.2.3,Win32,143.9677512,,,,,,,,,,,,367.1711,368.171,,,,,,,,,,,,,,,,,,,,,,,,,,368.171,368.7477,m,0,0.5663,,368.7477,368.7477,,0,163,163,282,1,283,edap,,,,,4,notharmonic,1.7,nw,z,,,,,,,
,,,,2023-11-28_21h46.34.378,VH_v3,2023.2.3,Win32,143.9677512,,,,,,,,,,,,368.7479,369.7479,,,,,,,,,,,,,,,,,,,,,,,,,,369.7479,370.3315,m,1,0.5743,,370.3316,370.3316,,0,164,164,16,1,17,yavaş,5087,231.1331,2886,0.3155,5,harmonic,1.6,word,m,,,,,,,
,,,,2023-11-28_21h46.34.378,VH_v3,2023.2.3,Win32,143.9677512,,,,,,,,,,,,370.3318,371.3314,,,,,,,,,,,,,,,,,,,,,,,,,,371.3314,371.9149,z,1,0.5739,,371.9149,371.9149,,0,165,165,240,1,241,şünle,,,,,5,harmonic,1.9,nw,z,,,,,,,
,,,,2023-11-28_21h46.34.378,VH_v3,2023.2.3,Win32,143.9677512,,,,,,,,,,,,371.9152,372.915,,,,,,,,,,,,,,,,,,,,,,,,,,372.915,373.5082,m,1,0.5836,,373.5082,373.5082,,0,166,166,142,1,143,aşık,2464,111.9544,2129,0.2327,4,harmonic,,word,m,,,,,,,
,,,,2023-11-28_21h46.34.378,VH_v3,2023.2.3,Win32,143.9677512,,,,,,,,,,,,373.5084,374.5056,,,,,,,,,,,,,,,,,,,,,,,,,,374.5057,375.1724,z,0,0.6555,,375.1724,375.1725,,0,167,167,46,1,47,takım,4370,198.5555,3726,0.4073,5,harmonic,1.7,word,m,,,,,,,
,,,,2023-11-28_21h46.34.378,VH_v3,2023.2.3,Win32,143.9677512,,,,,,,,,,,,375.1726,376.1725,,,,,,,,,,,,,,,,,,,,,,,,,,376.1725,376.6728,m,1,0.4863,,376.6728,376.6728,,0,168,168,96,1,97,mutlu,11447,520.1063,10279,1.1237,5,harmonic,,word,m,,,,,,,
,,,,2023-11-28_21h46.34.378,VH_v3,2023.2.3,Win32,143.9677512,,,,,,,,,,,,376.673,377.6729,,,,,,,,,,,,,,,,,,,,,,,,,,377.6729,378.1799,m,1,0.4964,,378.18,378.18,,0,169,169,136,1,137,süper,3256,147.9397,2989,0.3268,5,harmonic,,word,m,,,,,,,
,,,,2023-11-28_21h46.34.378,VH_v3,2023.2.3,Win32,143.9677512,,,,,,,,,,,,378.1801,379.1802,,,,,,,,,,,,,,,,,,,,,,,,,,379.1802,379.8678,z,1,0.6772,,379.8678,379.8678,,0,170,170,318,1,319,sapel,,,,,5,notharmonic,1.9,nw,z,,,,,,,
,,,,2023-11-28_21h46.34.378,VH_v3,2023.2.3,Win32,143.9677512,,,,,,,,,,,,379.868,380.868,,,,,,,,,,,,,,,,,,,,,,,,,,380.868,381.5694,z,1,0.6891,,381.5694,381.5694,,0,171,171,251,1,252,bellet,,,,,6,harmonic,1.8,nw,z,,,,,,,
,,,,2023-11-28_21h46.34.378,VH_v3,2023.2.3,Win32,143.9677512,,,,,,,,,,,,381.5695,382.5651,,,,,,,,,,,,,,,,,,,,,,,,,,382.5652,383.1278,z,1,0.5559,,383.1278,383.1279,,0,172,172,201,1,202,azlaş,,,,,5,harmonic,1.8,nw,z,,,,,,,
,,,,2023-11-28_21h46.34.378,VH_v3,2023.2.3,Win32,143.9677512,,,,,,,,,,,,383.1281,384.1254,,,,,,,,,,,,,,,,,,,,,,,,,,384.1254,384.7227,z,1,0.5879,,384.7227,384.7228,,0,173,173,352,1,353,yarema,,,,,6,notharmonic,1.95,nw,z,,,,,,,
,,,,2023-11-28_21h46.34.378,VH_v3,2023.2.3,Win32,143.9677512,,,,,,,,,,,,384.7229,385.723,,,,,,,,,,,,,,,,,,,,,,,,,,385.723,386.2993,m,1,0.5662,,386.2993,386.2994,,0,174,174,139,1,140,okul,2685,121.9958,2381,0.2603,4,harmonic,,word,m,,,,,,,
,,,,2023-11-28_21h46.34.378,VH_v3,2023.2.3,Win32,143.9677512,,,,,,,,,,,,386.2997,387.2996,,,,,,,,,,,,,,,,,,,,,,,,,,387.2996,387.9179,z,1,0.6057,,387.9179,387.918,,0,175,175,256,1,257,ulosız,,,,,6,harmonic,3,nw,z,,,,,,,
,,,,2023-11-28_21h46.34.378,VH_v3,2023.2.3,Win32,143.9677512,,,,,,,,,,,,387.9182,388.9204,,,,,,,,,,,,,,,,,,,,,,,,,,388.9204,389.4694,z,1,0.5421,,389.4694,389.4696,,0,176,176,333,1,334,uleç,,,,,4,notharmonic,1.95,nw,z,,,,,,,
,,,,2023-11-28_21h46.34.378,VH_v3,2023.2.3,Win32,143.9677512,,,,,,,,,,,,389.4697,390.4693,,,,,,,,,,,,,,,,,,,,,,,,,,390.4693,391.0156,z,1,0.5348,,391.0157,391.0157,,0,177,177,281,1,282,ikva,,,,,4,notharmonic,1.85,nw,z,,,,,,,
,,,,2023-11-28_21h46.34.378,VH_v3,2023.2.3,Win32,143.9677512,,,,,,,,,,,,391.0159,392.0184,,,,,,,,,,,,,,,,,,,,,,,,,,392.0184,392.6826,z,1,0.6574,,392.6827,392.6827,,0,178,178,254,1,255,ileşçe,,,,,6,harmonic,2.65,nw,z,,,,,,,
,,,,2023-11-28_21h46.34.378,VH_v3,2023.2.3,Win32,143.9677512,,,,,,,,,,,,392.6829,393.6785,,,,,,,,,,,,,,,,,,,,,,,,,,393.6785,394.2247,m,1,0.5349,,394.2247,394.2247,,0,179,179,72,1,73,çorba,1674,76.0599,1513,0.1654,5,harmonic,1.75,word,m,,,,,,,
,,,,2023-11-28_21h46.34.378,VH_v3,2023.2.3,Win32,143.9677512,,,,,,,,,,,,394.2249,395.2248,,,,,,,,,,,,,,,,,,,,,,,,,,395.2248,395.7179,m,1,0.4812,,395.7179,395.718,,0,180,180,94,1,95,bütün,18630,846.4733,16711,1.8269,5,harmonic,,word,m,,,,,,,
,,,,2023-11-28_21h46.34.378,VH_v3,2023.2.3,Win32,143.9677512,,,,,,,,,,,,395.7181,396.7205,,,,,,,,,,,,,,,,,,,,,,,,,,396.7205,397.3528,z,1,0.6253,,397.3528,397.3528,,0,181,181,238,1,239,bodu,,,,,4,harmonic,1.85,nw,z,,,,,,,
,,,,2023-11-28_21h46.34.378,VH_v3,2023.2.3,Win32,143.9677512,,,,,,,,,,,,397.3529,398.3519,,,,,,,,,,,,,,,,,,,,,,,,,,398.352,398.9129,z,1,0.5489,,398.9129,398.913,,0,182,182,212,1,213,toya,,,,,4,harmonic,1.6,nw,z,,,,,,,
,,,,2023-11-28_21h46.34.378,VH_v3,2023.2.3,Win32,143.9677512,,,,,,,,,,,,398.9132,399.9085,,,,,,,,,,,,,,,,,,,,,,,,,,399.9085,400.4505,z,1,0.5349,,400.4505,400.4505,,0,183,183,199,1,200,repes,,,,,5,harmonic,2,nw,z,,,,,,,
,,,,2023-11-28_21h46.34.378,VH_v3,2023.2.3,Win32,143.9677512,,,,,,,,,,,,400.4507,401.4482,,,,,,,,,,,,,,,,,,,,,,,,,,401.4482,401.9968,m,1,0.5373,,401.9968,401.9968,,0,184,184,68,1,69,ücret,734,33.35,634,0.0693,5,harmonic,1.85,word,m,,,,,,,
,,,,2023-11-28_21h46.34.378,VH_v3,2023.2.3,Win32,143.9677512,,,,,,,,,,,,401.9971,402.9969,,,,,,,,,,,,,,,,,,,,,,,,,,402.997,403.6292,m,1,0.6189,,403.6292,403.6292,,0,185,185,169,1,170,düzgün,1384,62.8835,1310,0.1432,6,harmonic,,word,m,,,,,,,
,,,,2023-11-28_21h46.34.378,VH_v3,2023.2.3,Win32,143.9677512,,,,,,,,,,,,403.6294,404.6294,,,,,,,,,,,,,,,,,,,,,,,,,,404.6294,405.2127,m,1,0.5718,,405.2128,405.2128,,0,186,186,83,1,84,küçük,14048,638.2854,12467,1.3629,5,harmonic,1.75,word,m,,,,,,,
,,,,2023-11-28_21h46.34.378,VH_v3,2023.2.3,Win32,143.9677512,,,,,,,,,,,,405.2129,406.2128,,,,,,,,,,,,,,,,,,,,,,,,,,406.2128,406.8587,m,1,0.6364,,406.8588,406.8588,,0,187,187,26,1,27,sebze,1094,49.707,961,0.1051,5,harmonic,1.9,word,m,,,,,,,
,,,,2023-11-28_21h46.34.378,VH_v3,2023.2.3,Win32,143.9677512,,,,,,,,,,,,406.859,407.8589,,,,,,,,,,,,,,,,,,,,,,,,,,407.859,408.3341,m,1,0.4657,,408.3341,408.3341,,0,188,188,52,1,53,resim,2506,113.8627,2188,0.2392,5,harmonic,1.4,word,m,,,,,,,
,,,,2023-11-28_21h46.34.378,VH_v3,2023.2.3,Win32,143.9677512,,,,,,,,,,,,408.3343,409.3315,,,,,,,,,,,,,,,,,,,,,,,,,,409.3315,410.0469,z,1,0.7015,,410.0469,410.0471,,0,189,189,259,1,260,üreyeş,,,,,6,harmonic,2.9,nw,z,,,,,,,
,,,,2023-11-28_21h46.34.378,VH_v3,2023.2.3,Win32,143.9677512,,,,,,,,,,,,410.0472,411.0472,,,,,,,,,,,,,,,,,,,,,,,,,,411.0472,411.7094,z,1,0.6529,,411.7095,411.7096,,0,190,190,293,1,294,mosil,,,,,5,notharmonic,1.85,nw,z,,,,,,,
,,,,2023-11-28_21h46.34.378,VH_v3,2023.2.3,Win32,143.9677512,,,,,,,,,,,,411.7097,412.707,,,,,,,,,,,,,,,,,,,,,,,,,,412.707,413.3765,m,1,0.6599,,413.3765,413.3765,,0,191,191,17,1,18,yakın,7990,363.0339,7595,0.8303,5,harmonic,1.8,word,m,,,,,,,
,,,,2023-11-28_21h46.34.378,VH_v3,2023.2.3,Win32,143.9677512,,,,,,,,,,,,413.3767,414.374,,,,,,,,,,,,,,,,,,,,,,,,,,414.374,415.8605,m,0,1.4753,,415.8605,415.8606,,0,192,192,332,1,333,makik,,,,,5,notharmonic,1.6,nw,z,,,,,,,
,,,,2023-11-28_21h46.34.378,VH_v3,2023.2.3,Win32,143.9677512,,,,,,,,,,,,415.8607,416.8561,,,,,,,,,,,,,,,,,,,,,,,,,,416.8561,417.6204,m,0,0.7571,,417.6204,417.6204,,0,193,193,299,1,300,kurüs,,,,,5,notharmonic,1.95,nw,z,,,,,,,
,,,,2023-11-28_21h46.34.378,VH_v3,2023.2.3,Win32,143.9677512,,,,,,,,,,,,417.6206,418.618,,,,,,,,,,,,,,,,,,,,,,,,,,418.6181,419.3986,m,1,0.7714,,419.3987,419.3987,,0,194,194,32,1,33,temel,4231,192.2399,3851,0.421,5,harmonic,1.55,word,m,,,,,,,
,,,,2023-11-28_21h46.34.378,VH_v3,2023.2.3,Win32,143.9677512,,,,,,,,,,,,419.3989,420.396,,,,,,,,,,,,,,,,,,,,,,,,,,420.396,421.0838,m,1,0.6752,,421.0838,421.0838,,0,195,195,102,1,103,kaşık,1355,61.5658,1177,0.1287,5,harmonic,,word,m,,,,,,,
,,,,2023-11-28_21h46.34.378,VH_v3,2023.2.3,Win32,143.9677512,,,,,,,,,,,,421.084,422.0839,,,,,,,,,,,,,,,,,,,,,,,,,,422.0839,422.7507,z,1,0.6536,,422.7507,422.7507,,0,196,196,220,1,221,lingin,,,,,6,harmonic,1.85,nw,z,,,,,,,
,,,,2023-11-28_21h46.34.378,VH_v3,2023.2.3,Win32,143.9677512,,,,,,,,,,,,422.751,423.7462,,,,,,,,,,,,,,,,,,,,,,,,,,423.7463,424.6147,z,1,0.8614,,424.6148,424.6148,,0,197,197,300,1,301,iştal,,,,,5,notharmonic,1.8,nw,z,,,,,,,
,,,,2023-11-28_21h46.34.378,VH_v3,2023.2.3,Win32,143.9677512,,,,,,,,,,,,424.615,425.6123,,,,,,,,,,,,,,,,,,,,,,,,,,425.6123,426.2165,m,1,0.5903,,426.2165,426.2166,,0,198,198,28,1,29,parlak,1142,51.888,1088,0.1189,6,harmonic,1.7,word,m,,,,,,,
,,,,2023-11-28_21h46.34.378,VH_v3,2023.2.3,Win32,143.9677512,,,,,,,,,,,,426.2167,427.2168,,,,,,,,,,,,,,,,,,,,,,,,,,427.2168,427.8907,z,1,0.6644,,427.8907,427.8907,,0,199,199,260,1,261,abaf,,,,,4,harmonic,1.85,nw,z,,,,,,,
,,,,2023-11-28_21h46.34.378,VH_v3,2023.2.3,Win32,143.9677512,,,,,,,,,,,,427.891,428.8863,,,,,,,,,,,,,,,,,,,,,,,,,,428.8863,429.6617,m,1,0.7655,,429.6617,429.6618,,0,200,200,141,1,142,kuru,2669,121.2688,2372,0.2593,4,harmonic,,word,m,,,,,,,
,,,,2023-11-28_21h46.34.378,VH_v3,2023.2.3,Win32,143.9677512,,,,,,,,,,,,429.662,430.6618,,,,,,,,,,,,,,,,,,,,,,,,,,430.6618,431.3078,m,1,0.6351,,431.3078,431.3078,,0,201,201,161,1,162,servis,3344,151.9381,2968,0.3245,6,harmonic,,word,m,,,,,,,
,,,,2023-11-28_21h46.34.378,VH_v3,2023.2.3,Win32,143.9677512,,,,,,,,,,,,431.308,432.3034,,,,,,,,,,,,,,,,,,,,,,,,,,432.3034,432.9748,m,1,0.6609,,432.9748,432.9748,,0,202,202,37,1,38,hayvan,2363,107.3653,1894,0.2071,6,harmonic,1.5,word,m,,,,,,,
,,,,2023-11-28_21h46.34.378,VH_v3,2023.2.3,Win32,143.9677512,,,,,,,,,,,,432.975,433.9751,,,,,,,,,,,,,,,,,,,,,,,,,,433.9752,434.6625,z,1,0.6751,,434.6625,434.6626,,0,203,203,308,1,309,tasnin,,,,,6,notharmonic,1.85,nw,z,,,,,,,
,,,,2023-11-28_21h46.34.378,VH_v3,2023.2.3,Win32,143.9677512,,,,,,,,,,,,434.6628,435.6628,,,,,,,,,,,,,,,,,,,,,,,,,,435.6628,436.2532,m,1,0.5788,,436.2532,436.2532,,0,204,204,101,1,102,kabul,10003,454.4967,9014,0.9854,5,harmonic,,word,m,,,,,,,
,,,,2023-11-28_21h46.34.378,VH_v3,2023.2.3,Win32,143.9677512,,,,,,,,,,,,436.2534,437.2534,,,,,,,,,,,,,,,,,,,,,,,,,,437.2534,438.0035,z,1,0.7398,,438.0036,438.0036,,0,205,205,192,1,193,kusu,,,,,4,harmonic,1.5,nw,z,,,,,,,
,,,,2023-11-28_21h46.34.378,VH_v3,2023.2.3,Win32,143.9677512,,,,,,,,,,,,438.0038,439.0037,,,,,,,,,,,,,,,,,,,,,,,,,,439.0037,439.8997,z,1,0.8856,,439.8997,439.8997,,0,206,206,252,1,253,savanı,,,,,6,harmonic,1.85,nw,z,,,,,,,
,,,,2023-11-28_21h46.34.378,VH_v3,2023.2.3,Win32,143.9677512,,,,,,,,,,,,439.8998,440.8952,,,,,,,,,,,,,,,,,,,,,,,,,,440.8952,442.0251,m,1,1.1183,,442.0251,442.0251,,0,207,207,106,1,107,sağlık,8866,402.8359,8289,0.9062,5,harmonic,,word,m,,,,,,,
,,,,2023-11-28_21h46.34.378,VH_v3,2023.2.3,Win32,143.9677512,,,,,,,,,,,,442.0253,443.0253,,,,,,,,,,,,,,,,,,,,,,,,,,443.0253,443.7219,z,1,0.685,,443.722,443.722,,0,208,208,243,1,244,şiker,,,,,5,harmonic,1.85,nw,z,,,,,,,
,,,,2023-11-28_21h46.34.378,VH_v3,2023.2.3,Win32,143.9677512,,,,,,,,,,,,443.7221,444.7199,,,,,,,,,,,,,,,,,,,,,,,,,,444.72,445.3174,m,1,0.5853,,445.3174,445.3174,,0,209,209,80,1,81,merkez,1445,65.6551,1255,0.1372,6,harmonic,1.8,word,m,,,,,,,
,,,,2023-11-28_21h46.34.378,VH_v3,2023.2.3,Win32,143.9677512,,,,,,,,,,,,445.3176,446.3175,,,,,,,,,,,,,,,,,,,,,,,,,,446.3176,446.9149,z,1,0.5878,,446.9149,446.915,,0,210,210,326,1,327,melaş,,,,,5,notharmonic,1.8,nw,z,,,,,,,
,,,,2023-11-28_21h46.34.378,VH_v3,2023.2.3,Win32,143.9677512,,,,,,,,,,,,446.9151,447.9151,,,,,,,,,,,,,,,,,,,,,,,,,,447.9151,448.5776,z,1,0.6532,,448.5777,448.5778,,0,211,211,327,1,328,zena,,,,,4,notharmonic,1.65,nw,z,,,,,,,
,,,,2023-11-28_21h46.34.378,VH_v3,2023.2.3,Win32,143.9677512,,,,,,,,,,,,448.5779,449.5751,,,,,,,,,,,,,,,,,,,,,,,,,,449.5751,450.1472,m,1,0.5627,,450.1472,450.1472,,0,212,212,33,1,34,moda,1381,62.7472,1231,0.1346,4,harmonic,1.55,word,m,,,,,,,
,,,,2023-11-28_21h46.34.378,VH_v3,2023.2.3,Win32,143.9677512,,,,,,,,,,,,450.1474,451.1448,,,,,,,,,,,,,,,,,,,,,,,,,,451.1448,451.6172,m,1,0.4585,,451.6173,451.6173,,0,213,213,176,1,177,tebrik,1117,50.7521,1102,0.1205,6,harmonic,,word,m,,,,,,,
,,,,2023-11-28_21h46.34.378,VH_v3,2023.2.3,Win32,143.9677512,,,,,,,,,,,,451.6174,452.6172,,,,,,,,,,,,,,,,,,,,,,,,,,452.6173,453.2008,m,1,0.5695,,453.2008,453.2008,,0,214,214,12,1,13,konu,5400,245.3546,5110,0.5586,4,harmonic,1,word,m,,,,,,,
,,,,2023-11-28_21h46.34.378,VH_v3,2023.2.3,Win32,143.9677512,,,,,,,,,,,,453.201,454.2035,,,,,,,,,,,,,,,,,,,,,,,,,,454.2036,454.8469,z,1,0.6322,,454.8469,454.847,,0,215,215,241,1,242,sılman,,,,,6,harmonic,2,nw,z,,,,,,,
,,,,2023-11-28_21h46.34.378,VH_v3,2023.2.3,Win32,143.9677512,,,,,,,,,,,,454.8471,455.847,,,,,,,,,,,,,,,,,,,,,,,,,,455.847,456.4514,z,0,0.5942,,456.4514,456.4514,,0,216,216,131,1,132,derin,3689,167.6135,3328,0.3638,5,harmonic,,word,m,,,,,,,
,,,,2023-11-28_21h46.34.378,VH_v3,2023.2.3,Win32,143.9677512,,,,,,,,,,,,456.4516,457.4515,,,,,,,,,,,,,,,,,,,,,,,,,,457.4516,457.9586,m,1,0.4939,,457.9587,457.9587,,0,217,217,45,1,46,bilgi,5981,271.7529,5353,0.5852,5,harmonic,1.5,word,m,,,,,,,
,,,,2023-11-28_21h46.34.378,VH_v3,2023.2.3,Win32,143.9677512,,,,,,,,,,,,457.9588,458.9589,,,,,,,,,,,,,,,,,,,,,,,,,,458.9589,459.635,z,1,0.6649,,459.635,459.6351,,0,218,218,319,1,320,mafke,,,,,5,notharmonic,1.9,nw,z,,,,,,,
,,,,2023-11-28_21h46.34.378,VH_v3,2023.2.3,Win32,143.9677512,,,,,,,,,,,,459.6354,460.6327,,,,,,,,,,,,,,,,,,,,,,,,,,460.6327,461.2648,m,1,0.6182,,461.2649,461.2649,,0,219,219,149,1,150,ince,4045,183.7888,3429,0.3749,4,harmonic,,word,m,,,,,,,
,,,,2023-11-28_21h46.34.378,VH_v3,2023.2.3,Win32,143.9677512,,,,,,,,,,,,461.265,462.2604,,,,,,,,,,,,,,,,,,,,,,,,,,462.2604,462.9135,m,1,0.6461,,462.9135,462.9135,,0,220,220,132,1,133,soğuk,3676,167.0229,3359,0.3672,5,harmonic,,word,m,,,,,,,
,,,,2023-11-28_21h46.34.378,VH_v3,2023.2.3,Win32,143.9677512,,,,,,,,,,,,462.9137,463.9111,,,,,,,,,,,,,,,,,,,,,,,,,,463.9111,464.5641,z,1,0.6421,,464.5641,464.5641,,0,221,221,180,1,181,manıt,,,,,5,harmonic,1.75,nw,z,,,,,,,
,,,,2023-11-28_21h46.34.378,VH_v3,2023.2.3,Win32,143.9677512,,,,,,,,,,,,464.5644,465.5642,,,,,,,,,,,,,,,,,,,,,,,,,,465.5642,466.2241,m,1,0.6461,,466.2241,466.2241,,0,222,222,22,1,23,anlam,1730,78.6043,1617,0.1768,5,harmonic,1.25,word,m,,,,,,,
,,,,2023-11-28_21h46.34.378,VH_v3,2023.2.3,Win32,143.9677512,,,,,,,,,,,,466.2243,467.2242,,,,,,,,,,,,,,,,,,,,,,,,,,467.2242,467.7728,m,1,0.5354,,467.7729,467.7729,,0,223,223,160,1,161,günlük,3421,155.4367,3201,0.3499,6,harmonic,,word,m,,,,,,,
,,,,2023-11-28_21h46.34.378,VH_v3,2023.2.3,Win32,143.9677512,,,,,,,,,,,,467.7731,468.7732,,,,,,,,,,,,,,,,,,,,,,,,,,468.7732,469.243,m,1,0.4605,,469.243,469.2431,,0,224,224,14,1,15,yaşam,4348,197.5559,3918,0.4283,5,harmonic,1.4,word,m,,,,,,,
,,,,2023-11-28_21h46.34.378,VH_v3,2023.2.3,Win32,143.9677512,,,,,,,,,,,,469.2433,470.2387,,,,,,,,,,,,,,,,,,,,,,,,,,470.2387,470.8847,m,1,0.6347,,470.8847,470.8847,,0,225,225,56,1,57,sağlam,1818,82.6027,1720,0.188,6,harmonic,1.6,word,m,,,,,,,
,,,,2023-11-28_21h46.34.378,VH_v3,2023.2.3,Win32,143.9677512,,,,,,,,,,,,470.885,471.8848,,,,,,,,,,,,,,,,,,,,,,,,,,471.8849,472.371,m,1,0.4765,,472.371,472.371,,0,226,226,21,1,22,duygu,1877,85.2834,1760,0.1924,5,harmonic,1.8,word,m,,,,,,,
,,,,2023-11-28_21h46.34.378,VH_v3,2023.2.3,Win32,143.9677512,,,,,,,,,,,,472.3713,473.3712,,,,,,,,,,,,,,,,,,,,,,,,,,473.3713,473.8366,m,1,0.454,,473.8366,473.8366,,0,227,227,155,1,156,devlet,5766,261.9842,4854,0.5306,6,harmonic,,word,m,,,,,,,
,,,,2023-11-28_21h46.34.378,VH_v3,2023.2.3,Win32,143.9677512,,,,,,,,,,,,473.8369,474.8391,,,,,,,,,,,,,,,,,,,,,,,,,,474.8391,475.7466,z,1,0.9006,,475.7466,475.7466,,0,228,228,187,1,188,hücmet,,,,,6,harmonic,1.85,nw,z,,,,,,,
,,,,2023-11-28_21h46.34.378,VH_v3,2023.2.3,Win32,143.9677512,,,,,,,,,,,,475.7468,476.7468,,,,,,,,,,,,,,,,,,,,,,,,,,476.7468,477.2192,m,1,0.4623,,477.2192,477.2192,,0,229,229,103,1,104,yemek,9626,437.3673,8311,0.9086,5,harmonic,,word,m,,,,,,,
,,,,2023-11-28_21h46.34.378,VH_v3,2023.2.3,Win32,143.9677512,,,,,,,,,,,,477.2194,478.2193,,,,,,,,,,,,,,,,,,,,,,,,,,478.2193,478.7194,z,1,0.4861,,478.7195,478.7195,,0,230,230,292,1,293,semun,,,,,5,notharmonic,1.85,nw,z,,,,,,,
,,,,2023-11-28_21h46.34.378,VH_v3,2023.2.3,Win32,143.9677512,,,,,,,,,,,,478.7197,479.7219,,,,,,,,,,,,,,,,,,,,,,,,,,479.7219,480.3337,z,1,0.6046,,480.3337,480.3337,,0,231,231,198,1,199,ıdol,,,,,4,harmonic,1.9,nw,z,,,,,,,
,,,,2023-11-28_21h46.34.378,VH_v3,2023.2.3,Win32,143.9677512,,,,,,,,,,,,480.3338,481.331,,,,,,,,,,,,,,,,,,,,,,,,,,481.3311,481.9214,m,1,0.5762,,481.9214,481.9214,,0,232,232,158,1,159,tercih,4577,207.9607,4282,0.4681,6,harmonic,,word,m,,,,,,,
,,,,2023-11-28_21h46.34.378,VH_v3,2023.2.3,Win32,143.9677512,,,,,,,,,,,,481.9216,482.9239,,,,,,,,,,,,,,,,,,,,,,,,,,482.9239,483.4772,m,1,0.5436,,483.4772,483.4772,,0,233,233,163,1,164,teknik,3297,149.8026,2798,0.3059,6,harmonic,,word,m,,,,,,,
,,,,2023-11-28_21h46.34.378,VH_v3,2023.2.3,Win32,143.9677512,,,,,,,,,,,,483.4774,484.4797,,,,,,,,,,,,,,,,,,,,,,,,,,484.4797,484.8872,m,0,0.3959,,484.8873,484.8873,,0,234,234,279,1,280,ikaza,,,,,5,notharmonic,1.9,nw,z,,,,,,,
,,,,2023-11-28_21h46.34.378,VH_v3,2023.2.3,Win32,143.9677512,,,,,,,,,,,,484.8875,485.8828,,,,,,,,,,,,,,,,,,,,,,,,,,485.8828,486.8528,z,1,0.9607,,486.8529,486.8529,,0,235,235,228,1,229,nekir,,,,,5,harmonic,1.65,nw,z,,,,,,,
,,,,2023-11-28_21h46.34.378,VH_v3,2023.2.3,Win32,143.9677512,,,,,,,,,,,,486.853,487.8486,,,,,,,,,,,,,,,,,,,,,,,,,,487.8487,488.4462,m,1,0.5906,,488.4463,488.4463,,0,236,236,99,1,100,çocuk,10612,482.1672,8979,0.9816,5,harmonic,,word,m,,,,,,,
,,,,2023-11-28_21h46.34.378,VH_v3,2023.2.3,Win32,143.9677512,,,,,,,,,,,,488.4464,489.4436,,,,,,,,,,,,,,,,,,,,,,,,,,489.4436,490.0965,z,1,0.6389,,490.0965,490.0966,,0,237,237,298,1,299,memzur,,,,,6,notharmonic,1.95,nw,z,,,,,,,
,,,,2023-11-28_21h46.34.378,VH_v3,2023.2.3,Win32,143.9677512,,,,,,,,,,,,490.0968,491.0966,,,,,,,,,,,,,,,,,,,,,,,,,,491.0966,491.7564,m,1,0.6485,,491.7564,491.7564,,0,238,238,154,1,155,oyun,4926,223.8179,3995,0.4367,4,harmonic,,word,m,,,,,,,
,,,,2023-11-28_21h46.34.378,VH_v3,2023.2.3,Win32,143.9677512,,,,,,,,,,,,491.7566,492.7591,,,,,,,,,,,,,,,,,,,,,,,,,,492.7591,493.1873,m,1,0.4203,,493.1873,493.1873,,0,239,239,143,1,144,isim,2366,107.5017,2163,0.2365,4,harmonic,,word,m,,,,,,,
,,,,2023-11-28_21h46.34.378,VH_v3,2023.2.3,Win32,143.9677512,,,,,,,,,,,,493.1874,494.1876,,,,,,,,,,,,,,,,,,,,,,,,,,494.1876,494.771,z,1,0.5735,,494.771,496.5353,space,0,240,240,341,1,342,sizika,,,,,6,notharmonic,2.45,nw,z,1.7507,,,,,,
,,,,2023-11-28_21h46.34.378,VH_v3,2023.2.3,Win32,143.9677512,,,,,,,,,,,,496.54,497.5354,,,,,,,,,,,,,,,,,,,,,,,,,,497.5354,498.4245,z,1,0.8752,,498.4245,498.4245,,0,241,241,250,1,251,çonsa,,,,,5,harmonic,1.9,nw,z,,,,,,,
,,,,2023-11-28_21h46.34.378,VH_v3,2023.2.3,Win32,143.9677512,,,,,,,,,,,,498.4248,499.4247,,,,,,,,,,,,,,,,,,,,,,,,,,499.4247,500.1148,m,1,0.6789,,500.1148,500.1149,,0,242,242,67,1,68,bayram,1948,88.5094,1648,0.1802,6,harmonic,1.85,word,m,,,,,,,
,,,,2023-11-28_21h46.34.378,VH_v3,2023.2.3,Win32,143.9677512,,,,,,,,,,,,500.115,501.1124,,,,,,,,,,,,,,,,,,,,,,,,,,501.1124,501.661,z,1,0.5369,,501.661,501.6611,,0,243,243,244,1,245,tazık,,,,,5,harmonic,1.7,nw,z,,,,,,,
,,,,2023-11-28_21h46.34.378,VH_v3,2023.2.3,Win32,143.9677512,,,,,,,,,,,,501.6613,502.6613,,,,,,,,,,,,,,,,,,,,,,,,,,502.6613,503.203,z,1,0.5318,,503.2031,503.2031,,0,244,244,237,1,238,küyek,,,,,5,harmonic,1.8,nw,z,,,,,,,
,,,,2023-11-28_21h46.34.378,VH_v3,2023.2.3,Win32,143.9677512,,,,,,,,,,,,503.2033,504.1983,,,,,,,,,,,,,,,,,,,,,,,,,,504.1983,504.9394,m,1,0.7328,,504.9394,504.9394,,0,245,245,116,1,117,tatlı,5515,250.5797,4949,0.541,5,harmonic,,word,m,,,,,,,
,,,,2023-11-28_21h46.34.378,VH_v3,2023.2.3,Win32,143.9677512,,,,,,,,,,,,504.9396,505.9398,,,,,,,,,,,,,,,,,,,,,,,,,,505.9398,506.4815,m,1,0.5261,,506.4815,506.4815,,0,246,246,34,1,35,hoca,1893,86.0104,1526,0.1668,4,harmonic,1.45,word,m,,,,,,,
,,,,2023-11-28_21h46.34.378,VH_v3,2023.2.3,Win32,143.9677512,,,,,,,,,,,,506.4818,507.4771,,,,,,,,,,,,,,,,,,,,,,,,,,507.4771,507.9747,m,1,0.4877,,507.9747,507.9747,,0,247,247,30,1,31,çevre,1662,75.5147,1409,0.154,5,harmonic,1.55,word,m,,,,,,,
,,,,2023-11-28_21h46.34.378,VH_v3,2023.2.3,Win32,143.9677512,,,,,,,,,,,,507.9749,508.975,,,,,,,,,,,,,,,,,,,,,,,,,,508.9751,509.489,m,1,0.5002,,509.4891,509.4891,,0,248,248,27,1,28,bölge,1283,58.2944,1123,0.1228,5,harmonic,1.65,word,m,,,,,,,
,,,,2023-11-28_21h46.34.378,VH_v3,2023.2.3,Win32,143.9677512,,,,,,,,,,,,509.4892,510.4892,,,,,,,,,,,,,,,,,,,,,,,,,,510.4892,511.0309,m,1,0.5281,,511.031,511.031,,0,249,249,117,1,118,yavaş,5087,231.1331,2886,0.3155,5,harmonic,,word,m,,,,,,,
,,,,2023-11-28_21h46.34.378,VH_v3,2023.2.3,Win32,143.9677512,,,,,,,,,,,,511.0312,512.0288,,,,,,,,,,,,,,,,,,,,,,,,,,512.0288,512.6518,m,1,0.6174,,512.6519,512.6519,,0,250,250,60,1,61,doğu,2105,95.6429,1823,0.1993,4,harmonic,1.05,word,m,,,,,,,
,,,,2023-11-28_21h46.34.378,VH_v3,2023.2.3,Win32,143.9677512,,,,,,,,,,,,512.6521,513.6495,,,,,,,,,,,,,,,,,,,,,,,,,,513.6495,514.4021,m,1,0.7432,,514.4021,514.4022,,0,251,251,146,1,147,sarı,2072,94.1435,1838,0.2009,4,harmonic,,word,m,,,,,,,
,,,,2023-11-28_21h46.34.378,VH_v3,2023.2.3,Win32,143.9677512,,,,,,,,,,,,514.4023,515.3998,,,,,,,,,,,,,,,,,,,,,,,,,,515.3998,515.8682,m,1,0.4586,,515.8683,515.8683,,0,252,252,104,1,105,çizgi,1340,60.8843,1074,0.1174,5,harmonic,,word,m,,,,,,,
,,,,2023-11-28_21h46.34.378,VH_v3,2023.2.3,Win32,143.9677512,,,,,,,,,,,,515.8684,516.8653,,,,,,,,,,,,,,,,,,,,,,,,,,516.8654,517.6225,z,1,0.7448,,517.6225,517.6226,,0,253,253,295,1,296,takime,,,,,6,notharmonic,1.9,nw,z,,,,,,,
,,,,2023-11-28_21h46.34.378,VH_v3,2023.2.3,Win32,143.9677512,,,,,,,,,,,,517.6228,518.6227,,,,,,,,,,,,,,,,,,,,,,,,,,518.6227,519.1366,m,1,0.5016,,519.1366,519.1366,,0,254,254,73,1,74,millet,1658,75.3329,1508,0.1649,6,harmonic,1.7,word,m,,,,,,,
,,,,2023-11-28_21h46.34.378,VH_v3,2023.2.3,Win32,143.9677512,,,,,,,,,,,,519.1369,520.1368,,,,,,,,,,,,,,,,,,,,,,,,,,520.1368,520.9007,z,1,0.7526,,520.9007,520.9007,,0,255,255,289,1,290,minkon,,,,,6,notharmonic,2.2,nw,z,,,,,,,
,,,,2023-11-28_21h46.34.378,VH_v3,2023.2.3,Win32,143.9677512,,,,,,,,,,,,520.9009,521.9011,,,,,,,,,,,,,,,,,,,,,,,,,,521.9011,522.7276,m,0,0.8125,,522.7276,522.7277,,0,256,256,218,1,219,yaltın,,,,,6,harmonic,1.8,nw,z,,,,,,,
,,,,2023-11-28_21h46.34.378,VH_v3,2023.2.3,Win32,143.9677512,,,,,,,,,,,,522.7279,523.73,,,,,,,,,,,,,,,,,,,,,,,,,,523.73,524.214,m,0,0.4741,,524.214,524.214,,0,257,257,359,1,360,hisaye,,,,,6,notharmonic,,nw,z,,,,,,,
,,,,2023-11-28_21h46.34.378,VH_v3,2023.2.3,Win32,143.9677512,,,,,,,,,,,,524.2142,525.2141,,,,,,,,,,,,,,,,,,,,,,,,,,525.2141,525.7976,m,1,0.569,,525.7976,525.7976,,0,258,258,10,1,11,bardak,1728,78.5135,1569,0.1715,6,harmonic,1.6,word,m,,,,,,,
,,,,2023-11-28_21h46.34.378,VH_v3,2023.2.3,Win32,143.9677512,,,,,,,,,,,,525.7979,526.7978,,,,,,,,,,,,,,,,,,,,,,,,,,526.7978,527.2771,m,1,0.4673,,527.2771,527.2771,,0,259,259,71,1,72,örnek,3463,157.345,3266,0.357,5,harmonic,1.85,word,m,,,,,,,
,,,,2023-11-28_21h46.34.378,VH_v3,2023.2.3,Win32,143.9677512,,,,,,,,,,,,527.2773,528.2772,,,,,,,,,,,,,,,,,,,,,,,,,,528.2772,528.6592,m,0,0.3718,,528.6592,528.6593,,0,260,260,196,1,197,gakık,,,,,5,harmonic,2,nw,z,,,,,,,
,,,,2023-11-28_21h46.34.378,VH_v3,2023.2.3,Win32,143.9677512,,,,,,,,,,,,528.6595,529.6595,,,,,,,,,,,,,,,,,,,,,,,,,,529.6595,530.5929,m,1,0.924,,530.5929,530.5929,,0,261,261,77,1,78,ufak,3252,147.758,2980,0.3258,4,harmonic,1.5,word,m,,,,,,,
,,,,2023-11-28_21h46.34.378,VH_v3,2023.2.3,Win32,143.9677512,,,,,,,,,,,,530.5931,531.5904,,,,,,,,,,,,,,,,,,,,,,,,,,531.5904,532.3404,z,0,0.7389,,532.3404,532.3406,,0,262,262,23,1,24,kurum,986,44.7999,882,0.0964,5,harmonic,1.75,word,m,,,,,,,
,,,,2023-11-28_21h46.34.378,VH_v3,2023.2.3,Win32,143.9677512,,,,,,,,,,,,532.3408,533.3406,,,,,,,,,,,,,,,,,,,,,,,,,,533.3406,533.9587,z,1,0.6027,,533.9587,533.9587,,0,263,263,357,1,358,harim,,,,,5,notharmonic,,nw,z,,,,,,,
,,,,2023-11-28_21h46.34.378,VH_v3,2023.2.3,Win32,143.9677512,,,,,,,,,,,,533.959,534.9544,,,,,,,,,,,,,,,,,,,,,,,,,,534.9544,535.5424,m,1,0.5773,,535.5425,535.5426,,0,264,264,1,1,2,erkek,6188,281.1582,5195,0.5679,5,harmonic,1.65,word,m,,,,,,,
,,,,2023-11-28_21h46.34.378,VH_v3,2023.2.3,Win32,143.9677512,,,,,,,,,,,,535.5427,536.5426,,,,,,,,,,,,,,,,,,,,,,,,,,536.5426,537.0218,m,0,0.4666,,537.0219,537.0219,,0,265,265,239,1,240,yulçız,,,,,6,harmonic,2.75,nw,z,,,,,,,
,,,,2023-11-28_21h46.34.378,VH_v3,2023.2.3,Win32,143.9677512,,,,,,,,,,,,537.0221,538.022,,,,,,,,,,,,,,,,,,,,,,,,,,538.022,538.5846,m,1,0.5486,,538.5846,538.5847,,0,266,266,38,1,39,dönem,2820,128.1296,2437,0.2664,5,harmonic,1.4,word,m,,,,,,,
,,,,2023-11-28_21h46.34.378,VH_v3,2023.2.3,Win32,143.9677512,,,,,,,,,,,,538.5849,539.5848,,,,,,,,,,,,,,,,,,,,,,,,,,539.5849,540.2308,m,0,0.632,,540.2308,540.2308,,0,267,267,233,1,234,alıt,,,,,4,harmonic,1.15,nw,z,,,,,,,
,,,,2023-11-28_21h46.34.378,VH_v3,2023.2.3,Win32,143.9677512,,,,,,,,,,,,540.231,541.231,,,,,,,,,,,,,,,,,,,,,,,,,,541.231,542.0949,z,1,0.8525,,542.0949,542.0949,,0,268,268,345,1,346,kiru,,,,,4,notharmonic,1.8,nw,z,,,,,,,
,,,,2023-11-28_21h46.34.378,VH_v3,2023.2.3,Win32,143.9677512,,,,,,,,,,,,542.0951,543.0925,,,,,,,,,,,,,,,,,,,,,,,,,,543.0925,543.5994,m,1,0.4935,,543.5995,543.5995,,0,269,269,109,1,110,dalga,1307,59.3849,1117,0.1221,5,harmonic,,word,m,,,,,,,
,,,,2023-11-28_21h46.34.378,VH_v3,2023.2.3,Win32,143.9677512,,,,,,,,,,,,543.5997,544.5996,,,,,,,,,,,,,,,,,,,,,,,,,,544.5997,545.1762,m,1,0.5624,,545.1762,545.1762,,0,270,270,49,1,50,şeker,4708,213.9128,4170,0.4559,5,harmonic,1.6,word,m,,,,,,,
,,,,2023-11-28_21h46.34.378,VH_v3,2023.2.3,Win32,143.9677512,,,,,,,,,,,,545.1764,546.1763,,,,,,,,,,,,,,,,,,,,,,,,,,546.1764,546.7806,z,1,0.5927,,546.7806,546.7806,,0,271,271,261,1,262,kübün,,,,,5,harmonic,2,nw,z,,,,,,,
,,,,2023-11-28_21h46.34.378,VH_v3,2023.2.3,Win32,143.9677512,,,,,,,,,,,,546.7809,547.7809,,,,,,,,,,,,,,,,,,,,,,,,,,547.7809,548.3364,z,0,0.5417,,548.3365,548.3365,,0,272,272,134,1,135,hanım,3564,161.934,3151,0.3445,5,harmonic,,word,m,,,,,,,
,,,,2023-11-28_21h46.34.378,VH_v3,2023.2.3,Win32,143.9677512,,,,,,,,,,,,548.3367,549.3366,,,,,,,,,,,,,,,,,,,,,,,,,,549.3367,549.8666,z,1,0.5187,,549.8666,549.8667,,0,273,273,191,1,192,unot,,,,,4,harmonic,1.85,nw,z,,,,,,,
,,,,2023-11-28_21h46.34.378,VH_v3,2023.2.3,Win32,143.9677512,,,,,,,,,,,,549.8669,550.867,,,,,,,,,,,,,,,,,,,,,,,,,,550.867,551.5618,z,1,0.6879,,551.5618,551.5618,,0,274,274,267,1,268,eşti,,,,,4,harmonic,1.85,nw,z,,,,,,,
,,,,2023-11-28_21h46.34.378,VH_v3,2023.2.3,Win32,143.9677512,,,,,,,,,,,,551.562,552.5594,,,,,,,,,,,,,,,,,,,,,,,,,,552.5594,553.0943,m,1,0.5215,,553.0944,553.0944,,0,275,275,171,1,172,şirket,1227,55.75,1022,0.1117,6,harmonic,,word,m,,,,,,,
,,,,2023-11-28_21h46.34.378,VH_v3,2023.2.3,Win32,143.9677512,,,,,,,,,,,,553.0946,554.0945,,,,,,,,,,,,,,,,,,,,,,,,,,554.0945,554.7569,m,1,0.653,,554.7569,554.7569,,0,276,276,50,1,51,kanun,1198,54.4324,1010,0.1104,5,harmonic,1.6,word,m,,,,,,,
,,,,2023-11-28_21h46.34.378,VH_v3,2023.2.3,Win32,143.9677512,,,,,,,,,,,,554.7571,555.7546,,,,,,,,,,,,,,,,,,,,,,,,,,555.7546,556.2293,m,1,0.4656,,556.2293,556.2293,,0,277,277,165,1,166,fırsat,1952,88.6911,1863,0.2037,6,harmonic,,word,m,,,,,,,
,,,,2023-11-28_21h46.34.378,VH_v3,2023.2.3,Win32,143.9677512,,,,,,,,,,,,556.2296,557.227,,,,,,,,,,,,,,,,,,,,,,,,,,557.227,557.9728,z,1,0.7364,,557.9728,557.9728,,0,278,278,335,1,336,askif,,,,,5,notharmonic,2,nw,z,,,,,,,
,,,,2023-11-28_21h46.34.378,VH_v3,2023.2.3,Win32,143.9677512,,,,,,,,,,,,557.973,558.9704,,,,,,,,,,,,,,,,,,,,,,,,,,558.9704,559.5653,m,1,0.5857,,559.5654,559.5654,,0,279,279,48,1,49,teşvik,932,42.3464,867,0.0948,6,harmonic,1.8,word,m,,,,,,,
,,,,2023-11-28_21h46.34.378,VH_v3,2023.2.3,Win32,143.9677512,,,,,,,,,,,,559.5656,560.561,,,,,,,,,,,,,,,,,,,,,,,,,,560.561,561.3111,m,1,0.7362,,561.3111,561.3112,,0,280,280,152,1,153,sene,6752,306.7841,5843,0.6388,4,harmonic,,word,m,,,,,,,
,,,,2023-11-28_21h46.34.378,VH_v3,2023.2.3,Win32,143.9677512,,,,,,,,,,,,561.3114,562.3133,,,,,,,,,,,,,,,,,,,,,,,,,,562.3133,562.9181,z,1,0.5974,,562.9182,562.9182,,0,281,281,246,1,247,ülmet,,,,,5,harmonic,1.9,nw,z,,,,,,,
,,,,2023-11-28_21h46.34.378,VH_v3,2023.2.3,Win32,143.9677512,,,,,,,,,,,,562.9184,563.9158,,,,,,,,,,,,,,,,,,,,,,,,,,563.9158,564.6105,z,1,0.6853,,564.6105,564.6105,,0,282,282,314,1,315,betaş,,,,,5,notharmonic,1.9,nw,z,,,,,,,
,,,,2023-11-28_21h46.34.378,VH_v3,2023.2.3,Win32,143.9677512,,,,,,,,,,,,564.6108,565.6105,,,,,,,,,,,,,,,,,,,,,,,,,,565.6105,566.1522,z,1,0.526,,566.1522,566.1522,,0,283,283,344,1,345,adalüt,,,,,6,notharmonic,,nw,z,,,,,,,
,,,,2023-11-28_21h46.34.378,VH_v3,2023.2.3,Win32,143.9677512,,,,,,,,,,,,566.1525,567.1478,,,,,,,,,,,,,,,,,,,,,,,,,,567.1479,567.8401,m,1,0.6807,,567.8402,567.8403,,0,284,284,6,1,7,hayal,4498,204.3713,4079,0.4459,5,harmonic,1.45,word,m,,,,,,,
,,,,2023-11-28_21h46.34.378,VH_v3,2023.2.3,Win32,143.9677512,,,,,,,,,,,,567.8404,568.8402,,,,,,,,,,,,,,,,,,,,,,,,,,568.8402,569.5417,z,1,0.6887,,569.5417,569.5418,,0,285,285,338,1,339,kunik,,,,,5,notharmonic,1.8,nw,z,,,,,,,
,,,,2023-11-28_21h46.34.378,VH_v3,2023.2.3,Win32,143.9677512,,,,,,,,,,,,569.542,570.5419,,,,,,,,,,,,,,,,,,,,,,,,,,570.5419,571.2434,m,1,0.6911,,571.2435,571.2435,,0,286,286,64,1,65,lise,888,40.3472,816,0.0892,4,harmonic,1.5,word,m,,,,,,,
,,,,2023-11-28_21h46.34.378,VH_v3,2023.2.3,Win32,143.9677512,,,,,,,,,,,,571.2437,572.2391,,,,,,,,,,,,,,,,,,,,,,,,,,572.2391,572.9243,z,1,0.6762,,572.9243,572.9245,,0,287,287,245,1,246,mahram,,,,,6,harmonic,1.85,nw,z,,,,,,,
,,,,2023-11-28_21h46.34.378,VH_v3,2023.2.3,Win32,143.9677512,,,,,,,,,,,,572.9246,573.9246,,,,,,,,,,,,,,,,,,,,,,,,,,573.9246,574.6399,z,1,0.7014,,574.6399,574.64,,0,288,288,221,1,222,ülük,,,,,4,harmonic,1.55,nw,z,,,,,,,
,,,,2023-11-28_21h46.34.378,VH_v3,2023.2.3,Win32,143.9677512,,,,,,,,,,,,574.6402,575.6402,,,,,,,,,,,,,,,,,,,,,,,,,,575.6402,576.1889,z,0,0.5367,,576.1889,576.1889,,0,289,289,111,1,112,soğan,1315,59.7484,1202,0.1314,5,harmonic,,word,m,,,,,,,
,,,,2023-11-28_21h46.34.378,VH_v3,2023.2.3,Win32,143.9677512,,,,,,,,,,,,576.1891,577.1891,,,,,,,,,,,,,,,,,,,,,,,,,,577.1891,577.7864,z,1,0.5881,,577.7864,577.7865,,0,290,290,207,1,208,çallak,,,,,6,harmonic,1.75,nw,z,,,,,,,
,,,,2023-11-28_21h46.34.378,VH_v3,2023.2.3,Win32,143.9677512,,,,,,,,,,,,577.7866,578.7865,,,,,,,,,,,,,,,,,,,,,,,,,,578.7866,579.4117,z,1,0.6146,,579.4117,579.4117,,0,291,291,324,1,325,başi,,,,,4,notharmonic,1.5,nw,z,,,,,,,
,,,,2023-11-28_21h46.34.378,VH_v3,2023.2.3,Win32,143.9677512,,,,,,,,,,,,579.4119,580.4119,,,,,,,,,,,,,,,,,,,,,,,,,,580.4119,581.0786,m,1,0.6535,,581.0787,581.0788,,0,292,292,20,1,21,nefes,2871,130.4469,2553,0.2791,5,harmonic,1.8,word,m,,,,,,,
,,,,2023-11-28_21h46.34.378,VH_v3,2023.2.3,Win32,143.9677512,,,,,,,,,,,,581.079,582.0788,,,,,,,,,,,,,,,,,,,,,,,,,,582.0789,582.9497,z,0,0.8595,,582.9497,582.9497,,0,293,293,5,1,6,bebek,3301,149.9843,2794,0.3054,5,harmonic,1.6,word,m,,,,,,,
,,,,2023-11-28_21h46.34.378,VH_v3,2023.2.3,Win32,143.9677512,,,,,,,,,,,,582.95,583.9473,,,,,,,,,,,,,,,,,,,,,,,,,,583.9473,585.9476,,0,,,585.9477,585.9477,,0,294,294,55,1,56,akıl,2208,100.3228,2004,0.2191,4,harmonic,1,word,m,,,,,,,
,,,,2023-11-28_21h46.34.378,VH_v3,2023.2.3,Win32,143.9677512,,,,,,,,,,,,585.9479,586.9477,,,,,,,,,,,,,,,,,,,,,,,,,,586.9478,587.8672,z,1,0.9099,,587.8672,587.8673,,0,295,295,286,1,287,elsaf,,,,,5,notharmonic,1.9,nw,z,,,,,,,
,,,,2023-11-28_21h46.34.378,VH_v3,2023.2.3,Win32,143.9677512,,,,,,,,,,,,587.8674,588.8674,,,,,,,,,,,,,,,,,,,,,,,,,,588.8674,589.7747,z,1,0.8975,,589.7747,589.7748,,0,296,296,195,1,196,habaş,,,,,5,harmonic,1.95,nw,z,,,,,,,
,,,,2023-11-28_21h46.34.378,VH_v3,2023.2.3,Win32,143.9677512,,,,,,,,,,,,589.7749,590.7749,,,,,,,,,,,,,,,,,,,,,,,,,,590.7749,591.597,z,1,0.8108,,591.597,591.5971,,0,297,297,288,1,289,talif,,,,,5,notharmonic,1.5,nw,z,,,,,,,
,,,,2023-11-28_21h46.34.378,VH_v3,2023.2.3,Win32,143.9677512,,,,,,,,,,,,591.5973,592.5946,,,,,,,,,,,,,,,,,,,,,,,,,,592.5946,593.4167,m,1,0.8123,,593.4169,593.4169,,0,298,298,87,1,88,mümkün,6604,300.0596,6264,0.6848,6,harmonic,1.9,word,m,,,,,,,
,,,,2023-11-28_21h46.34.378,VH_v3,2023.2.3,Win32,143.9677512,,,,,,,,,,,,593.417,594.4167,,,,,,,,,,,,,,,,,,,,,,,,,,594.4168,595.373,m,0,0.9467,,595.373,595.373,,0,299,299,209,1,210,çirre,,,,,5,harmonic,2,nw,z,,,,,,,
,,,,2023-11-28_21h46.34.378,VH_v3,2023.2.3,Win32,143.9677512,,,,,,,,,,,,595.3732,596.3755,,,,,,,,,,,,,,,,,,,,,,,,,,596.3756,596.9078,m,0,0.5238,,596.9078,596.9079,,0,300,300,290,1,291,nüda,,,,,4,notharmonic,1.9,nw,z,,,,,,,
,,,,2023-11-28_21h46.34.378,VH_v3,2023.2.3,Win32,143.9677512,,,,,,,,,,,,596.9081,597.9104,,,,,,,,,,,,,,,,,,,,,,,,,,597.9104,598.5958,m,1,0.677,,598.5958,598.5959,,0,301,301,93,1,94,başka,23223,1055.161,20976,2.2931,5,harmonic,,word,m,,,,,,,
,,,,2023-11-28_21h46.34.378,VH_v3,2023.2.3,Win32,143.9677512,,,,,,,,,,,,598.596,599.596,,,,,,,,,,,,,,,,,,,,,,,,,,599.596,600.1239,m,0,0.5183,,600.1239,600.1239,,0,302,302,321,1,322,kibas,,,,,5,notharmonic,1.9,nw,z,,,,,,,
,,,,2023-11-28_21h46.34.378,VH_v3,2023.2.3,Win32,143.9677512,,,,,,,,,,,,600.1241,601.124,,,,,,,,,,,,,,,,,,,,,,,,,,601.124,601.7631,m,1,0.6288,,601.7631,601.7631,,0,303,303,44,1,45,kayıt,1234,56.0681,1058,0.1157,5,harmonic,1.35,word,m,,,,,,,
,,,,2023-11-28_21h46.34.378,VH_v3,2023.2.3,Win32,143.9677512,,,,,,,,,,,,601.7633,602.7587,,,,,,,,,,,,,,,,,,,,,,,,,,602.7587,603.6593,z,1,0.8927,,603.6593,603.6593,,0,304,304,330,1,331,tevaze,,,,,6,notharmonic,2.05,nw,z,,,,,,,
,,,,2023-11-28_21h46.34.378,VH_v3,2023.2.3,Win32,143.9677512,,,,,,,,,,,,603.6595,604.6617,,,,,,,,,,,,,,,,,,,,,,,,,,604.6618,605.4443,m,1,0.7736,,605.4443,605.4443,,0,305,305,105,1,106,hafta,9257,420.6014,8254,0.9023,5,harmonic,,word,m,,,,,,,
,,,,2023-11-28_21h46.34.378,VH_v3,2023.2.3,Win32,143.9677512,,,,,,,,,,,,605.4446,606.4444,,,,,,,,,,,,,,,,,,,,,,,,,,606.4445,607.0833,m,1,0.6285,,607.0834,607.0834,,0,306,306,167,1,168,yoğurt,1484,67.4271,1359,0.1486,6,harmonic,,word,m,,,,,,,
,,,,2023-11-28_21h46.34.378,VH_v3,2023.2.3,Win32,143.9677512,,,,,,,,,,,,607.0836,608.0836,,,,,,,,,,,,,,,,,,,,,,,,,,608.0836,608.9057,m,1,0.8108,,608.9058,608.9059,,0,307,307,129,1,130,yorum,3801,172.7024,3473,0.3797,5,harmonic,,word,m,,,,,,,
,,,,2023-11-28_21h46.34.378,VH_v3,2023.2.3,Win32,143.9677512,,,,,,,,,,,,608.906,609.9057,,,,,,,,,,,,,,,,,,,,,,,,,,609.9057,610.9453,m,1,1.0279,,610.9454,610.9454,,0,308,308,53,1,54,gelir,7578,344.3143,7014,0.7668,5,harmonic,1.4,word,m,,,,,,,
,,,,2023-11-28_21h46.34.378,VH_v3,2023.2.3,Win32,143.9677512,,,,,,,,,,,,610.9456,611.9479,,,,,,,,,,,,,,,,,,,,,,,,,,611.9479,613.9459,,0,,,613.9459,613.946,,0,309,309,135,1,136,değer,3333,151.4383,3084,0.3371,5,harmonic,,word,m,,,,,,,
,,,,2023-11-28_21h46.34.378,VH_v3,2023.2.3,Win32,143.9677512,,,,,,,,,,,,613.9461,614.9415,,,,,,,,,,,,,,,,,,,,,,,,,,614.9416,615.8211,z,1,0.8702,,615.8211,615.8213,,0,310,310,215,1,216,maflek,,,,,6,harmonic,2.15,nw,z,,,,,,,
,,,,2023-11-28_21h46.34.378,VH_v3,2023.2.3,Win32,143.9677512,,,,,,,,,,,,615.8214,616.8237,,,,,,,,,,,,,,,,,,,,,,,,,,616.8237,617.4701,m,1,0.6394,,617.4701,617.4701,,0,311,311,2,1,3,radyo,763,34.6677,636,0.0695,5,harmonic,1.85,word,m,,,,,,,
,,,,2023-11-28_21h46.34.378,VH_v3,2023.2.3,Win32,143.9677512,,,,,,,,,,,,617.4703,618.4699,,,,,,,,,,,,,,,,,,,,,,,,,,618.4699,619.0856,z,1,0.6068,,619.0856,619.0857,,0,312,312,268,1,269,hayot,,,,,5,harmonic,,nw,z,,,,,,,
,,,,2023-11-28_21h46.34.378,VH_v3,2023.2.3,Win32,143.9677512,,,,,,,,,,,,619.0859,620.0857,,,,,,,,,,,,,,,,,,,,,,,,,,620.0857,620.7041,z,1,0.6044,,620.7041,620.7041,,0,313,313,303,1,304,hahir,,,,,5,notharmonic,1.55,nw,z,,,,,,,
,,,,2023-11-28_21h46.34.378,VH_v3,2023.2.3,Win32,143.9677512,,,,,,,,,,,,620.7043,621.7066,,,,,,,,,,,,,,,,,,,,,,,,,,621.7066,622.3988,m,1,0.681,,622.3989,622.3989,,0,314,314,107,1,108,sivil,1334,60.6117,1151,0.1258,5,harmonic,,word,m,,,,,,,
,,,,2023-11-28_21h46.34.378,VH_v3,2023.2.3,Win32,143.9677512,,,,,,,,,,,,622.3991,623.399,,,,,,,,,,,,,,,,,,,,,,,,,,623.399,624.0032,z,1,0.5942,,624.0032,624.0033,,0,315,315,266,1,267,yannoz,,,,,6,harmonic,2.85,nw,z,,,,,,,
,,,,2023-11-28_21h46.34.378,VH_v3,2023.2.3,Win32,143.9677512,,,,,,,,,,,,624.0034,625.0058,,,,,,,,,,,,,,,,,,,,,,,,,,625.0058,625.5591,m,1,0.5417,,625.5592,625.5592,,0,316,316,173,1,174,koruma,1187,53.9326,1066,0.1165,6,harmonic,,word,m,,,,,,,
,,,,2023-11-28_21h46.34.378,VH_v3,2023.2.3,Win32,143.9677512,,,,,,,,,,,,625.5593,626.5617,,,,,,,,,,,,,,,,,,,,,,,,,,626.5617,627.0385,m,1,0.4659,,627.0385,627.0386,,0,317,317,79,1,80,durum,6783,308.1926,6431,0.703,5,harmonic,1.7,word,m,,,,,,,
,,,,2023-11-28_21h46.34.378,VH_v3,2023.2.3,Win32,143.9677512,,,,,,,,,,,,627.039,628.0387,,,,,,,,,,,,,,,,,,,,,,,,,,628.0387,628.5806,z,1,0.5301,,628.5806,628.5806,,0,318,318,309,1,310,yanele,,,,,6,notharmonic,1.85,nw,z,,,,,,,
,,,,2023-11-28_21h46.34.378,VH_v3,2023.2.3,Win32,143.9677512,,,,,,,,,,,,628.5807,629.5806,,,,,,,,,,,,,,,,,,,,,,,,,,629.5806,630.5115,z,1,0.9168,,630.5115,630.5115,,0,319,319,189,1,190,kanak,,,,,5,harmonic,1.1,nw,z,,,,,,,
,,,,2023-11-28_21h46.34.378,VH_v3,2023.2.3,Win32,143.9677512,,,,,,,,,,,,630.5117,631.5069,,,,,,,,,,,,,,,,,,,,,,,,,,631.507,632.0672,z,1,0.5522,,632.0672,632.0673,,0,320,320,258,1,259,meryeş,,,,,6,harmonic,2.35,nw,z,,,,,,,
,,,,2023-11-28_21h46.34.378,VH_v3,2023.2.3,Win32,143.9677512,,,,,,,,,,,,632.0674,633.0675,,,,,,,,,,,,,,,,,,,,,,,,,,633.0675,633.8828,m,1,0.8059,,633.8828,633.8829,,0,321,321,110,1,111,beden,1333,60.5662,1119,0.1223,5,harmonic,,word,m,,,,,,,
,,,,2023-11-28_21h46.34.378,VH_v3,2023.2.3,Win32,143.9677512,,,,,,,,,,,,633.8831,634.8803,,,,,,,,,,,,,,,,,,,,,,,,,,634.8804,635.4706,z,1,0.5779,,635.4706,635.4706,,0,322,322,217,1,218,dötim,,,,,5,harmonic,2,nw,z,,,,,,,
,,,,2023-11-28_21h46.34.378,VH_v3,2023.2.3,Win32,143.9677512,,,,,,,,,,,,635.4708,636.4708,,,,,,,,,,,,,,,,,,,,,,,,,,636.4708,636.9015,z,1,0.4181,,636.9015,636.9015,,0,323,323,206,1,207,bülse,,,,,5,harmonic,2,nw,z,,,,,,,
,,,,2023-11-28_21h46.34.378,VH_v3,2023.2.3,Win32,143.9677512,,,,,,,,,,,,636.9018,637.9017,,,,,,,,,,,,,,,,,,,,,,,,,,637.9017,638.4713,m,1,0.5556,,638.4713,638.4713,,0,324,324,127,1,128,müzik,3999,181.6987,3340,0.3651,5,harmonic,,word,m,,,,,,,
,,,,2023-11-28_21h46.34.378,VH_v3,2023.2.3,Win32,143.9677512,,,,,,,,,,,,638.4715,639.4738,,,,,,,,,,,,,,,,,,,,,,,,,,639.4738,640.1199,m,0,0.6391,,640.12,640.12,,0,325,325,283,1,284,sate,,,,,4,notharmonic,1.45,nw,z,,,,,,,
,,,,2023-11-28_21h46.34.378,VH_v3,2023.2.3,Win32,143.9677512,,,,,,,,,,,,640.1202,641.1177,,,,,,,,,,,,,,,,,,,,,,,,,,641.1177,641.2911,m,0,0.1632,,641.2911,641.2912,,0,326,326,296,1,297,taeri,,,,,5,notharmonic,2,nw,z,,,,,,,
,,,,2023-11-28_21h46.34.378,VH_v3,2023.2.3,Win32,143.9677512,,,,,,,,,,,,641.2914,642.2929,,,,,,,,,,,,,,,,,,,,,,,,,,642.2929,642.9955,z,1,0.695,,642.9955,642.9955,,0,327,327,351,1,352,eula,,,,,4,notharmonic,1.65,nw,z,,,,,,,
,,,,2023-11-28_21h46.34.378,VH_v3,2023.2.3,Win32,143.9677512,,,,,,,,,,,,642.9957,643.9957,,,,,,,,,,,,,,,,,,,,,,,,,,643.9957,644.7432,m,1,0.7362,,644.7432,644.7432,,0,328,328,69,1,70,forma,719,32.6685,597,0.0653,5,harmonic,1.8,word,m,,,,,,,
,,,,2023-11-28_21h46.34.378,VH_v3,2023.2.3,Win32,143.9677512,,,,,,,,,,,,644.7434,645.7434,,,,,,,,,,,,,,,,,,,,,,,,,,645.7434,646.2876,m,1,0.5348,,646.2876,646.2877,,0,329,329,0,1,1,sanat,3121,141.8059,2485,0.2717,5,harmonic,1.4,word,m,,,,,,,
,,,,2023-11-28_21h46.34.378,VH_v3,2023.2.3,Win32,143.9677512,,,,,,,,,,,,646.2879,647.2854,,,,,,,,,,,,,,,,,,,,,,,,,,647.2854,647.9199,z,1,0.6232,,647.9199,647.9199,,0,330,330,255,1,256,ubar,,,,,4,harmonic,1.7,nw,z,,,,,,,
,,,,2023-11-28_21h46.34.378,VH_v3,2023.2.3,Win32,143.9677512,,,,,,,,,,,,647.9202,648.9176,,,,,,,,,,,,,,,,,,,,,,,,,,648.9176,649.4662,z,1,0.5393,,649.4662,649.4662,,0,331,331,184,1,185,medme,,,,,5,harmonic,1.95,nw,z,,,,,,,
,,,,2023-11-28_21h46.34.378,VH_v3,2023.2.3,Win32,143.9677512,,,,,,,,,,,,649.4664,650.4619,,,,,,,,,,,,,,,,,,,,,,,,,,650.462,651.0639,z,1,0.5902,,651.0639,651.0639,,0,332,332,208,1,209,guzır,,,,,5,harmonic,2.05,nw,z,,,,,,,
,,,,2023-11-28_21h46.34.378,VH_v3,2023.2.3,Win32,143.9677512,,,,,,,,,,,,651.0641,652.0664,,,,,,,,,,,,,,,,,,,,,,,,,,652.0664,652.6431,z,1,0.5697,,652.6431,652.6432,,0,333,333,272,1,273,sakke,,,,,5,notharmonic,1.85,nw,z,,,,,,,
,,,,2023-11-28_21h46.34.378,VH_v3,2023.2.3,Win32,143.9677512,,,,,,,,,,,,652.6433,653.6408,,,,,,,,,,,,,,,,,,,,,,,,,,653.6408,654.1824,z,1,0.5291,,654.1825,654.1825,,0,334,334,353,1,354,medrar,,,,,6,notharmonic,2.05,nw,z,,,,,,,
,,,,2023-11-28_21h46.34.378,VH_v3,2023.2.3,Win32,143.9677512,,,,,,,,,,,,654.1828,655.1825,,,,,,,,,,,,,,,,,,,,,,,,,,655.1825,655.7314,z,1,0.5382,,655.7314,655.7314,,0,335,335,284,1,285,zebap,,,,,5,notharmonic,1.8,nw,z,,,,,,,
,,,,2023-11-28_21h46.34.378,VH_v3,2023.2.3,Win32,143.9677512,,,,,,,,,,,,655.7317,656.7316,,,,,,,,,,,,,,,,,,,,,,,,,,656.7316,657.4024,m,1,0.6615,,657.4024,657.4024,,0,336,336,124,1,125,yarım,4177,189.7863,3852,0.4211,5,harmonic,,word,m,,,,,,,
,,,,2023-11-28_21h46.34.378,VH_v3,2023.2.3,Win32,143.9677512,,,,,,,,,,,,657.4026,658.3985,,,,,,,,,,,,,,,,,,,,,,,,,,658.3985,659.1834,m,1,0.771,,659.1834,659.1834,,0,337,337,75,1,76,roman,1499,68.1086,1281,0.14,5,harmonic,1.6,word,m,,,,,,,
,,,,2023-11-28_21h46.34.378,VH_v3,2023.2.3,Win32,143.9677512,,,,,,,,,,,,659.1836,660.1834,,,,,,,,,,,,,,,,,,,,,,,,,,660.1835,660.7419,m,1,0.5488,,660.7419,660.7419,,0,338,338,31,1,32,fazla,18293,831.1614,16694,1.825,5,harmonic,1,word,m,,,,,,,
,,,,2023-11-28_21h46.34.378,VH_v3,2023.2.3,Win32,143.9677512,,,,,,,,,,,,660.7421,661.7394,,,,,,,,,,,,,,,,,,,,,,,,,,661.7395,662.2395,m,1,0.4861,,662.2395,662.2396,,0,339,339,133,1,134,ortak,3666,166.5685,3331,0.3641,5,harmonic,,word,m,,,,,,,
,,,,2023-11-28_21h46.34.378,VH_v3,2023.2.3,Win32,143.9677512,,,,,,,,,,,,662.2398,663.2352,,,,,,,,,,,,,,,,,,,,,,,,,,663.2352,663.6732,m,1,0.431,,663.6732,663.6732,,0,340,340,120,1,121,doğal,4821,219.0471,4328,0.4731,5,harmonic,,word,m,,,,,,,
,,,,2023-11-28_21h46.34.378,VH_v3,2023.2.3,Win32,143.9677512,,,,,,,,,,,,663.6735,664.6728,,,,,,,,,,,,,,,,,,,,,,,,,,664.6728,665.1151,m,1,0.4343,,665.1151,665.1151,,0,341,341,166,1,167,tespit,1929,87.6461,1745,0.1908,6,harmonic,,word,m,,,,,,,
,,,,2023-11-28_21h46.34.378,VH_v3,2023.2.3,Win32,143.9677512,,,,,,,,,,,,665.1153,666.1152,,,,,,,,,,,,,,,,,,,,,,,,,,666.1152,666.6569,m,1,0.528,,666.657,666.6571,,0,342,342,41,1,42,zengin,2193,99.6412,2015,0.2203,6,harmonic,1.65,word,m,,,,,,,
,,,,2023-11-28_21h46.34.378,VH_v3,2023.2.3,Win32,143.9677512,,,,,,,,,,,,666.6572,667.6572,,,,,,,,,,,,,,,,,,,,,,,,,,667.6572,668.1642,m,0,0.4954,,668.1643,668.1643,,0,343,343,354,1,355,dizdat,,,,,6,notharmonic,2.4,nw,z,,,,,,,
,,,,2023-11-28_21h46.34.378,VH_v3,2023.2.3,Win32,143.9677512,,,,,,,,,,,,668.1644,669.1672,,,,,,,,,,,,,,,,,,,,,,,,,,669.1672,669.845,m,1,0.6679,,669.845,669.8452,,0,344,344,178,1,179,aykırı,1094,49.707,1022,0.1117,6,harmonic,,word,m,,,,,,,
,,,,2023-11-28_21h46.34.378,VH_v3,2023.2.3,Win32,143.9677512,,,,,,,,,,,,669.8453,670.8453,,,,,,,,,,,,,,,,,,,,,,,,,,670.8453,671.4634,z,1,0.604,,671.4634,671.4635,,0,345,345,200,1,201,duftu,,,,,5,harmonic,2.5,nw,z,,,,,,,
,,,,2023-11-28_21h46.34.378,VH_v3,2023.2.3,Win32,143.9677512,,,,,,,,,,,,671.4636,672.4636,,,,,,,,,,,,,,,,,,,,,,,,,,672.4637,673.1471,z,1,0.674,,673.1471,673.1471,,0,346,346,346,1,347,mamit,,,,,5,notharmonic,1.85,nw,z,,,,,,,
,,,,2023-11-28_21h46.34.378,VH_v3,2023.2.3,Win32,143.9677512,,,,,,,,,,,,673.1473,674.1444,,,,,,,,,,,,,,,,,,,,,,,,,,674.1444,674.5334,z,1,0.3765,,674.5334,674.5334,,0,347,347,185,1,186,bebin,,,,,5,harmonic,1.7,nw,z,,,,,,,
,,,,2023-11-28_21h46.34.378,VH_v3,2023.2.3,Win32,143.9677512,,,,,,,,,,,,674.5336,675.5337,,,,,,,,,,,,,,,,,,,,,,,,,,675.5337,676.3393,m,1,0.7954,,676.3393,676.3394,,0,348,348,82,1,83,aday,1028,46.7082,873,0.0954,4,harmonic,1.45,word,m,,,,,,,
,,,,2023-11-28_21h46.34.378,VH_v3,2023.2.3,Win32,143.9677512,,,,,,,,,,,,676.3395,677.3349,,,,,,,,,,,,,,,,,,,,,,,,,,677.3349,677.6937,m,0,0.3483,,677.6938,677.6938,,0,349,349,224,1,225,binci,,,,,5,harmonic,1.5,nw,z,,,,,,,
,,,,2023-11-28_21h46.34.378,VH_v3,2023.2.3,Win32,143.9677512,,,,,,,,,,,,677.694,678.694,,,,,,,,,,,,,,,,,,,,,,,,,,678.694,679.3954,m,0,0.6895,,679.3954,679.3955,,0,350,350,312,1,313,izmal,,,,,5,notharmonic,1.8,nw,z,,,,,,,
,,,,2023-11-28_21h46.34.378,VH_v3,2023.2.3,Win32,143.9677512,,,,,,,,,,,,679.3957,680.3956,,,,,,,,,,,,,,,,,,,,,,,,,,680.3956,681.1874,z,1,0.7794,,681.1874,681.1875,,0,351,351,340,1,341,zizon,,,,,5,notharmonic,1.85,nw,z,,,,,,,
,,,,2023-11-28_21h46.34.378,VH_v3,2023.2.3,Win32,143.9677512,,,,,,,,,,,,681.1877,682.1877,,,,,,,,,,,,,,,,,,,,,,,,,,682.1877,683.3293,z,1,1.1322,,683.3293,683.3294,,0,352,352,294,1,295,fiyan,,,,,5,notharmonic,1.65,nw,z,,,,,,,
,,,,2023-11-28_21h46.34.378,VH_v3,2023.2.3,Win32,143.9677512,,,,,,,,,,,,683.3295,684.3293,,,,,,,,,,,,,,,,,,,,,,,,,,684.3293,684.9129,m,1,0.5766,,684.913,684.913,,0,353,353,118,1,119,deniz,5006,227.4528,4256,0.4653,5,harmonic,,word,m,,,,,,,
,,,,2023-11-28_21h46.34.378,VH_v3,2023.2.3,Win32,143.9677512,,,,,,,,,,,,684.9133,685.9104,,,,,,,,,,,,,,,,,,,,,,,,,,685.9104,686.6147,m,1,0.6948,,686.6147,686.6147,,0,354,354,11,1,12,umut,1988,90.3268,1818,0.1987,4,harmonic,1.55,word,m,,,,,,,
,,,,2023-11-28_21h46.34.378,VH_v3,2023.2.3,Win32,143.9677512,,,,,,,,,,,,686.6149,687.6123,,,,,,,,,,,,,,,,,,,,,,,,,,687.6123,688.7167,z,1,1.0927,,688.7167,688.7167,,0,355,355,214,1,215,yapa,,,,,4,harmonic,1,nw,z,,,,,,,
,,,,2023-11-28_21h46.34.378,VH_v3,2023.2.3,Win32,143.9677512,,,,,,,,,,,,688.7169,689.7192,,,,,,,,,,,,,,,,,,,,,,,,,,689.7192,690.3167,z,1,0.5904,,690.3167,690.3167,,0,356,356,311,1,312,mase,,,,,4,notharmonic,1.75,nw,z,,,,,,,
,,,,2023-11-28_21h46.34.378,VH_v3,2023.2.3,Win32,143.9677512,,,,,,,,,,,,690.317,691.3142,,,,,,,,,,,,,,,,,,,,,,,,,,691.3142,692.1755,m,1,0.8453,,692.1756,692.1756,,0,357,357,66,1,67,sanık,768,34.8949,699,0.0764,5,harmonic,1.85,word,m,,,,,,,
,,,,2023-11-28_21h46.34.378,VH_v3,2023.2.3,Win32,143.9677512,,,,,,,,,,,,692.1758,693.1758,,,,,,,,,,,,,,,,,,,,,,,,,,693.1758,693.8426,z,1,0.6551,,693.8426,693.8427,,0,358,358,205,1,206,sefbe,,,,,5,harmonic,2,nw,z,,,,,,,
,,,,2023-11-28_21h46.34.378,VH_v3,2023.2.3,Win32,143.9677512,,,,,,,,,,,,693.8428,694.8382,,,,,,,,,,,,,,,,,,,,,,,,,,694.8383,695.4748,m,1,0.629,,695.4748,695.4749,,0,359,359,43,1,44,geniş,3380,153.5738,3185,0.3482,5,harmonic,1.35,word,m,,,,,,,
,,,,2023-11-28_21h46.34.378,VH_v3,2023.2.3,Win32,143.9677512,,,,,,,,,,,,,,,,,,,,,,,,,,,,,,,,,,,,,,,,,,,,,,,,,,,,,,,,,,,,,,,,,,695.4752,697.6259,space,2.1415,