anket.started,anket.stopped,participant,session,date,expName,psychopyVersion,OS,frameRate,Welcome_screen.started,Welcome_screen.stopped,key_respwelcome.keys,key_respwelcome.rt,key_respwelcome.duration,intro_x.thisRepN,intro_x.thisTrialN,intro_x.thisN,intro_x.thisIndex,intro_x.ran,Introduction,Fixation.started,Fixation.stopped,Studypractice.started,Studypractice.stopped,key_respstudy.keys,key_respstudy.corr,key_respstudy.rt,key_respstudy.duration,rt,corr,Feedback.started,Feedback.stopped,practice_loop.thisRepN,practice_loop.thisTrialN,practice_loop.thisN,practice_loop.thisIndex,practice_loop.ran,item_nr_p,target_p,isHarmonic_p,target_cond_p,CorrAns_p,Instraction.started,Instraction.stopped,key_respınstraction.keys,key_respınstraction.rt,key_respınstraction.duration,TestTrial.started,TestTrial.stopped,key_respTest.keys,key_respTest.corr,key_respTest.rt,key_respTest.duration,Pause.started,Pause.stopped,key_resp_xx.keys,test_loop.thisRepN,test_loop.thisTrialN,test_loop.thisN,test_loop.thisIndex,test_loop.ran,item_nr,target,BlogFreq_A1,BlogFreqpm_A1,BlogCD_A1,BlogCDPc_A1,WordLength_A1,isHarmonic_A1,old20,target_cond,CorrAns,key_resp_xx.rt,key_resp_xx.duration,Goodbye_screen.started,Goodbye_screen.stopped,key_respgoodbye.keys,key_respgoodbye.rt,key_respgoodbye.duration
0.0004,0.0019,,,2023-11-28_12h11.40.531,VH_v3,2023.2.3,Win32,60.09976561,,,,,,,,,,,,,,,,,,,,,,,,,,,,,,,,,,,,,,,,,,,,,,,,,,,,,,,,,,,,,,,,,,,,,,
,,,,2023-11-28_12h11.40.531,VH_v3,2023.2.3,Win32,60.09976561,0.0313,2.3379,space,2.2895,,0,0,0,0,1,"Deneye hoş geldiniz,

Devam etmek için BOŞLUK tuşuna basınız.",,,,,,,,,,,,,,,,,,,,,,,,,,,,,,,,,,,,,,,,,,,,,,,,,,,,,,,,,,,
,,,,2023-11-28_12h11.40.531,VH_v3,2023.2.3,Win32,60.09976561,2.339,10.5839,space,8.2305,,0,1,1,1,1,"Bu çalışma Valencia Üniversitesi kapsamında yürütülmektedir. Deneydeki göreviniz, ekrana çıkacak Türkçe sözcüklerin kelime olup olmadığını belirlemenizdir. Eğer sözcük gerçek bir kelime ise ""m"" tuşuna, değil ise ""z"" tuşuna basınız.   

Devam etmek için BOŞLUK tuşuna basınız.",,,,,,,,,,,,,,,,,,,,,,,,,,,,,,,,,,,,,,,,,,,,,,,,,,,,,,,,,,,
,,,,2023-11-28_12h11.40.531,VH_v3,2023.2.3,Win32,60.09976561,10.5928,16.3782,space,5.7718,,0,2,2,2,1,"Her sözcük için en fazla iki saniyede cevap vermeniz beklenmektedir. Aksi takdirde deney bir sonraki sözcük ile devam eder. 
Bu çalışmada oldukça hızlı ve doğru cevaplama yapmanız beklenmektedir.

Devam etmek için BOŞLUK tuşuna basınız.",,,,,,,,,,,,,,,,,,,,,,,,,,,,,,,,,,,,,,,,,,,,,,,,,,,,,,,,,,,
,,,,2023-11-28_12h11.40.531,VH_v3,2023.2.3,Win32,60.09976561,16.3849,20.2578,space,3.8581,,0,3,3,3,1,"Çalışmaya başlamadan önce ufak bir pratik yer almaktadır.
Kelimedir: ""m""
Kelime değildir: ""z""

Pratik teste başlamak için BOŞLUK tuşuna basınız. ",,,,,,,,,,,,,,,,,,,,,,,,,,,,,,,,,,,,,,,,,,,,,,,,,,,,,,,,,,,
,,,,2023-11-28_12h11.40.531,VH_v3,2023.2.3,Win32,60.09976561,,,,,,,,,,,,20.287,21.269,21.2692,22.8671,z,1,1.5771,,1.5771,1,22.8673,24.3655,0,0,0,22,1,23,gizım,notharmonic,nw,z,,,,,,,,,,,,,,,,,,,,,,,,,,,,,,,,,,,,,
,,,,2023-11-28_12h11.40.531,VH_v3,2023.2.3,Win32,60.09976561,,,,,,,,,,,,24.366,25.3684,25.3684,27.2675,m,0,1.8825,,1.8825,0,27.2675,28.7612,0,1,1,17,1,18,pilar,notharmonic,nw,z,,,,,,,,,,,,,,,,,,,,,,,,,,,,,,,,,,,,,
,,,,2023-11-28_12h11.40.531,VH_v3,2023.2.3,Win32,60.09976561,,,,,,,,,,,,28.7617,29.7645,29.7645,30.8134,m,1,1.0328,,1.0328,1,30.8134,32.3116,0,2,2,0,1,1,hazır,harmonic,word,m,,,,,,,,,,,,,,,,,,,,,,,,,,,,,,,,,,,,,
,,,,2023-11-28_12h11.40.531,VH_v3,2023.2.3,Win32,60.09976561,,,,,,,,,,,,32.312,33.3067,33.3067,34.3102,z,1,0.9831,,0.9831,1,34.3103,35.8041,0,3,3,23,1,24,zarim,notharmonic,nw,z,,,,,,,,,,,,,,,,,,,,,,,,,,,,,,,,,,,,,
,,,,2023-11-28_12h11.40.531,VH_v3,2023.2.3,Win32,60.09976561,,,,,,,,,,,,35.8046,36.8071,36.8072,37.3735,m,1,0.5499,,0.5499,1,37.3736,38.8677,0,4,4,4,1,5,soğuk,harmonic,word,m,,,,,,,,,,,,,,,,,,,,,,,,,,,,,,,,,,,,,
,,,,2023-11-28_12h11.40.531,VH_v3,2023.2.3,Win32,60.09976561,,,,,,,,,,,,38.8681,39.8707,39.8707,40.8325,m,1,0.9333,,0.9333,1,40.8326,42.3311,0,5,5,8,1,9,bilim,harmonic,word,m,,,,,,,,,,,,,,,,,,,,,,,,,,,,,,,,,,,,,
,,,,2023-11-28_12h11.40.531,VH_v3,2023.2.3,Win32,60.09976561,,,,,,,,,,,,42.3316,43.3298,43.33,44.0004,m,1,0.65,,0.65,1,44.0006,45.4986,0,6,6,5,1,6,gizli,harmonic,word,m,,,,,,,,,,,,,,,,,,,,,,,,,,,,,,,,,,,,,
,,,,2023-11-28_12h11.40.531,VH_v3,2023.2.3,Win32,60.09976561,,,,,,,,,,,,45.499,46.4956,46.4956,47.3925,z,1,0.8755,,0.8755,1,47.3925,48.8911,0,7,7,12,1,13,tahip,notharmonic,nw,z,,,,,,,,,,,,,,,,,,,,,,,,,,,,,,,,,,,,,
,,,,2023-11-28_12h11.40.531,VH_v3,2023.2.3,Win32,60.09976561,,,,,,,,,,,,48.8916,49.8901,49.8901,50.6393,m,1,0.7254,,0.7254,1,50.6393,52.1378,0,8,8,1,1,2,veri,harmonic,word,m,,,,,,,,,,,,,,,,,,,,,,,,,,,,,,,,,,,,,
,,,,2023-11-28_12h11.40.531,VH_v3,2023.2.3,Win32,60.09976561,,,,,,,,,,,,52.1382,53.1407,53.1408,53.7363,m,1,0.5673,,0.5673,1,53.7363,55.2347,0,9,9,9,1,10,zarar,harmonic,word,m,,,,,,,,,,,,,,,,,,,,,,,,,,,,,,,,,,,,,
,,,,2023-11-28_12h11.40.531,VH_v3,2023.2.3,Win32,60.09976561,,,,,,,,,,,,55.2352,56.2379,56.2379,57.1852,m,1,0.931,,0.931,1,57.1853,58.6812,0,10,10,2,1,3,yardım,harmonic,word,m,,,,,,,,,,,,,,,,,,,,,,,,,,,,,,,,,,,,,
,,,,2023-11-28_12h11.40.531,VH_v3,2023.2.3,Win32,60.09976561,,,,,,,,,,,,58.6818,59.6825,59.6825,60.3634,m,1,0.6502,,0.6502,1,60.3634,61.8617,0,11,11,6,1,7,sebep,harmonic,word,m,,,,,,,,,,,,,,,,,,,,,,,,,,,,,,,,,,,,,
,,,,2023-11-28_12h11.40.531,VH_v3,2023.2.3,Win32,60.09976561,,,,,,,,,,,,61.8623,62.8606,62.8606,63.5145,z,1,0.6333,,0.6333,1,63.5145,65.0106,0,12,12,19,1,20,mımal,harmonic,nw,z,,,,,,,,,,,,,,,,,,,,,,,,,,,,,,,,,,,,,
,,,,2023-11-28_12h11.40.531,VH_v3,2023.2.3,Win32,60.09976561,,,,,,,,,,,,65.0114,66.0114,66.0115,67.0563,z,1,1.0207,,1.0207,1,67.0563,68.5588,0,13,13,18,1,19,pimer,harmonic,nw,z,,,,,,,,,,,,,,,,,,,,,,,,,,,,,,,,,,,,,
,,,,2023-11-28_12h11.40.531,VH_v3,2023.2.3,Win32,60.09976561,,,,,,,,,,,,68.5592,69.5543,69.5543,70.3866,m,0,0.8045,,0.8045,0,70.3866,71.8853,0,14,14,15,1,16,geki,harmonic,nw,z,,,,,,,,,,,,,,,,,,,,,,,,,,,,,,,,,,,,,
,,,,2023-11-28_12h11.40.531,VH_v3,2023.2.3,Win32,60.09976561,,,,,,,,,,,,71.8876,72.8841,72.8841,73.5665,m,1,0.6629,,0.6629,1,73.5665,75.065,0,15,15,3,1,4,sevgi,harmonic,word,m,,,,,,,,,,,,,,,,,,,,,,,,,,,,,,,,,,,,,
,,,,2023-11-28_12h11.40.531,VH_v3,2023.2.3,Win32,60.09976561,,,,,,,,,,,,75.0655,76.0643,76.0643,76.7133,m,1,0.6356,,0.6356,1,76.7134,78.2118,0,16,16,10,1,11,nefret,harmonic,word,m,,,,,,,,,,,,,,,,,,,,,,,,,,,,,,,,,,,,,
,,,,2023-11-28_12h11.40.531,VH_v3,2023.2.3,Win32,60.09976561,,,,,,,,,,,,78.2123,79.2109,79.2109,79.96,z,1,0.7395,,0.7395,1,79.9601,81.4588,0,17,17,13,1,14,orat,harmonic,nw,z,,,,,,,,,,,,,,,,,,,,,,,,,,,,,,,,,,,,,
,,,,2023-11-28_12h11.40.531,VH_v3,2023.2.3,Win32,60.09976561,,,,,,,,,,,,81.4593,82.4577,82.4578,83.2236,m,1,0.7471,,0.7471,1,83.2237,84.7221,0,18,18,7,1,8,oran,harmonic,word,m,,,,,,,,,,,,,,,,,,,,,,,,,,,,,,,,,,,,,
,,,,2023-11-28_12h11.40.531,VH_v3,2023.2.3,Win32,60.09976561,,,,,,,,,,,,84.7225,85.7211,85.7211,86.5536,z,1,0.8139,,0.8139,1,86.5537,88.0524,0,19,19,14,1,15,mahne,notharmonic,nw,z,,,,,,,,,,,,,,,,,,,,,,,,,,,,,,,,,,,,,
,,,,2023-11-28_12h11.40.531,VH_v3,2023.2.3,Win32,60.09976561,,,,,,,,,,,,88.0528,89.0514,89.0514,89.6841,z,1,0.6188,,0.6188,1,89.6842,91.1869,0,20,20,16,1,17,ihlot,notharmonic,nw,z,,,,,,,,,,,,,,,,,,,,,,,,,,,,,,,,,,,,,
,,,,2023-11-28_12h11.40.531,VH_v3,2023.2.3,Win32,60.09976561,,,,,,,,,,,,91.1874,92.1857,92.1857,92.9517,m,1,0.7499,,0.7499,1,92.9517,94.4501,0,21,21,11,1,12,teslim,harmonic,word,m,,,,,,,,,,,,,,,,,,,,,,,,,,,,,,,,,,,,,
,,,,2023-11-28_12h11.40.531,VH_v3,2023.2.3,Win32,60.09976561,,,,,,,,,,,,94.4503,95.4493,95.4493,96.182,z,1,0.7166,,0.7166,1,96.182,97.68,0,22,22,21,1,22,güçli,harmonic,nw,z,,,,,,,,,,,,,,,,,,,,,,,,,,,,,,,,,,,,,
,,,,2023-11-28_12h11.40.531,VH_v3,2023.2.3,Win32,60.09976561,,,,,,,,,,,,97.6804,98.6791,98.6791,100.0447,z,1,1.3494,,1.3494,1,100.0447,101.5431,0,23,23,20,1,21,yoğuk,harmonic,nw,z,,,,,,,,,,,,,,,,,,,,,,,,,,,,,,,,,,,,,
,,,,2023-11-28_12h11.40.531,VH_v3,2023.2.3,Win32,60.09976561,,,,,,,,,,,,,,,,,,,,,,,,,,,,,,,,,,101.5437,106.2723,space,4.7106,,,,,,,,,,,,,,,,,,,,,,,,,,,,,,,,,
,,,,2023-11-28_12h11.40.531,VH_v3,2023.2.3,Win32,60.09976561,,,,,,,,,,,,106.4247,107.283,,,,,,,,,,,,,,,,,,,,,,,,,,107.2834,108.17,m,1,0.8563,,108.17,108.171,,0,0,0,104,1,105,çizgi,1340,60.8843,1074,0.1174,5,harmonic,,word,m,,,,,,,
,,,,2023-11-28_12h11.40.531,VH_v3,2023.2.3,Win32,60.09976561,,,,,,,,,,,,108.1714,109.1645,,,,,,,,,,,,,,,,,,,,,,,,,,109.1646,109.8138,m,1,0.6217,,109.8139,109.814,,0,1,1,89,1,90,etki,1234,56.0681,1169,0.1278,4,harmonic,1.4,word,m,,,,,,,
,,,,2023-11-28_12h11.40.531,VH_v3,2023.2.3,Win32,60.09976561,,,,,,,,,,,,109.8145,110.8128,,,,,,,,,,,,,,,,,,,,,,,,,,110.8129,111.4333,m,1,0.6,,111.4335,111.4335,,0,2,2,80,1,81,merkez,1445,65.6551,1255,0.1372,6,harmonic,1.8,word,m,,,,,,,
,,,,2023-11-28_12h11.40.531,VH_v3,2023.2.3,Win32,60.09976561,,,,,,,,,,,,111.434,112.4279,,,,,,,,,,,,,,,,,,,,,,,,,,112.428,113.082,z,1,0.6335,,113.0821,113.0823,,0,3,3,357,1,358,harim,,,,,5,notharmonic,,nw,z,,,,,,,
,,,,2023-11-28_12h11.40.531,VH_v3,2023.2.3,Win32,60.09976561,,,,,,,,,,,,113.0826,114.0765,,,,,,,,,,,,,,,,,,,,,,,,,,114.0766,115.1587,z,1,1.0569,,115.1589,115.159,,0,4,4,245,1,246,mahram,,,,,6,harmonic,1.85,nw,z,,,,,,,
,,,,2023-11-28_12h11.40.531,VH_v3,2023.2.3,Win32,60.09976561,,,,,,,,,,,,115.1595,116.1577,,,,,,,,,,,,,,,,,,,,,,,,,,116.1578,116.7764,z,1,0.5981,,116.7764,116.7765,,0,5,5,205,1,206,sefbe,,,,,5,harmonic,2,nw,z,,,,,,,
,,,,2023-11-28_12h11.40.531,VH_v3,2023.2.3,Win32,60.09976561,,,,,,,,,,,,116.7769,117.6283,,,,,,,,,,,,,,,,,,,,,,,,,,117.6285,118.2888,z,1,0.6394,,118.2889,118.289,,0,6,6,296,1,297,taeri,,,,,5,notharmonic,2,nw,z,,,,,,,
,,,,2023-11-28_12h11.40.531,VH_v3,2023.2.3,Win32,60.09976561,,,,,,,,,,,,118.2896,119.2877,,,,,,,,,,,,,,,,,,,,,,,,,,119.2877,119.8248,m,1,0.5166,,119.8249,119.825,,0,7,7,138,1,139,yazar,3175,144.2594,2877,0.3145,5,harmonic,,word,m,,,,,,,
,,,,2023-11-28_12h11.40.531,VH_v3,2023.2.3,Win32,60.09976561,,,,,,,,,,,,119.8253,120.8195,,,,,,,,,,,,,,,,,,,,,,,,,,120.8196,121.5066,m,1,0.6666,,121.5067,121.5068,,0,8,8,69,1,70,forma,719,32.6685,597,0.0653,5,harmonic,1.8,word,m,,,,,,,
,,,,2023-11-28_12h11.40.531,VH_v3,2023.2.3,Win32,60.09976561,,,,,,,,,,,,121.5073,122.5012,,,,,,,,,,,,,,,,,,,,,,,,,,122.5013,123.0533,m,1,0.5316,,123.0533,123.0534,,0,9,9,22,1,23,anlam,1730,78.6043,1617,0.1768,5,harmonic,1.25,word,m,,,,,,,
,,,,2023-11-28_12h11.40.531,VH_v3,2023.2.3,Win32,60.09976561,,,,,,,,,,,,123.0538,124.0538,,,,,,,,,,,,,,,,,,,,,,,,,,124.0539,124.8988,z,1,0.8281,,124.8988,124.8989,,0,10,10,274,1,275,rikal,,,,,5,notharmonic,1.85,nw,z,,,,,,,
,,,,2023-11-28_12h11.40.531,VH_v3,2023.2.3,Win32,60.09976561,,,,,,,,,,,,124.8994,125.898,,,,,,,,,,,,,,,,,,,,,,,,,,125.8981,126.9468,m,1,1.0267,,126.9468,126.947,,0,11,11,111,1,112,soğan,1315,59.7484,1202,0.1314,5,harmonic,,word,m,,,,,,,
,,,,2023-11-28_12h11.40.531,VH_v3,2023.2.3,Win32,60.09976561,,,,,,,,,,,,126.9475,127.9458,,,,,,,,,,,,,,,,,,,,,,,,,,127.9459,129.1614,z,1,1.1851,,129.1615,129.1616,,0,12,12,252,1,253,savanı,,,,,6,harmonic,1.85,nw,z,,,,,,,
,,,,2023-11-28_12h11.40.531,VH_v3,2023.2.3,Win32,60.09976561,,,,,,,,,,,,129.1621,130.1603,,,,,,,,,,,,,,,,,,,,,,,,,,130.1604,130.9261,m,1,0.7425,,130.9261,130.9262,,0,13,13,28,1,29,parlak,1142,51.888,1088,0.1189,6,harmonic,1.7,word,m,,,,,,,
,,,,2023-11-28_12h11.40.531,VH_v3,2023.2.3,Win32,60.09976561,,,,,,,,,,,,130.9266,131.9254,,,,,,,,,,,,,,,,,,,,,,,,,,131.9255,132.5456,m,1,0.5999,,132.5457,132.5458,,0,14,14,121,1,122,şeker,4708,213.9128,4170,0.4559,5,harmonic,,word,m,,,,,,,
,,,,2023-11-28_12h11.40.531,VH_v3,2023.2.3,Win32,60.09976561,,,,,,,,,,,,132.5461,133.5404,,,,,,,,,,,,,,,,,,,,,,,,,,133.5404,134.4086,m,1,0.8478,,134.4087,134.4087,,0,15,15,53,1,54,gelir,7578,344.3143,7014,0.7668,5,harmonic,1.4,word,m,,,,,,,
,,,,2023-11-28_12h11.40.531,VH_v3,2023.2.3,Win32,60.09976561,,,,,,,,,,,,134.4091,135.4109,,,,,,,,,,,,,,,,,,,,,,,,,,135.4109,136.3208,m,1,0.8895,,136.3209,136.3211,,0,16,16,55,1,56,akıl,2208,100.3228,2004,0.2191,4,harmonic,1,word,m,,,,,,,
,,,,2023-11-28_12h11.40.531,VH_v3,2023.2.3,Win32,60.09976561,,,,,,,,,,,,136.3215,137.3198,,,,,,,,,,,,,,,,,,,,,,,,,,137.3199,137.9736,z,1,0.6331,,137.9737,137.9737,,0,17,17,303,1,304,hahir,,,,,5,notharmonic,1.55,nw,z,,,,,,,
,,,,2023-11-28_12h11.40.531,VH_v3,2023.2.3,Win32,60.09976561,,,,,,,,,,,,137.974,138.9682,,,,,,,,,,,,,,,,,,,,,,,,,,138.9683,139.6718,z,1,0.683,,139.6719,139.6719,,0,18,18,209,1,210,çirre,,,,,5,harmonic,2,nw,z,,,,,,,
,,,,2023-11-28_12h11.40.531,VH_v3,2023.2.3,Win32,60.09976561,,,,,,,,,,,,139.6725,140.6665,,,,,,,,,,,,,,,,,,,,,,,,,,140.6666,141.4658,m,1,0.7712,,141.4658,141.466,,0,19,19,14,1,15,yaşam,4348,197.5559,3918,0.4283,5,harmonic,1.4,word,m,,,,,,,
,,,,2023-11-28_12h11.40.531,VH_v3,2023.2.3,Win32,60.09976561,,,,,,,,,,,,141.4665,142.4648,,,,,,,,,,,,,,,,,,,,,,,,,,142.4649,143.6998,z,1,1.2143,,143.6998,143.6999,,0,20,20,259,1,260,üreyeş,,,,,6,harmonic,2.9,nw,z,,,,,,,
,,,,2023-11-28_12h11.40.531,VH_v3,2023.2.3,Win32,60.09976561,,,,,,,,,,,,143.7004,144.6961,,,,,,,,,,,,,,,,,,,,,,,,,,144.6962,145.695,m,1,0.9734,,145.6951,145.6952,,0,21,21,161,1,162,servis,3344,151.9381,2968,0.3245,6,harmonic,,word,m,,,,,,,
,,,,2023-11-28_12h11.40.531,VH_v3,2023.2.3,Win32,60.09976561,,,,,,,,,,,,145.6958,146.6938,,,,,,,,,,,,,,,,,,,,,,,,,,146.6938,147.4122,z,1,0.6977,,147.4123,147.4124,,0,22,22,250,1,251,çonsa,,,,,5,harmonic,1.9,nw,z,,,,,,,
,,,,2023-11-28_12h11.40.531,VH_v3,2023.2.3,Win32,60.09976561,,,,,,,,,,,,147.4128,148.4088,,,,,,,,,,,,,,,,,,,,,,,,,,148.4089,149.3914,m,1,0.9548,,149.3914,149.3916,,0,23,23,39,1,40,yaygın,1061,48.2076,1019,0.1114,6,harmonic,1.35,word,m,,,,,,,
,,,,2023-11-28_12h11.40.531,VH_v3,2023.2.3,Win32,60.09976561,,,,,,,,,,,,149.3921,150.3902,,,,,,,,,,,,,,,,,,,,,,,,,,150.3904,151.0062,m,1,0.5834,,151.0063,151.0063,,0,24,24,71,1,72,örnek,3463,157.345,3266,0.357,5,harmonic,1.85,word,m,,,,,,,
,,,,2023-11-28_12h11.40.531,VH_v3,2023.2.3,Win32,60.09976561,,,,,,,,,,,,151.0068,152.0053,,,,,,,,,,,,,,,,,,,,,,,,,,152.0053,152.5881,m,1,0.5529,,152.5881,152.5882,,0,25,25,18,1,19,normal,4154,188.7413,3788,0.4141,6,harmonic,1.75,word,m,,,,,,,
,,,,2023-11-28_12h11.40.531,VH_v3,2023.2.3,Win32,60.09976561,,,,,,,,,,,,152.5888,153.587,,,,,,,,,,,,,,,,,,,,,,,,,,153.5871,154.1531,m,1,0.5338,,154.1531,154.1532,,0,26,26,114,1,115,türlü,7010,318.5066,6559,0.717,5,harmonic,,word,m,,,,,,,
,,,,2023-11-28_12h11.40.531,VH_v3,2023.2.3,Win32,60.09976561,,,,,,,,,,,,154.1539,155.1521,,,,,,,,,,,,,,,,,,,,,,,,,,155.1522,155.6848,m,1,0.5062,,155.6849,155.685,,0,27,27,94,1,95,bütün,18630,846.4733,16711,1.8269,5,harmonic,,word,m,,,,,,,
,,,,2023-11-28_12h11.40.531,VH_v3,2023.2.3,Win32,60.09976561,,,,,,,,,,,,155.6856,156.6839,,,,,,,,,,,,,,,,,,,,,,,,,,156.6839,157.4377,z,1,0.7331,,157.4377,157.4378,,0,28,28,342,1,343,çaneke,,,,,6,notharmonic,2.6,nw,z,,,,,,,
,,,,2023-11-28_12h11.40.531,VH_v3,2023.2.3,Win32,60.09976561,,,,,,,,,,,,157.4381,158.4321,,,,,,,,,,,,,,,,,,,,,,,,,,158.4322,159.1315,z,1,0.6668,,159.1315,159.1317,,0,29,29,354,1,355,dizdat,,,,,6,notharmonic,2.4,nw,z,,,,,,,
,,,,2023-11-28_12h11.40.531,VH_v3,2023.2.3,Win32,60.09976561,,,,,,,,,,,,159.1322,160.1305,,,,,,,,,,,,,,,,,,,,,,,,,,160.1306,160.7798,m,1,0.6246,,160.7798,160.7799,,0,30,30,86,1,87,gerçek,8983,408.1519,8058,0.8809,6,harmonic,1.7,word,m,,,,,,,
,,,,2023-11-28_12h11.40.531,VH_v3,2023.2.3,Win32,60.09976561,,,,,,,,,,,,160.7805,161.7828,,,,,,,,,,,,,,,,,,,,,,,,,,161.7828,162.3142,m,1,0.5148,,162.3142,162.3143,,0,31,31,97,1,98,kadın,10751,488.4828,8665,0.9473,5,harmonic,,word,m,,,,,,,
,,,,2023-11-28_12h11.40.531,VH_v3,2023.2.3,Win32,60.09976561,,,,,,,,,,,,162.3146,163.4022,,,,,,,,,,,,,,,,,,,,,,,,,,163.4022,163.8933,m,1,0.4751,,163.8934,163.8935,,0,32,32,8,1,9,güven,1433,65.1098,1300,0.1421,5,harmonic,1.35,word,m,,,,,,,
,,,,2023-11-28_12h11.40.531,VH_v3,2023.2.3,Win32,60.09976561,,,,,,,,,,,,163.8938,164.8925,,,,,,,,,,,,,,,,,,,,,,,,,,164.8926,165.475,m,1,0.5717,,165.475,165.4752,,0,33,33,34,1,35,hoca,1893,86.0104,1526,0.1668,4,harmonic,1.45,word,m,,,,,,,
,,,,2023-11-28_12h11.40.531,VH_v3,2023.2.3,Win32,60.09976561,,,,,,,,,,,,165.4756,166.4741,,,,,,,,,,,,,,,,,,,,,,,,,,166.4742,167.1401,z,1,0.6475,,167.1401,167.1403,,0,34,34,228,1,229,nekir,,,,,5,harmonic,1.65,nw,z,,,,,,,
,,,,2023-11-28_12h11.40.531,VH_v3,2023.2.3,Win32,60.09976561,,,,,,,,,,,,167.1406,168.1392,,,,,,,,,,,,,,,,,,,,,,,,,,168.1392,169.2383,z,1,1.0787,,169.2384,169.2385,,0,35,35,289,1,290,minkon,,,,,6,notharmonic,2.2,nw,z,,,,,,,
,,,,2023-11-28_12h11.40.531,VH_v3,2023.2.3,Win32,60.09976561,,,,,,,,,,,,169.239,170.2372,,,,,,,,,,,,,,,,,,,,,,,,,,170.2372,170.87,m,1,0.6133,,170.87,170.8702,,0,36,36,177,1,178,mutfak,1110,50.434,1032,0.1128,6,harmonic,,word,m,,,,,,,
,,,,2023-11-28_12h11.40.531,VH_v3,2023.2.3,Win32,60.09976561,,,,,,,,,,,,170.8706,171.8714,,,,,,,,,,,,,,,,,,,,,,,,,,171.8715,172.5543,z,1,0.6646,,172.5543,172.5545,,0,37,37,211,1,212,metel,,,,,5,harmonic,1.75,nw,z,,,,,,,
,,,,2023-11-28_12h11.40.531,VH_v3,2023.2.3,Win32,60.09976561,,,,,,,,,,,,172.5549,173.6744,,,,,,,,,,,,,,,,,,,,,,,,,,173.6744,174.6993,m,1,1.0026,,174.6993,174.6994,,0,38,38,6,1,7,hayal,4498,204.3713,4079,0.4459,5,harmonic,1.45,word,m,,,,,,,
,,,,2023-11-28_12h11.40.531,VH_v3,2023.2.3,Win32,60.09976561,,,,,,,,,,,,174.7067,175.6985,,,,,,,,,,,,,,,,,,,,,,,,,,175.6985,176.3311,z,1,0.6069,,176.3311,176.3312,,0,39,39,262,1,263,ürze,,,,,4,harmonic,1.95,nw,z,,,,,,,
,,,,2023-11-28_12h11.40.531,VH_v3,2023.2.3,Win32,60.09976561,,,,,,,,,,,,176.3317,177.3301,,,,,,,,,,,,,,,,,,,,,,,,,,177.3301,179.2284,z,1,1.8658,,179.2285,179.2286,,0,40,40,327,1,328,zena,,,,,4,notharmonic,1.65,nw,z,,,,,,,
,,,,2023-11-28_12h11.40.531,VH_v3,2023.2.3,Win32,60.09976561,,,,,,,,,,,,179.2366,180.2274,,,,,,,,,,,,,,,,,,,,,,,,,,180.2274,181.043,z,1,0.7825,,181.0431,181.0432,,0,41,41,181,1,182,erben,,,,,5,harmonic,1.8,nw,z,,,,,,,
,,,,2023-11-28_12h11.40.531,VH_v3,2023.2.3,Win32,60.09976561,,,,,,,,,,,,181.0437,182.042,,,,,,,,,,,,,,,,,,,,,,,,,,182.0421,182.6913,z,1,0.6229,,182.6913,182.6915,,0,42,42,221,1,222,ülük,,,,,4,harmonic,1.55,nw,z,,,,,,,
,,,,2023-11-28_12h11.40.531,VH_v3,2023.2.3,Win32,60.09976561,,,,,,,,,,,,182.6919,183.6905,,,,,,,,,,,,,,,,,,,,,,,,,,183.6906,184.8226,z,1,1.106,,184.8226,184.8227,,0,43,43,212,1,213,toya,,,,,4,harmonic,1.6,nw,z,,,,,,,
,,,,2023-11-28_12h11.40.531,VH_v3,2023.2.3,Win32,60.09976561,,,,,,,,,,,,184.8232,185.8215,,,,,,,,,,,,,,,,,,,,,,,,,,185.8216,186.6067,m,1,0.7646,,186.6067,186.6069,,0,44,44,148,1,149,ışık,1814,82.421,1635,0.1787,4,harmonic,,word,m,,,,,,,
,,,,2023-11-28_12h11.40.531,VH_v3,2023.2.3,Win32,60.09976561,,,,,,,,,,,,186.6072,187.6033,,,,,,,,,,,,,,,,,,,,,,,,,,187.6033,188.4566,z,1,0.833,,188.4567,188.4568,,0,45,45,325,1,326,icanat,,,,,6,notharmonic,2.25,nw,z,,,,,,,
,,,,2023-11-28_12h11.40.531,VH_v3,2023.2.3,Win32,60.09976561,,,,,,,,,,,,188.4572,189.4554,,,,,,,,,,,,,,,,,,,,,,,,,,189.4555,190.0508,z,1,0.5767,,190.0508,190.0509,,0,46,46,307,1,308,masil,,,,,5,notharmonic,1.65,nw,z,,,,,,,
,,,,2023-11-28_12h11.40.531,VH_v3,2023.2.3,Win32,60.09976561,,,,,,,,,,,,190.0514,191.0498,,,,,,,,,,,,,,,,,,,,,,,,,,191.0498,191.5705,m,1,0.5002,,191.5705,191.5705,,0,47,47,110,1,111,beden,1333,60.5662,1119,0.1223,5,harmonic,,word,m,,,,,,,
,,,,2023-11-28_12h11.40.531,VH_v3,2023.2.3,Win32,60.09976561,,,,,,,,,,,,191.5712,192.5649,,,,,,,,,,,,,,,,,,,,,,,,,,192.565,193.3143,z,1,0.723,,193.3144,193.3145,,0,48,48,241,1,242,sılman,,,,,6,harmonic,2,nw,z,,,,,,,
,,,,2023-11-28_12h11.40.531,VH_v3,2023.2.3,Win32,60.09976561,,,,,,,,,,,,193.315,194.3132,,,,,,,,,,,,,,,,,,,,,,,,,,194.3132,194.9958,m,1,0.6621,,194.9959,194.996,,0,49,49,113,1,114,akşam,7480,339.8615,6833,0.747,5,harmonic,,word,m,,,,,,,
,,,,2023-11-28_12h11.40.531,VH_v3,2023.2.3,Win32,60.09976561,,,,,,,,,,,,194.9967,195.9991,,,,,,,,,,,,,,,,,,,,,,,,,,195.9992,197.3435,z,1,1.3279,,197.3436,197.3437,,0,50,50,323,1,324,itkea,,,,,5,notharmonic,2.35,nw,z,,,,,,,
,,,,2023-11-28_12h11.40.531,VH_v3,2023.2.3,Win32,60.09976561,,,,,,,,,,,,197.3443,198.3426,,,,,,,,,,,,,,,,,,,,,,,,,,198.3427,198.98,z,1,0.6167,,198.98,198.9801,,0,51,51,201,1,202,azlaş,,,,,5,harmonic,1.8,nw,z,,,,,,,
,,,,2023-11-28_12h11.40.531,VH_v3,2023.2.3,Win32,60.09976561,,,,,,,,,,,,198.9805,199.9744,,,,,,,,,,,,,,,,,,,,,,,,,,199.9744,200.4618,m,1,0.4667,,200.4618,200.462,,0,52,52,10,1,11,bardak,1728,78.5135,1569,0.1715,6,harmonic,1.6,word,m,,,,,,,
,,,,2023-11-28_12h11.40.531,VH_v3,2023.2.3,Win32,60.09976561,,,,,,,,,,,,200.4623,201.4601,,,,,,,,,,,,,,,,,,,,,,,,,,201.4601,202.2388,m,1,0.7577,,202.2388,202.2389,,0,53,53,144,1,145,şiir,2213,100.5499,1690,0.1848,4,harmonic,,word,m,,,,,,,
,,,,2023-11-28_12h11.40.531,VH_v3,2023.2.3,Win32,60.09976561,,,,,,,,,,,,202.2395,203.2417,,,,,,,,,,,,,,,,,,,,,,,,,,203.2418,204.0535,z,1,0.7879,,204.0536,204.0536,,0,54,54,192,1,193,kusu,,,,,4,harmonic,1.5,nw,z,,,,,,,
,,,,2023-11-28_12h11.40.531,VH_v3,2023.2.3,Win32,60.09976561,,,,,,,,,,,,204.0543,205.0526,,,,,,,,,,,,,,,,,,,,,,,,,,205.0526,205.7544,m,1,0.6812,,205.7544,205.7545,,0,55,55,85,1,86,geçmiş,4195,190.6042,4039,0.4415,6,harmonic,1.55,word,m,,,,,,,
,,,,2023-11-28_12h11.40.531,VH_v3,2023.2.3,Win32,60.09976561,,,,,,,,,,,,205.7548,206.7508,,,,,,,,,,,,,,,,,,,,,,,,,,206.7508,207.4001,m,1,0.6243,,207.4002,207.4004,,0,56,56,3,1,4,minik,2916,132.4915,2594,0.2836,5,harmonic,1.6,word,m,,,,,,,
,,,,2023-11-28_12h11.40.531,VH_v3,2023.2.3,Win32,60.09976561,,,,,,,,,,,,207.4008,208.3991,,,,,,,,,,,,,,,,,,,,,,,,,,208.3992,209.051,z,1,0.6314,,209.0511,209.0511,,0,57,57,200,1,201,duftu,,,,,5,harmonic,2.5,nw,z,,,,,,,
,,,,2023-11-28_12h11.40.531,VH_v3,2023.2.3,Win32,60.09976561,,,,,,,,,,,,209.0515,210.0476,,,,,,,,,,,,,,,,,,,,,,,,,,210.0477,210.7302,z,1,0.6572,,210.7302,210.7304,,0,58,58,227,1,228,temzik,,,,,6,harmonic,1.9,nw,z,,,,,,,
,,,,2023-11-28_12h11.40.531,VH_v3,2023.2.3,Win32,60.09976561,,,,,,,,,,,,210.7308,211.7318,,,,,,,,,,,,,,,,,,,,,,,,,,211.7318,212.3287,m,1,0.5666,,212.3287,212.3288,,0,59,59,146,1,147,sarı,2072,94.1435,1838,0.2009,4,harmonic,,word,m,,,,,,,
,,,,2023-11-28_12h11.40.531,VH_v3,2023.2.3,Win32,60.09976561,,,,,,,,,,,,212.3292,213.3299,,,,,,,,,,,,,,,,,,,,,,,,,,213.3299,213.9771,m,1,0.6219,,213.9771,213.9772,,0,60,60,170,1,171,parmak,1268,57.6129,1165,0.1274,6,harmonic,,word,m,,,,,,,
,,,,2023-11-28_12h11.40.531,VH_v3,2023.2.3,Win32,60.09976561,,,,,,,,,,,,213.9776,214.976,,,,,,,,,,,,,,,,,,,,,,,,,,214.9761,215.5253,z,1,0.526,,215.5254,215.5255,,0,61,61,203,1,204,yırdun,,,,,6,harmonic,2.8,nw,z,,,,,,,
,,,,2023-11-28_12h11.40.531,VH_v3,2023.2.3,Win32,60.09976561,,,,,,,,,,,,215.526,216.5244,,,,,,,,,,,,,,,,,,,,,,,,,,216.5245,217.1239,z,1,0.5668,,217.124,217.1241,,0,62,62,202,1,203,kulom,,,,,5,harmonic,2,nw,z,,,,,,,
,,,,2023-11-28_12h11.40.531,VH_v3,2023.2.3,Win32,60.09976561,,,,,,,,,,,,217.1245,218.1228,,,,,,,,,,,,,,,,,,,,,,,,,,218.1228,218.7223,z,1,0.569,,218.7224,218.7224,,0,63,63,183,1,184,titik,,,,,5,harmonic,1.7,nw,z,,,,,,,
,,,,2023-11-28_12h11.40.531,VH_v3,2023.2.3,Win32,60.09976561,,,,,,,,,,,,218.723,219.7213,,,,,,,,,,,,,,,,,,,,,,,,,,219.7214,220.2042,m,1,0.4583,,220.2043,220.2044,,0,64,64,171,1,172,şirket,1227,55.75,1022,0.1117,6,harmonic,,word,m,,,,,,,
,,,,2023-11-28_12h11.40.531,VH_v3,2023.2.3,Win32,60.09976561,,,,,,,,,,,,220.2049,221.2031,,,,,,,,,,,,,,,,,,,,,,,,,,221.2032,221.7859,m,1,0.5539,,221.786,221.786,,0,65,65,52,1,53,resim,2506,113.8627,2188,0.2392,5,harmonic,1.4,word,m,,,,,,,
,,,,2023-11-28_12h11.40.531,VH_v3,2023.2.3,Win32,60.09976561,,,,,,,,,,,,221.7865,222.7872,,,,,,,,,,,,,,,,,,,,,,,,,,222.7873,223.3702,z,1,0.5648,,223.3702,223.3702,,0,66,66,198,1,199,ıdol,,,,,4,harmonic,1.9,nw,z,,,,,,,
,,,,2023-11-28_12h11.40.531,VH_v3,2023.2.3,Win32,60.09976561,,,,,,,,,,,,223.3706,224.3666,,,,,,,,,,,,,,,,,,,,,,,,,,224.3667,226.3647,,0,,,226.3649,226.365,,0,67,67,304,1,305,irak,,,,,4,notharmonic,1.55,nw,z,,,,,,,
,,,,2023-11-28_12h11.40.531,VH_v3,2023.2.3,Win32,60.09976561,,,,,,,,,,,,226.3654,227.3637,,,,,,,,,,,,,,,,,,,,,,,,,,227.3638,228.7833,z,1,1.3991,,228.7834,228.7834,,0,68,68,328,1,329,tadit,,,,,5,notharmonic,1.8,nw,z,,,,,,,
,,,,2023-11-28_12h11.40.531,VH_v3,2023.2.3,Win32,60.09976561,,,,,,,,,,,,228.7838,229.7781,,,,,,,,,,,,,,,,,,,,,,,,,,229.7783,230.4606,z,1,0.6552,,230.4606,230.4608,,0,69,69,194,1,195,yabum,,,,,5,harmonic,2,nw,z,,,,,,,
,,,,2023-11-28_12h11.40.531,VH_v3,2023.2.3,Win32,60.09976561,,,,,,,,,,,,230.4613,231.4596,,,,,,,,,,,,,,,,,,,,,,,,,,231.4597,232.0757,z,1,0.5859,,232.0758,232.076,,0,70,70,316,1,317,karkiş,,,,,6,notharmonic,2,nw,z,,,,,,,
,,,,2023-11-28_12h11.40.531,VH_v3,2023.2.3,Win32,60.09976561,,,,,,,,,,,,232.0766,233.079,,,,,,,,,,,,,,,,,,,,,,,,,,233.079,233.6074,m,1,0.5,,233.6075,233.6076,,0,71,71,112,1,113,genel,7752,352.2201,6893,0.7535,5,harmonic,,word,m,,,,,,,
,,,,2023-11-28_12h11.40.531,VH_v3,2023.2.3,Win32,60.09976561,,,,,,,,,,,,233.6081,234.6087,,,,,,,,,,,,,,,,,,,,,,,,,,234.6088,235.2393,z,1,0.6039,,235.2394,235.2395,,0,72,72,311,1,312,mase,,,,,4,notharmonic,1.75,nw,z,,,,,,,
,,,,2023-11-28_12h11.40.531,VH_v3,2023.2.3,Win32,60.09976561,,,,,,,,,,,,235.2401,236.2382,,,,,,,,,,,,,,,,,,,,,,,,,,236.2383,236.7877,m,1,0.5199,,236.7877,236.7878,,0,73,73,87,1,88,mümkün,6604,300.0596,6264,0.6848,6,harmonic,1.9,word,m,,,,,,,
,,,,2023-11-28_12h11.40.531,VH_v3,2023.2.3,Win32,60.09976561,,,,,,,,,,,,236.7882,237.7867,,,,,,,,,,,,,,,,,,,,,,,,,,237.7867,238.7902,z,1,0.9829,,238.7903,238.7903,,0,74,74,349,1,350,mane,,,,,4,notharmonic,1.45,nw,z,,,,,,,
,,,,2023-11-28_12h11.40.531,VH_v3,2023.2.3,Win32,60.09976561,,,,,,,,,,,,238.7907,239.7847,,,,,,,,,,,,,,,,,,,,,,,,,,239.7847,240.3884,z,1,0.5833,,240.3884,240.3885,,0,75,75,265,1,266,münrün,,,,,6,harmonic,2.75,nw,z,,,,,,,
,,,,2023-11-28_12h11.40.531,VH_v3,2023.2.3,Win32,60.09976561,,,,,,,,,,,,240.3889,241.3831,,,,,,,,,,,,,,,,,,,,,,,,,,241.3831,241.9159,m,1,0.5017,,241.9161,241.9161,,0,76,76,33,1,34,moda,1381,62.7472,1231,0.1346,4,harmonic,1.55,word,m,,,,,,,
,,,,2023-11-28_12h11.40.531,VH_v3,2023.2.3,Win32,60.09976561,,,,,,,,,,,,241.9166,242.9148,,,,,,,,,,,,,,,,,,,,,,,,,,242.9149,243.9472,m,1,0.9996,,243.9473,243.9474,,0,77,77,159,1,160,derece,4766,216.5481,4462,0.4878,6,harmonic,,word,m,,,,,,,
,,,,2023-11-28_12h11.40.531,VH_v3,2023.2.3,Win32,60.09976561,,,,,,,,,,,,243.9479,244.9483,,,,,,,,,,,,,,,,,,,,,,,,,,244.9483,245.6788,z,1,0.6999,,245.6789,245.679,,0,78,78,206,1,207,bülse,,,,,5,harmonic,2,nw,z,,,,,,,
,,,,2023-11-28_12h11.40.531,VH_v3,2023.2.3,Win32,60.09976561,,,,,,,,,,,,245.6795,246.6778,,,,,,,,,,,,,,,,,,,,,,,,,,246.6778,247.2316,m,1,0.5333,,247.2317,247.2318,,0,79,79,74,1,75,başarı,1398,63.5196,1300,0.1421,6,harmonic,1.2,word,m,,,,,,,
,,,,2023-11-28_12h11.40.531,VH_v3,2023.2.3,Win32,60.09976561,,,,,,,,,,,,247.2321,248.2263,,,,,,,,,,,,,,,,,,,,,,,,,,248.2263,248.9256,m,1,0.6723,,248.9256,248.9257,,0,80,80,23,1,24,kurum,986,44.7999,882,0.0964,5,harmonic,1.75,word,m,,,,,,,
,,,,2023-11-28_12h11.40.531,VH_v3,2023.2.3,Win32,60.09976561,,,,,,,,,,,,248.9262,249.9246,,,,,,,,,,,,,,,,,,,,,,,,,,249.9246,250.3952,m,1,0.45,,250.3952,250.3962,,0,81,81,119,1,120,rahat,4833,219.5924,4316,0.4718,5,harmonic,,word,m,,,,,,,
,,,,2023-11-28_12h11.40.531,VH_v3,2023.2.3,Win32,60.09976561,,,,,,,,,,,,250.3965,251.3938,,,,,,,,,,,,,,,,,,,,,,,,,,251.3938,251.9559,m,1,0.5354,,251.956,251.956,,0,82,82,122,1,123,sorun,4653,211.4139,4296,0.4696,5,harmonic,,word,m,,,,,,,
,,,,2023-11-28_12h11.40.531,VH_v3,2023.2.3,Win32,60.09976561,,,,,,,,,,,,251.9566,252.9589,,,,,,,,,,,,,,,,,,,,,,,,,,252.959,253.6376,m,1,0.6561,,253.6377,253.6377,,0,83,83,20,1,21,nefes,2871,130.4469,2553,0.2791,5,harmonic,1.8,word,m,,,,,,,
,,,,2023-11-28_12h11.40.531,VH_v3,2023.2.3,Win32,60.09976561,,,,,,,,,,,,253.6382,254.6365,,,,,,,,,,,,,,,,,,,,,,,,,,254.6366,255.3192,z,1,0.6619,,255.3193,255.3194,,0,84,84,294,1,295,fiyan,,,,,5,notharmonic,1.65,nw,z,,,,,,,
,,,,2023-11-28_12h11.40.531,VH_v3,2023.2.3,Win32,60.09976561,,,,,,,,,,,,255.3198,256.3182,,,,,,,,,,,,,,,,,,,,,,,,,,256.3183,257.0009,m,1,0.65,,257.001,257.0012,,0,85,85,82,1,83,aday,1028,46.7082,873,0.0954,4,harmonic,1.45,word,m,,,,,,,
,,,,2023-11-28_12h11.40.531,VH_v3,2023.2.3,Win32,60.09976561,,,,,,,,,,,,257.0016,257.9999,,,,,,,,,,,,,,,,,,,,,,,,,,258,258.899,z,1,0.8675,,258.8991,258.8991,,0,86,86,249,1,250,öldek,,,,,5,harmonic,1.85,nw,z,,,,,,,
,,,,2023-11-28_12h11.40.531,VH_v3,2023.2.3,Win32,60.09976561,,,,,,,,,,,,258.8996,259.8981,,,,,,,,,,,,,,,,,,,,,,,,,,259.8981,260.4852,m,1,0.5667,,260.4853,260.4854,,0,87,87,17,1,18,yakın,7990,363.0339,7595,0.8303,5,harmonic,1.8,word,m,,,,,,,
,,,,2023-11-28_12h11.40.531,VH_v3,2023.2.3,Win32,60.09976561,,,,,,,,,,,,260.4859,261.4798,,,,,,,,,,,,,,,,,,,,,,,,,,261.4798,262.0793,z,1,0.5668,,262.0793,262.0795,,0,88,88,191,1,192,unot,,,,,4,harmonic,1.85,nw,z,,,,,,,
,,,,2023-11-28_12h11.40.531,VH_v3,2023.2.3,Win32,60.09976561,,,,,,,,,,,,262.08,263.0782,,,,,,,,,,,,,,,,,,,,,,,,,,263.0782,263.8466,z,1,0.7479,,263.8466,263.8467,,0,89,89,197,1,198,şortal,,,,,6,harmonic,1.95,nw,z,,,,,,,
,,,,2023-11-28_12h11.40.531,VH_v3,2023.2.3,Win32,60.09976561,,,,,,,,,,,,263.847,264.8432,,,,,,,,,,,,,,,,,,,,,,,,,,264.8432,265.4645,m,1,0.6009,,265.4645,265.4646,,0,90,90,116,1,117,tatlı,5515,250.5797,4949,0.541,5,harmonic,,word,m,,,,,,,
,,,,2023-11-28_12h11.40.531,VH_v3,2023.2.3,Win32,60.09976561,,,,,,,,,,,,265.4649,266.4582,,,,,,,,,,,,,,,,,,,,,,,,,,266.4582,267.1407,m,1,0.6607,,267.1407,267.1408,,0,91,91,141,1,142,kuru,2669,121.2688,2372,0.2593,4,harmonic,,word,m,,,,,,,
,,,,2023-11-28_12h11.40.531,VH_v3,2023.2.3,Win32,60.09976561,,,,,,,,,,,,267.1413,268.1437,,,,,,,,,,,,,,,,,,,,,,,,,,268.1438,268.656,m,1,0.4835,,268.656,268.6562,,0,92,92,13,1,14,nokta,2085,94.7341,1939,0.212,5,harmonic,1.5,word,m,,,,,,,
,,,,2023-11-28_12h11.40.531,VH_v3,2023.2.3,Win32,60.09976561,,,,,,,,,,,,268.6566,269.6589,,,,,,,,,,,,,,,,,,,,,,,,,,269.659,270.3402,z,1,0.6647,,270.3402,270.3403,,0,93,93,353,1,354,medrar,,,,,6,notharmonic,2.05,nw,z,,,,,,,
,,,,2023-11-28_12h11.40.531,VH_v3,2023.2.3,Win32,60.09976561,,,,,,,,,,,,270.3406,271.3366,,,,,,,,,,,,,,,,,,,,,,,,,,271.3366,271.8405,m,1,0.4834,,271.8406,271.8406,,0,94,94,143,1,144,isim,2366,107.5017,2163,0.2365,4,harmonic,,word,m,,,,,,,
,,,,2023-11-28_12h11.40.531,VH_v3,2023.2.3,Win32,60.09976561,,,,,,,,,,,,271.841,272.8373,,,,,,,,,,,,,,,,,,,,,,,,,,272.8374,273.7176,z,1,0.8497,,273.7177,273.7178,,0,95,95,193,1,194,şıkta,,,,,5,harmonic,2,nw,z,,,,,,,
,,,,2023-11-28_12h11.40.531,VH_v3,2023.2.3,Win32,60.09976561,,,,,,,,,,,,273.7183,274.7168,,,,,,,,,,,,,,,,,,,,,,,,,,274.7168,275.2328,m,1,0.4853,,275.2329,275.233,,0,96,96,162,1,163,destek,3328,151.2111,3065,0.3351,6,harmonic,,word,m,,,,,,,
,,,,2023-11-28_12h11.40.531,VH_v3,2023.2.3,Win32,60.09976561,,,,,,,,,,,,275.2336,276.2318,,,,,,,,,,,,,,,,,,,,,,,,,,276.2318,277.0854,z,1,0.833,,277.0854,277.0855,,0,97,97,244,1,245,tazık,,,,,5,harmonic,1.7,nw,z,,,,,,,
,,,,2023-11-28_12h11.40.531,VH_v3,2023.2.3,Win32,60.09976561,,,,,,,,,,,,277.0858,278.0799,,,,,,,,,,,,,,,,,,,,,,,,,,278.08,278.5961,m,1,0.4926,,278.5962,278.5963,,0,98,98,68,1,69,ücret,734,33.35,634,0.0693,5,harmonic,1.85,word,m,,,,,,,
,,,,2023-11-28_12h11.40.531,VH_v3,2023.2.3,Win32,60.09976561,,,,,,,,,,,,278.5967,279.5991,,,,,,,,,,,,,,,,,,,,,,,,,,279.5992,280.494,m,1,0.8775,,280.4941,280.4942,,0,99,99,169,1,170,düzgün,1384,62.8835,1310,0.1432,6,harmonic,,word,m,,,,,,,
,,,,2023-11-28_12h11.40.531,VH_v3,2023.2.3,Win32,60.09976561,,,,,,,,,,,,280.4947,281.4933,,,,,,,,,,,,,,,,,,,,,,,,,,281.4934,282.1803,m,1,0.6666,,282.1803,282.1804,,0,100,100,118,1,119,deniz,5006,227.4528,4256,0.4653,5,harmonic,,word,m,,,,,,,
,,,,2023-11-28_12h11.40.531,VH_v3,2023.2.3,Win32,60.09976561,,,,,,,,,,,,282.1807,283.1748,,,,,,,,,,,,,,,,,,,,,,,,,,283.175,283.779,m,1,0.5837,,283.7791,283.7791,,0,101,101,43,1,44,geniş,3380,153.5738,3185,0.3482,5,harmonic,1.35,word,m,,,,,,,
,,,,2023-11-28_12h11.40.531,VH_v3,2023.2.3,Win32,60.09976561,,,,,,,,,,,,283.7795,284.7733,,,,,,,,,,,,,,,,,,,,,,,,,,284.7734,285.6391,m,1,0.836,,285.6392,285.6392,,0,102,102,88,1,89,yalnız,5891,267.6637,5440,0.5947,6,harmonic,1.6,word,m,,,,,,,
,,,,2023-11-28_12h11.40.531,VH_v3,2023.2.3,Win32,60.09976561,,,,,,,,,,,,285.6397,286.6427,,,,,,,,,,,,,,,,,,,,,,,,,,286.6427,287.3541,z,1,0.6838,,287.3543,287.3543,,0,103,103,270,1,271,sarip,,,,,5,notharmonic,1.65,nw,z,,,,,,,
,,,,2023-11-28_12h11.40.531,VH_v3,2023.2.3,Win32,60.09976561,,,,,,,,,,,,287.3548,288.3552,,,,,,,,,,,,,,,,,,,,,,,,,,288.3553,289.2902,m,1,0.9165,,289.2903,289.2904,,0,104,104,63,1,64,sultan,1756,79.7857,1368,0.1496,6,harmonic,1.55,word,m,,,,,,,
,,,,2023-11-28_12h11.40.531,VH_v3,2023.2.3,Win32,60.09976561,,,,,,,,,,,,289.291,290.2846,,,,,,,,,,,,,,,,,,,,,,,,,,290.2847,290.9531,m,1,0.6479,,290.9531,290.9531,,0,105,105,4,1,5,metre,1156,52.5241,1015,0.111,5,harmonic,1.7,word,m,,,,,,,
,,,,2023-11-28_12h11.40.531,VH_v3,2023.2.3,Win32,60.09976561,,,,,,,,,,,,290.9535,291.9496,,,,,,,,,,,,,,,,,,,,,,,,,,291.9496,292.7198,m,1,0.7488,,292.7198,292.7198,,0,106,106,5,1,6,bebek,3301,149.9843,2794,0.3054,5,harmonic,1.6,word,m,,,,,,,
,,,,2023-11-28_12h11.40.531,VH_v3,2023.2.3,Win32,60.09976561,,,,,,,,,,,,292.7202,293.7145,,,,,,,,,,,,,,,,,,,,,,,,,,293.7145,294.3639,z,1,0.6167,,294.3639,294.3641,,0,107,107,236,1,237,abar,,,,,4,harmonic,1.1,nw,z,,,,,,,
,,,,2023-11-28_12h11.40.531,VH_v3,2023.2.3,Win32,60.09976561,,,,,,,,,,,,294.3645,295.3627,,,,,,,,,,,,,,,,,,,,,,,,,,295.3628,296.4117,z,1,1.0162,,296.4118,296.4119,,0,108,108,359,1,360,hisaye,,,,,6,notharmonic,,nw,z,,,,,,,
,,,,2023-11-28_12h11.40.531,VH_v3,2023.2.3,Win32,60.09976561,,,,,,,,,,,,296.4123,297.4107,,,,,,,,,,,,,,,,,,,,,,,,,,297.4108,298.1104,z,1,0.6738,,298.1105,298.1106,,0,109,109,269,1,270,kanon,,,,,5,harmonic,,nw,z,,,,,,,
,,,,2023-11-28_12h11.40.531,VH_v3,2023.2.3,Win32,60.09976561,,,,,,,,,,,,298.111,299.1091,,,,,,,,,,,,,,,,,,,,,,,,,,299.1092,300.0124,z,1,0.8828,,300.0124,300.0125,,0,110,110,232,1,233,çemek,,,,,5,harmonic,1.5,nw,z,,,,,,,
,,,,2023-11-28_12h11.40.531,VH_v3,2023.2.3,Win32,60.09976561,,,,,,,,,,,,300.0129,301.0072,,,,,,,,,,,,,,,,,,,,,,,,,,301.0072,301.6234,z,1,0.5917,,301.6234,301.6235,,0,111,111,344,1,345,adalüt,,,,,6,notharmonic,,nw,z,,,,,,,
,,,,2023-11-28_12h11.40.531,VH_v3,2023.2.3,Win32,60.09976561,,,,,,,,,,,,301.624,302.6222,,,,,,,,,,,,,,,,,,,,,,,,,,302.6222,303.1594,m,1,0.5166,,303.1594,303.1595,,0,112,112,76,1,77,ilişki,1675,76.1054,1524,0.1666,6,harmonic,1.8,word,m,,,,,,,
,,,,2023-11-28_12h11.40.531,VH_v3,2023.2.3,Win32,60.09976561,,,,,,,,,,,,303.16,304.1541,,,,,,,,,,,,,,,,,,,,,,,,,,304.1541,304.7746,z,1,0.5999,,304.7746,304.7746,,0,113,113,345,1,346,kiru,,,,,4,notharmonic,1.8,nw,z,,,,,,,
,,,,2023-11-28_12h11.40.531,VH_v3,2023.2.3,Win32,60.09976561,,,,,,,,,,,,304.7753,305.7691,,,,,,,,,,,,,,,,,,,,,,,,,,305.7692,306.3519,z,1,0.5501,,306.3521,306.3521,,0,114,114,247,1,248,fonta,,,,,5,harmonic,1.75,nw,z,,,,,,,
,,,,2023-11-28_12h11.40.531,VH_v3,2023.2.3,Win32,60.09976561,,,,,,,,,,,,306.3527,307.3509,,,,,,,,,,,,,,,,,,,,,,,,,,307.3509,307.7549,m,1,0.3836,,307.7549,307.755,,0,115,115,93,1,94,başka,23223,1055.161,20976,2.2931,5,harmonic,,word,m,,,,,,,
,,,,2023-11-28_12h11.40.531,VH_v3,2023.2.3,Win32,60.09976561,,,,,,,,,,,,307.7554,308.7494,,,,,,,,,,,,,,,,,,,,,,,,,,308.7495,309.3034,m,1,0.5333,,309.3034,309.3035,,0,116,116,61,1,62,yıldız,1775,80.649,1532,0.1675,6,harmonic,1.6,word,m,,,,,,,
,,,,2023-11-28_12h11.40.531,VH_v3,2023.2.3,Win32,60.09976561,,,,,,,,,,,,309.3038,310.2979,,,,,,,,,,,,,,,,,,,,,,,,,,310.298,310.885,m,1,0.5664,,310.885,310.8851,,0,117,117,167,1,168,yoğurt,1484,67.4271,1359,0.1486,6,harmonic,,word,m,,,,,,,
,,,,2023-11-28_12h11.40.531,VH_v3,2023.2.3,Win32,60.09976561,,,,,,,,,,,,310.8855,311.8838,,,,,,,,,,,,,,,,,,,,,,,,,,311.8839,312.4957,m,1,0.5914,,312.4958,312.4959,,0,118,118,32,1,33,temel,4231,192.2399,3851,0.421,5,harmonic,1.55,word,m,,,,,,,
,,,,2023-11-28_12h11.40.531,VH_v3,2023.2.3,Win32,60.09976561,,,,,,,,,,,,312.4964,313.4987,,,,,,,,,,,,,,,,,,,,,,,,,,313.4987,314.165,z,1,0.6499,,314.1651,314.1651,,0,119,119,229,1,230,ilgent,,,,,6,harmonic,2.7,nw,z,,,,,,,
,,,,2023-11-28_12h11.40.531,VH_v3,2023.2.3,Win32,60.09976561,,,,,,,,,,,,314.1657,315.1598,,,,,,,,,,,,,,,,,,,,,,,,,,315.1599,316.08,z,1,0.8996,,316.08,471.3052,space,0,120,120,226,1,227,mara,,,,,4,harmonic,1,nw,z,155.2063,,,,,,
,,,,2023-11-28_12h11.40.531,VH_v3,2023.2.3,Win32,60.09976561,,,,,,,,,,,,471.314,472.3036,,,,,,,,,,,,,,,,,,,,,,,,,,472.3037,473.9352,z,1,1.61,,473.9352,473.9354,,0,121,121,256,1,257,ulosız,,,,,6,harmonic,3,nw,z,,,,,,,
,,,,2023-11-28_12h11.40.531,VH_v3,2023.2.3,Win32,60.09976561,,,,,,,,,,,,473.9359,474.9344,,,,,,,,,,,,,,,,,,,,,,,,,,474.9344,475.9666,z,1,1.0055,,475.9667,475.9668,,0,122,122,300,1,301,iştal,,,,,5,notharmonic,1.8,nw,z,,,,,,,
,,,,2023-11-28_12h11.40.531,VH_v3,2023.2.3,Win32,60.09976561,,,,,,,,,,,,475.9673,476.9658,,,,,,,,,,,,,,,,,,,,,,,,,,476.9658,477.5984,m,1,0.6058,,477.5985,477.5985,,0,123,123,73,1,74,millet,1658,75.3329,1508,0.1649,6,harmonic,1.7,word,m,,,,,,,
,,,,2023-11-28_12h11.40.531,VH_v3,2023.2.3,Win32,60.09976561,,,,,,,,,,,,477.5991,478.5974,,,,,,,,,,,,,,,,,,,,,,,,,,478.5975,479.1969,m,1,0.5668,,479.197,479.197,,0,124,124,163,1,164,teknik,3297,149.8026,2798,0.3059,6,harmonic,,word,m,,,,,,,
,,,,2023-11-28_12h11.40.531,VH_v3,2023.2.3,Win32,60.09976561,,,,,,,,,,,,479.1975,480.1959,,,,,,,,,,,,,,,,,,,,,,,,,,480.1959,480.833,z,1,0.6166,,480.833,480.833,,0,125,125,281,1,282,ikva,,,,,4,notharmonic,1.85,nw,z,,,,,,,
,,,,2023-11-28_12h11.40.531,VH_v3,2023.2.3,Win32,60.09976561,,,,,,,,,,,,480.8334,481.8277,,,,,,,,,,,,,,,,,,,,,,,,,,481.8277,482.4147,m,1,0.5666,,482.4148,482.4148,,0,126,126,36,1,37,meslek,1082,49.1618,976,0.1067,6,harmonic,1.9,word,m,,,,,,,
,,,,2023-11-28_12h11.40.531,VH_v3,2023.2.3,Win32,60.09976561,,,,,,,,,,,,482.4151,483.4133,,,,,,,,,,,,,,,,,,,,,,,,,,483.4133,484.0631,m,1,0.6333,,484.0631,484.0631,,0,127,127,166,1,167,tespit,1929,87.6461,1745,0.1908,6,harmonic,,word,m,,,,,,,
,,,,2023-11-28_12h11.40.531,VH_v3,2023.2.3,Win32,60.09976561,,,,,,,,,,,,484.0635,485.0578,,,,,,,,,,,,,,,,,,,,,,,,,,485.0578,485.6283,z,1,0.55,,485.6283,485.6284,,0,128,128,314,1,315,betaş,,,,,5,notharmonic,1.9,nw,z,,,,,,,
,,,,2023-11-28_12h11.40.531,VH_v3,2023.2.3,Win32,60.09976561,,,,,,,,,,,,485.6289,486.6228,,,,,,,,,,,,,,,,,,,,,,,,,,486.6228,487.3553,z,1,0.7076,,487.3554,487.3555,,0,129,129,352,1,353,yarema,,,,,6,notharmonic,1.95,nw,z,,,,,,,
,,,,2023-11-28_12h11.40.531,VH_v3,2023.2.3,Win32,60.09976561,,,,,,,,,,,,487.356,488.3546,,,,,,,,,,,,,,,,,,,,,,,,,,488.3546,488.9538,m,1,0.5683,,488.9539,488.954,,0,130,130,30,1,31,çevre,1662,75.5147,1409,0.154,5,harmonic,1.55,word,m,,,,,,,
,,,,2023-11-28_12h11.40.531,VH_v3,2023.2.3,Win32,60.09976561,,,,,,,,,,,,488.9545,489.9528,,,,,,,,,,,,,,,,,,,,,,,,,,489.9529,490.5856,m,1,0.6018,,490.5857,490.5857,,0,131,131,83,1,84,küçük,14048,638.2854,12467,1.3629,5,harmonic,1.75,word,m,,,,,,,
,,,,2023-11-28_12h11.40.531,VH_v3,2023.2.3,Win32,60.09976561,,,,,,,,,,,,490.5862,491.5885,,,,,,,,,,,,,,,,,,,,,,,,,,491.5885,492.155,m,1,0.5499,,492.155,492.1551,,0,132,132,152,1,153,sene,6752,306.7841,5843,0.6388,4,harmonic,,word,m,,,,,,,
,,,,2023-11-28_12h11.40.531,VH_v3,2023.2.3,Win32,60.09976561,,,,,,,,,,,,492.1554,493.1536,,,,,,,,,,,,,,,,,,,,,,,,,,493.1536,493.6702,m,1,0.5001,,493.6702,493.6704,,0,133,133,41,1,42,zengin,2193,99.6412,2015,0.2203,6,harmonic,1.65,word,m,,,,,,,
,,,,2023-11-28_12h11.40.531,VH_v3,2023.2.3,Win32,60.09976561,,,,,,,,,,,,493.6707,494.6648,,,,,,,,,,,,,,,,,,,,,,,,,,494.6648,495.464,m,1,0.772,,495.4641,495.4643,,0,134,134,66,1,67,sanık,768,34.8949,699,0.0764,5,harmonic,1.85,word,m,,,,,,,
,,,,2023-11-28_12h11.40.531,VH_v3,2023.2.3,Win32,60.09976561,,,,,,,,,,,,495.4648,496.4629,,,,,,,,,,,,,,,,,,,,,,,,,,496.4629,497.0624,z,1,0.5675,,497.0624,497.0625,,0,135,135,331,1,332,ilcaet,,,,,6,notharmonic,2.7,nw,z,,,,,,,
,,,,2023-11-28_12h11.40.531,VH_v3,2023.2.3,Win32,60.09976561,,,,,,,,,,,,497.0629,498.062,,,,,,,,,,,,,,,,,,,,,,,,,,498.0621,498.6941,m,1,0.6169,,498.6942,498.6942,,0,136,136,54,1,55,yedek,825,37.4847,732,0.08,5,harmonic,1.65,word,m,,,,,,,
,,,,2023-11-28_12h11.40.531,VH_v3,2023.2.3,Win32,60.09976561,,,,,,,,,,,,498.6946,499.6931,,,,,,,,,,,,,,,,,,,,,,,,,,499.6931,500.1927,m,1,0.4792,,500.1927,500.1928,,0,137,137,84,1,85,ülke,3121,141.8059,2801,0.3062,4,harmonic,1.65,word,m,,,,,,,
,,,,2023-11-28_12h11.40.531,VH_v3,2023.2.3,Win32,60.09976561,,,,,,,,,,,,500.1932,501.1916,,,,,,,,,,,,,,,,,,,,,,,,,,501.1917,501.7743,z,1,0.5722,,501.7744,501.7745,,0,138,138,186,1,187,yadal,,,,,5,harmonic,1.85,nw,z,,,,,,,
,,,,2023-11-28_12h11.40.531,VH_v3,2023.2.3,Win32,60.09976561,,,,,,,,,,,,501.7749,502.774,,,,,,,,,,,,,,,,,,,,,,,,,,502.774,503.2728,m,1,0.486,,503.2729,503.2729,,0,139,139,106,1,107,sağlık,8866,402.8359,8289,0.9062,5,harmonic,,word,m,,,,,,,
,,,,2023-11-28_12h11.40.531,VH_v3,2023.2.3,Win32,60.09976561,,,,,,,,,,,,503.2733,504.2719,,,,,,,,,,,,,,,,,,,,,,,,,,504.272,504.8048,m,1,0.522,,504.8048,504.8049,,0,140,140,120,1,121,doğal,4821,219.0471,4328,0.4731,5,harmonic,,word,m,,,,,,,
,,,,2023-11-28_12h11.40.531,VH_v3,2023.2.3,Win32,60.09976561,,,,,,,,,,,,504.8052,505.8037,,,,,,,,,,,,,,,,,,,,,,,,,,505.8037,506.4696,z,1,0.6505,,506.4697,506.4698,,0,141,141,208,1,209,guzır,,,,,5,harmonic,2.05,nw,z,,,,,,,
,,,,2023-11-28_12h11.40.531,VH_v3,2023.2.3,Win32,60.09976561,,,,,,,,,,,,506.4702,507.4688,,,,,,,,,,,,,,,,,,,,,,,,,,507.4688,508.1678,z,1,0.6867,,508.1679,508.168,,0,142,142,190,1,191,banyak,,,,,6,harmonic,1.85,nw,z,,,,,,,
,,,,2023-11-28_12h11.40.531,VH_v3,2023.2.3,Win32,60.09976561,,,,,,,,,,,,508.1684,509.167,,,,,,,,,,,,,,,,,,,,,,,,,,509.167,509.7331,z,1,0.5471,,509.7332,509.7332,,0,143,143,220,1,221,lingin,,,,,6,harmonic,1.85,nw,z,,,,,,,
,,,,2023-11-28_12h11.40.531,VH_v3,2023.2.3,Win32,60.09976561,,,,,,,,,,,,509.7336,510.7322,,,,,,,,,,,,,,,,,,,,,,,,,,510.7323,511.2984,m,1,0.5466,,511.2984,511.2985,,0,144,144,131,1,132,derin,3689,167.6135,3328,0.3638,5,harmonic,,word,m,,,,,,,
,,,,2023-11-28_12h11.40.531,VH_v3,2023.2.3,Win32,60.09976561,,,,,,,,,,,,511.2988,512.2973,,,,,,,,,,,,,,,,,,,,,,,,,,512.2973,512.8134,m,1,0.4985,,512.8135,512.8136,,0,145,145,123,1,124,güneş,4371,198.6009,3610,0.3946,5,harmonic,,word,m,,,,,,,
,,,,2023-11-28_12h11.40.531,VH_v3,2023.2.3,Win32,60.09976561,,,,,,,,,,,,512.814,513.8125,,,,,,,,,,,,,,,,,,,,,,,,,,513.8125,514.4957,z,1,0.6751,,514.4957,514.4958,,0,146,146,187,1,188,hücmet,,,,,6,harmonic,1.85,nw,z,,,,,,,
,,,,2023-11-28_12h11.40.531,VH_v3,2023.2.3,Win32,60.09976561,,,,,,,,,,,,514.4962,515.4941,,,,,,,,,,,,,,,,,,,,,,,,,,515.4942,516.0813,z,1,0.5778,,516.0814,516.0814,,0,147,147,338,1,339,kunik,,,,,5,notharmonic,1.8,nw,z,,,,,,,
,,,,2023-11-28_12h11.40.531,VH_v3,2023.2.3,Win32,60.09976561,,,,,,,,,,,,516.0816,517.0801,,,,,,,,,,,,,,,,,,,,,,,,,,517.0801,517.6802,z,1,0.584,,517.6802,517.6803,,0,148,148,286,1,287,elsaf,,,,,5,notharmonic,1.9,nw,z,,,,,,,
,,,,2023-11-28_12h11.40.531,VH_v3,2023.2.3,Win32,60.09976561,,,,,,,,,,,,517.6807,518.6785,,,,,,,,,,,,,,,,,,,,,,,,,,518.6786,519.2619,z,1,0.5671,,519.2619,519.2619,,0,149,149,271,1,272,icazi,,,,,5,notharmonic,1.95,nw,z,,,,,,,
,,,,2023-11-28_12h11.40.531,VH_v3,2023.2.3,Win32,60.09976561,,,,,,,,,,,,519.2623,520.2602,,,,,,,,,,,,,,,,,,,,,,,,,,520.2602,521.0264,m,1,0.7499,,521.0264,521.0264,,0,150,150,31,1,32,fazla,18293,831.1614,16694,1.825,5,harmonic,1,word,m,,,,,,,
,,,,2023-11-28_12h11.40.531,VH_v3,2023.2.3,Win32,60.09976561,,,,,,,,,,,,521.0267,522.0251,,,,,,,,,,,,,,,,,,,,,,,,,,522.0252,523.4074,z,1,1.3661,,523.4074,523.4075,,0,151,151,319,1,320,mafke,,,,,5,notharmonic,1.9,nw,z,,,,,,,
,,,,2023-11-28_12h11.40.531,VH_v3,2023.2.3,Win32,60.09976561,,,,,,,,,,,,523.4078,524.4061,,,,,,,,,,,,,,,,,,,,,,,,,,524.4061,525.1056,m,1,0.6832,,525.1057,525.1058,,0,152,152,176,1,177,tebrik,1117,50.7521,1102,0.1205,6,harmonic,,word,m,,,,,,,
,,,,2023-11-28_12h11.40.531,VH_v3,2023.2.3,Win32,60.09976561,,,,,,,,,,,,525.106,526.1044,,,,,,,,,,,,,,,,,,,,,,,,,,526.1044,526.6709,m,1,0.5503,,526.6709,526.671,,0,153,153,95,1,96,koyun,1431,65.019,1292,0.1412,5,harmonic,,word,m,,,,,,,
,,,,2023-11-28_12h11.40.531,VH_v3,2023.2.3,Win32,60.09976561,,,,,,,,,,,,526.6713,527.6694,,,,,,,,,,,,,,,,,,,,,,,,,,527.6695,528.4857,m,1,0.8,,528.4857,528.4857,,0,154,154,42,1,43,ürün,2268,103.0489,1954,0.2136,4,harmonic,1.1,word,m,,,,,,,
,,,,2023-11-28_12h11.40.531,VH_v3,2023.2.3,Win32,60.09976561,,,,,,,,,,,,528.4861,529.4844,,,,,,,,,,,,,,,,,,,,,,,,,,529.4844,530.051,m,1,0.5503,,530.051,530.0511,,0,155,155,77,1,78,ufak,3252,147.758,2980,0.3258,4,harmonic,1.5,word,m,,,,,,,
,,,,2023-11-28_12h11.40.531,VH_v3,2023.2.3,Win32,60.09976561,,,,,,,,,,,,530.0514,531.0494,,,,,,,,,,,,,,,,,,,,,,,,,,531.0495,532.0322,m,1,0.9664,,532.0322,532.0324,,0,156,156,15,1,16,hayat,7922,359.9443,7314,0.7996,5,harmonic,1.9,word,m,,,,,,,
,,,,2023-11-28_12h11.40.531,VH_v3,2023.2.3,Win32,60.09976561,,,,,,,,,,,,532.0328,533.0309,,,,,,,,,,,,,,,,,,,,,,,,,,533.0309,533.6804,m,1,0.6334,,533.6805,533.6806,,0,157,157,40,1,41,tepki,1695,77.0141,1578,0.1725,5,harmonic,1.55,word,m,,,,,,,
,,,,2023-11-28_12h11.40.531,VH_v3,2023.2.3,Win32,60.09976561,,,,,,,,,,,,533.6807,534.6792,,,,,,,,,,,,,,,,,,,,,,,,,,534.6793,535.4954,z,1,0.7998,,535.4955,535.4955,,0,158,158,233,1,234,alıt,,,,,4,harmonic,1.15,nw,z,,,,,,,
,,,,2023-11-28_12h11.40.531,VH_v3,2023.2.3,Win32,60.09976561,,,,,,,,,,,,535.4958,536.4942,,,,,,,,,,,,,,,,,,,,,,,,,,536.4942,537.227,m,1,0.7166,,537.227,537.2271,,0,159,159,150,1,151,ağır,4441,201.7814,3961,0.433,4,harmonic,,word,m,,,,,,,
,,,,2023-11-28_12h11.40.531,VH_v3,2023.2.3,Win32,60.09976561,,,,,,,,,,,,537.2274,538.2257,,,,,,,,,,,,,,,,,,,,,,,,,,538.2257,539.5747,z,1,1.3327,,539.5747,539.5747,,0,160,160,268,1,269,hayot,,,,,5,harmonic,,nw,z,,,,,,,
,,,,2023-11-28_12h11.40.531,VH_v3,2023.2.3,Win32,60.09976561,,,,,,,,,,,,539.575,540.5733,,,,,,,,,,,,,,,,,,,,,,,,,,540.5733,541.2231,m,1,0.6335,,541.2231,541.2232,,0,161,161,174,1,175,hayran,1171,53.2056,1073,0.1173,6,harmonic,,word,m,,,,,,,
,,,,2023-11-28_12h11.40.531,VH_v3,2023.2.3,Win32,60.09976561,,,,,,,,,,,,541.2234,542.2217,,,,,,,,,,,,,,,,,,,,,,,,,,542.2217,542.705,m,1,0.467,,542.705,542.7051,,0,162,162,175,1,176,gündüz,1167,53.0239,1088,0.1189,6,harmonic,,word,m,,,,,,,
,,,,2023-11-28_12h11.40.531,VH_v3,2023.2.3,Win32,60.09976561,,,,,,,,,,,,542.7053,543.7035,,,,,,,,,,,,,,,,,,,,,,,,,,543.7036,544.2533,m,1,0.5336,,544.2533,544.2534,,0,163,163,105,1,106,hafta,9257,420.6014,8254,0.9023,5,harmonic,,word,m,,,,,,,
,,,,2023-11-28_12h11.40.531,VH_v3,2023.2.3,Win32,60.09976561,,,,,,,,,,,,544.2536,545.252,,,,,,,,,,,,,,,,,,,,,,,,,,545.252,545.6852,m,1,0.4171,,545.6852,545.6853,,0,164,164,96,1,97,mutlu,11447,520.1063,10279,1.1237,5,harmonic,,word,m,,,,,,,
,,,,2023-11-28_12h11.40.531,VH_v3,2023.2.3,Win32,60.09976561,,,,,,,,,,,,545.6855,546.6839,,,,,,,,,,,,,,,,,,,,,,,,,,546.6839,547.3501,z,1,0.6499,,547.3502,547.3502,,0,165,165,264,1,265,yerfek,,,,,6,harmonic,2,nw,z,,,,,,,
,,,,2023-11-28_12h11.40.531,VH_v3,2023.2.3,Win32,60.09976561,,,,,,,,,,,,547.3505,548.349,,,,,,,,,,,,,,,,,,,,,,,,,,548.349,548.8825,m,1,0.5172,,548.8826,548.8826,,0,166,166,50,1,51,kanun,1198,54.4324,1010,0.1104,5,harmonic,1.6,word,m,,,,,,,
,,,,2023-11-28_12h11.40.531,VH_v3,2023.2.3,Win32,60.09976561,,,,,,,,,,,,548.8828,549.8808,,,,,,,,,,,,,,,,,,,,,,,,,,549.8809,550.5138,z,1,0.6168,,550.5138,550.5139,,0,167,167,317,1,318,zila,,,,,4,notharmonic,1.65,nw,z,,,,,,,
,,,,2023-11-28_12h11.40.531,VH_v3,2023.2.3,Win32,60.09976561,,,,,,,,,,,,550.5142,551.5125,,,,,,,,,,,,,,,,,,,,,,,,,,551.5126,552.4119,m,1,0.883,,552.4119,552.4119,,0,168,168,178,1,179,aykırı,1094,49.707,1022,0.1117,6,harmonic,,word,m,,,,,,,
,,,,2023-11-28_12h11.40.531,VH_v3,2023.2.3,Win32,60.09976561,,,,,,,,,,,,552.4122,553.4105,,,,,,,,,,,,,,,,,,,,,,,,,,553.4105,554.0603,z,1,0.6335,,554.0604,554.0605,,0,169,169,253,1,254,notan,,,,,5,harmonic,1.85,nw,z,,,,,,,
,,,,2023-11-28_12h11.40.531,VH_v3,2023.2.3,Win32,60.09976561,,,,,,,,,,,,554.0609,555.0589,,,,,,,,,,,,,,,,,,,,,,,,,,555.0589,555.5589,m,1,0.4837,,555.5589,555.5589,,0,170,170,45,1,46,bilgi,5981,271.7529,5353,0.5852,5,harmonic,1.5,word,m,,,,,,,
,,,,2023-11-28_12h11.40.531,VH_v3,2023.2.3,Win32,60.09976561,,,,,,,,,,,,555.5593,556.5576,,,,,,,,,,,,,,,,,,,,,,,,,,556.5576,557.8731,z,1,1.2994,,557.8731,557.8732,,0,171,171,185,1,186,bebin,,,,,5,harmonic,1.7,nw,z,,,,,,,
,,,,2023-11-28_12h11.40.531,VH_v3,2023.2.3,Win32,60.09976561,,,,,,,,,,,,557.8734,558.8718,,,,,,,,,,,,,,,,,,,,,,,,,,558.8718,559.4551,m,1,0.5671,,559.4551,559.4552,,0,172,172,79,1,80,durum,6783,308.1926,6431,0.703,5,harmonic,1.7,word,m,,,,,,,
,,,,2023-11-28_12h11.40.531,VH_v3,2023.2.3,Win32,60.09976561,,,,,,,,,,,,559.4555,560.4535,,,,,,,,,,,,,,,,,,,,,,,,,,560.4536,561.2698,z,1,0.8,,561.2698,561.2699,,0,173,173,330,1,331,tevaze,,,,,6,notharmonic,2.05,nw,z,,,,,,,
,,,,2023-11-28_12h11.40.531,VH_v3,2023.2.3,Win32,60.09976561,,,,,,,,,,,,561.2702,562.2685,,,,,,,,,,,,,,,,,,,,,,,,,,562.2685,562.8349,z,1,0.5502,,562.8349,562.835,,0,174,174,284,1,285,zebap,,,,,5,notharmonic,1.8,nw,z,,,,,,,
,,,,2023-11-28_12h11.40.531,VH_v3,2023.2.3,Win32,60.09976561,,,,,,,,,,,,562.8353,563.8334,,,,,,,,,,,,,,,,,,,,,,,,,,563.8334,564.351,z,1,0.5012,,564.351,564.351,,0,175,175,213,1,214,yofa,,,,,4,harmonic,1.75,nw,z,,,,,,,
,,,,2023-11-28_12h11.40.531,VH_v3,2023.2.3,Win32,60.09976561,,,,,,,,,,,,564.3513,565.3488,,,,,,,,,,,,,,,,,,,,,,,,,,565.3488,565.9317,z,1,0.5668,,565.9318,565.9318,,0,176,176,230,1,231,redem,,,,,5,harmonic,2,nw,z,,,,,,,
,,,,2023-11-28_12h11.40.531,VH_v3,2023.2.3,Win32,60.09976561,,,,,,,,,,,,565.9321,566.9305,,,,,,,,,,,,,,,,,,,,,,,,,,566.9305,567.5635,z,1,0.6168,,567.5636,567.5636,,0,177,177,318,1,319,sapel,,,,,5,notharmonic,1.9,nw,z,,,,,,,
,,,,2023-11-28_12h11.40.531,VH_v3,2023.2.3,Win32,60.09976561,,,,,,,,,,,,567.5639,568.5621,,,,,,,,,,,,,,,,,,,,,,,,,,568.5622,569.3286,z,1,0.7501,,569.3286,569.3287,,0,178,178,276,1,277,dapel,,,,,5,notharmonic,1.9,nw,z,,,,,,,
,,,,2023-11-28_12h11.40.531,VH_v3,2023.2.3,Win32,60.09976561,,,,,,,,,,,,569.3289,570.3272,,,,,,,,,,,,,,,,,,,,,,,,,,570.3272,570.9935,z,1,0.6502,,570.9935,570.9937,,0,179,179,313,1,314,hahih,,,,,5,notharmonic,1.95,nw,z,,,,,,,
,,,,2023-11-28_12h11.40.531,VH_v3,2023.2.3,Win32,60.09976561,,,,,,,,,,,,570.9938,571.9922,,,,,,,,,,,,,,,,,,,,,,,,,,571.9922,572.592,z,1,0.5836,,572.592,572.5921,,0,180,180,216,1,217,halban,,,,,6,harmonic,2,nw,z,,,,,,,
,,,,2023-11-28_12h11.40.531,VH_v3,2023.2.3,Win32,60.09976561,,,,,,,,,,,,572.5925,573.5906,,,,,,,,,,,,,,,,,,,,,,,,,,573.5907,575.0894,z,1,1.4825,,575.0894,575.0894,,0,181,181,219,1,220,tefsi,,,,,5,harmonic,1.8,nw,z,,,,,,,
,,,,2023-11-28_12h11.40.531,VH_v3,2023.2.3,Win32,60.09976561,,,,,,,,,,,,575.0896,576.088,,,,,,,,,,,,,,,,,,,,,,,,,,576.088,576.8543,m,1,0.7501,,576.8543,576.8544,,0,182,182,172,1,173,halka,1196,54.3415,1014,0.1109,6,harmonic,,word,m,,,,,,,
,,,,2023-11-28_12h11.40.531,VH_v3,2023.2.3,Win32,60.09976561,,,,,,,,,,,,576.8547,577.853,,,,,,,,,,,,,,,,,,,,,,,,,,577.8531,579.0022,z,1,1.1328,,579.0022,579.0023,,0,183,183,285,1,286,safiç,,,,,5,notharmonic,1.9,nw,z,,,,,,,
,,,,2023-11-28_12h11.40.531,VH_v3,2023.2.3,Win32,60.09976561,,,,,,,,,,,,579.0026,580.0009,,,,,,,,,,,,,,,,,,,,,,,,,,580.0009,580.6838,m,1,0.6664,,580.6839,580.6839,,0,184,184,108,1,109,sabah,8179,371.6213,7277,0.7955,5,harmonic,,word,m,,,,,,,
,,,,2023-11-28_12h11.40.531,VH_v3,2023.2.3,Win32,60.09976561,,,,,,,,,,,,580.6842,581.6825,,,,,,,,,,,,,,,,,,,,,,,,,,581.6825,583.2812,m,1,1.5826,,583.2813,583.2813,,0,185,185,100,1,101,zayıf,1359,61.7476,1285,0.1405,5,harmonic,,word,m,,,,,,,
,,,,2023-11-28_12h11.40.531,VH_v3,2023.2.3,Win32,60.09976561,,,,,,,,,,,,583.2816,584.2803,,,,,,,,,,,,,,,,,,,,,,,,,,584.2804,584.863,m,1,0.5669,,584.8631,584.8632,,0,186,186,9,1,10,karar,8108,368.3954,7436,0.8129,5,harmonic,1.6,word,m,,,,,,,
,,,,2023-11-28_12h11.40.531,VH_v3,2023.2.3,Win32,60.09976561,,,,,,,,,,,,584.8635,585.8617,,,,,,,,,,,,,,,,,,,,,,,,,,585.8618,586.5612,z,1,0.6833,,586.5613,586.5613,,0,187,187,215,1,216,maflek,,,,,6,harmonic,2.15,nw,z,,,,,,,
,,,,2023-11-28_12h11.40.531,VH_v3,2023.2.3,Win32,60.09976561,,,,,,,,,,,,586.5616,587.56,,,,,,,,,,,,,,,,,,,,,,,,,,587.56,588.1097,m,1,0.5335,,588.1097,588.1098,,0,188,188,47,1,48,kaza,740,33.6227,679,0.0742,4,harmonic,1.85,word,m,,,,,,,
,,,,2023-11-28_12h11.40.531,VH_v3,2023.2.3,Win32,60.09976561,,,,,,,,,,,,588.1101,589.1085,,,,,,,,,,,,,,,,,,,,,,,,,,589.1085,589.7915,z,1,0.6669,,589.7915,589.7915,,0,189,189,246,1,247,ülmet,,,,,5,harmonic,1.9,nw,z,,,,,,,
,,,,2023-11-28_12h11.40.531,VH_v3,2023.2.3,Win32,60.09976561,,,,,,,,,,,,589.7919,590.7901,,,,,,,,,,,,,,,,,,,,,,,,,,590.7902,591.4566,m,1,0.6501,,591.4566,591.4567,,0,190,190,149,1,150,ince,4045,183.7888,3429,0.3749,4,harmonic,,word,m,,,,,,,
,,,,2023-11-28_12h11.40.531,VH_v3,2023.2.3,Win32,60.09976561,,,,,,,,,,,,591.457,592.4552,,,,,,,,,,,,,,,,,,,,,,,,,,592.4552,593.105,z,1,0.6336,,593.105,593.105,,0,191,191,180,1,181,manıt,,,,,5,harmonic,1.75,nw,z,,,,,,,
,,,,2023-11-28_12h11.40.531,VH_v3,2023.2.3,Win32,60.09976561,,,,,,,,,,,,593.1053,594.1035,,,,,,,,,,,,,,,,,,,,,,,,,,594.1035,594.7199,m,1,0.6,,594.72,594.72,,0,192,192,157,1,158,eğitim,4784,217.366,3846,0.4204,6,harmonic,,word,m,,,,,,,
,,,,2023-11-28_12h11.40.531,VH_v3,2023.2.3,Win32,60.09976561,,,,,,,,,,,,594.7203,595.7185,,,,,,,,,,,,,,,,,,,,,,,,,,595.7185,596.3515,z,1,0.6167,,596.3515,596.3516,,0,193,193,321,1,322,kibas,,,,,5,notharmonic,1.9,nw,z,,,,,,,
,,,,2023-11-28_12h11.40.531,VH_v3,2023.2.3,Win32,60.09976561,,,,,,,,,,,,596.3519,597.3504,,,,,,,,,,,,,,,,,,,,,,,,,,597.3504,597.8667,m,1,0.5001,,597.8668,597.8669,,0,194,194,19,1,20,ödül,1063,48.2985,926,0.1012,4,harmonic,1.7,word,m,,,,,,,
,,,,2023-11-28_12h11.40.531,VH_v3,2023.2.3,Win32,60.09976561,,,,,,,,,,,,597.8672,598.8654,,,,,,,,,,,,,,,,,,,,,,,,,,598.8654,599.4487,m,1,0.567,,599.4488,599.4489,,0,195,195,145,1,146,ilgi,2144,97.4149,2041,0.2231,4,harmonic,,word,m,,,,,,,
,,,,2023-11-28_12h11.40.531,VH_v3,2023.2.3,Win32,60.09976561,,,,,,,,,,,,599.4492,600.4472,,,,,,,,,,,,,,,,,,,,,,,,,,600.4472,600.9646,m,1,0.5012,,600.9646,600.9646,,0,196,196,21,1,22,duygu,1877,85.2834,1760,0.1924,5,harmonic,1.8,word,m,,,,,,,
,,,,2023-11-28_12h11.40.531,VH_v3,2023.2.3,Win32,60.09976561,,,,,,,,,,,,600.965,601.9623,,,,,,,,,,,,,,,,,,,,,,,,,,601.9624,602.5955,z,1,0.6169,,602.5956,602.5957,,0,197,197,346,1,347,mamit,,,,,5,notharmonic,1.85,nw,z,,,,,,,
,,,,2023-11-28_12h11.40.531,VH_v3,2023.2.3,Win32,60.09976561,,,,,,,,,,,,602.596,603.5943,,,,,,,,,,,,,,,,,,,,,,,,,,603.5943,604.0773,m,1,0.4669,,604.0774,604.0774,,0,198,198,65,1,66,fikir,2552,115.9528,2413,0.2638,5,harmonic,1.9,word,m,,,,,,,
,,,,2023-11-28_12h11.40.531,VH_v3,2023.2.3,Win32,60.09976561,,,,,,,,,,,,604.0777,605.0759,,,,,,,,,,,,,,,,,,,,,,,,,,605.076,605.7422,z,1,0.6501,,605.7423,605.7423,,0,199,199,254,1,255,ileşçe,,,,,6,harmonic,2.65,nw,z,,,,,,,
,,,,2023-11-28_12h11.40.531,VH_v3,2023.2.3,Win32,60.09976561,,,,,,,,,,,,605.7426,606.7409,,,,,,,,,,,,,,,,,,,,,,,,,,606.7409,607.3741,z,1,0.6169,,607.3741,607.3741,,0,200,200,334,1,335,mecda,,,,,5,notharmonic,1.95,nw,z,,,,,,,
,,,,2023-11-28_12h11.40.531,VH_v3,2023.2.3,Win32,60.09976561,,,,,,,,,,,,607.3743,608.3727,,,,,,,,,,,,,,,,,,,,,,,,,,608.3728,609.1221,z,1,0.7333,,609.1221,609.1222,,0,201,201,188,1,189,hüyen,,,,,5,harmonic,2,nw,z,,,,,,,
,,,,2023-11-28_12h11.40.531,VH_v3,2023.2.3,Win32,60.09976561,,,,,,,,,,,,609.1225,610.1209,,,,,,,,,,,,,,,,,,,,,,,,,,610.121,611.1203,m,1,0.9831,,611.1203,611.1203,,0,202,202,26,1,27,sebze,1094,49.707,961,0.1051,5,harmonic,1.9,word,m,,,,,,,
,,,,2023-11-28_12h11.40.531,VH_v3,2023.2.3,Win32,60.09976561,,,,,,,,,,,,611.1206,612.1191,,,,,,,,,,,,,,,,,,,,,,,,,,612.1191,612.7019,z,1,0.5665,,612.7019,612.702,,0,203,203,263,1,264,geğniş,,,,,6,harmonic,2.35,nw,z,,,,,,,
,,,,2023-11-28_12h11.40.531,VH_v3,2023.2.3,Win32,60.09976561,,,,,,,,,,,,612.7023,613.7008,,,,,,,,,,,,,,,,,,,,,,,,,,613.7008,614.3006,z,1,0.5836,,614.3006,614.3007,,0,204,204,326,1,327,melaş,,,,,5,notharmonic,1.8,nw,z,,,,,,,
,,,,2023-11-28_12h11.40.531,VH_v3,2023.2.3,Win32,60.09976561,,,,,,,,,,,,614.301,615.299,,,,,,,,,,,,,,,,,,,,,,,,,,615.2991,616.0818,z,1,0.7667,,616.0819,616.082,,0,205,205,280,1,281,düktan,,,,,6,notharmonic,2.35,nw,z,,,,,,,
,,,,2023-11-28_12h11.40.531,VH_v3,2023.2.3,Win32,60.09976561,,,,,,,,,,,,616.0821,617.0806,,,,,,,,,,,,,,,,,,,,,,,,,,617.0807,617.7803,z,1,0.6833,,617.7804,617.7804,,0,206,206,299,1,300,kurüs,,,,,5,notharmonic,1.95,nw,z,,,,,,,
,,,,2023-11-28_12h11.40.531,VH_v3,2023.2.3,Win32,60.09976561,,,,,,,,,,,,617.7806,618.779,,,,,,,,,,,,,,,,,,,,,,,,,,618.7791,619.3951,z,1,0.5999,,619.3952,619.3953,,0,207,207,258,1,259,meryeş,,,,,6,harmonic,2.35,nw,z,,,,,,,
,,,,2023-11-28_12h11.40.531,VH_v3,2023.2.3,Win32,60.09976561,,,,,,,,,,,,619.3956,620.3941,,,,,,,,,,,,,,,,,,,,,,,,,,620.3941,621.0936,m,1,0.6832,,621.0936,621.0937,,0,208,208,117,1,118,yavaş,5087,231.1331,2886,0.3155,5,harmonic,,word,m,,,,,,,
,,,,2023-11-28_12h11.40.531,VH_v3,2023.2.3,Win32,60.09976561,,,,,,,,,,,,621.0938,622.0923,,,,,,,,,,,,,,,,,,,,,,,,,,622.0923,622.7421,m,1,0.6335,,622.7422,622.7422,,0,209,209,173,1,174,koruma,1187,53.9326,1066,0.1165,6,harmonic,,word,m,,,,,,,
,,,,2023-11-28_12h11.40.531,VH_v3,2023.2.3,Win32,60.09976561,,,,,,,,,,,,622.7425,623.7407,,,,,,,,,,,,,,,,,,,,,,,,,,623.7407,624.457,z,1,0.7001,,624.4571,624.4576,,0,210,210,243,1,244,şiker,,,,,5,harmonic,1.85,nw,z,,,,,,,
,,,,2023-11-28_12h11.40.531,VH_v3,2023.2.3,Win32,60.09976561,,,,,,,,,,,,624.4578,625.4558,,,,,,,,,,,,,,,,,,,,,,,,,,625.4559,626.5049,z,1,1.0329,,626.5049,626.5049,,0,211,211,214,1,215,yapa,,,,,4,harmonic,1,nw,z,,,,,,,
,,,,2023-11-28_12h11.40.531,VH_v3,2023.2.3,Win32,60.09976561,,,,,,,,,,,,626.5052,627.5038,,,,,,,,,,,,,,,,,,,,,,,,,,627.5038,628.5531,z,1,1.033,,628.5531,628.5531,,0,212,212,348,1,349,minsar,,,,,6,notharmonic,2,nw,z,,,,,,,
,,,,2023-11-28_12h11.40.531,VH_v3,2023.2.3,Win32,60.09976561,,,,,,,,,,,,628.5535,629.5518,,,,,,,,,,,,,,,,,,,,,,,,,,629.5519,630.2013,m,1,0.6334,,630.2013,630.2013,,0,213,213,127,1,128,müzik,3999,181.6987,3340,0.3651,5,harmonic,,word,m,,,,,,,
,,,,2023-11-28_12h11.40.531,VH_v3,2023.2.3,Win32,60.09976561,,,,,,,,,,,,630.2016,631.1999,,,,,,,,,,,,,,,,,,,,,,,,,,631.2,631.983,m,1,0.7668,,631.983,631.9832,,0,214,214,153,1,154,para,7124,323.6863,5953,0.6508,4,harmonic,,word,m,,,,,,,
,,,,2023-11-28_12h11.40.531,VH_v3,2023.2.3,Win32,60.09976561,,,,,,,,,,,,631.9835,632.9818,,,,,,,,,,,,,,,,,,,,,,,,,,632.9818,633.4313,m,1,0.4335,,633.4313,633.4314,,0,215,215,60,1,61,doğu,2105,95.6429,1823,0.1993,4,harmonic,1.05,word,m,,,,,,,
,,,,2023-11-28_12h11.40.531,VH_v3,2023.2.3,Win32,60.09976561,,,,,,,,,,,,633.4316,634.4301,,,,,,,,,,,,,,,,,,,,,,,,,,634.4301,635.0132,z,1,0.5669,,635.0132,635.0133,,0,216,216,204,1,205,cabor,,,,,5,harmonic,2.1,nw,z,,,,,,,
,,,,2023-11-28_12h11.40.531,VH_v3,2023.2.3,Win32,60.09976561,,,,,,,,,,,,635.0135,636.0119,,,,,,,,,,,,,,,,,,,,,,,,,,636.012,636.5283,m,1,0.5002,,636.5283,636.5284,,0,217,217,11,1,12,umut,1988,90.3268,1818,0.1987,4,harmonic,1.55,word,m,,,,,,,
,,,,2023-11-28_12h11.40.531,VH_v3,2023.2.3,Win32,60.09976561,,,,,,,,,,,,636.5286,637.5272,,,,,,,,,,,,,,,,,,,,,,,,,,637.5272,638.4098,z,1,0.8666,,638.4098,638.4099,,0,218,218,332,1,333,makik,,,,,5,notharmonic,1.6,nw,z,,,,,,,
,,,,2023-11-28_12h11.40.531,VH_v3,2023.2.3,Win32,60.09976561,,,,,,,,,,,,638.4101,639.4091,,,,,,,,,,,,,,,,,,,,,,,,,,639.4091,640.0415,z,1,0.6169,,640.0415,640.0416,,0,219,219,210,1,211,şatla,,,,,5,harmonic,1.5,nw,z,,,,,,,
,,,,2023-11-28_12h11.40.531,VH_v3,2023.2.3,Win32,60.09976561,,,,,,,,,,,,640.0418,641.0402,,,,,,,,,,,,,,,,,,,,,,,,,,641.0402,642.4391,m,0,1.3826,,642.4392,642.4392,,0,220,220,224,1,225,binci,,,,,5,harmonic,1.5,nw,z,,,,,,,
,,,,2023-11-28_12h11.40.531,VH_v3,2023.2.3,Win32,60.09976561,,,,,,,,,,,,642.4395,643.438,,,,,,,,,,,,,,,,,,,,,,,,,,643.438,645.4359,,0,,,645.436,645.4361,,0,221,221,315,1,316,çarki,,,,,5,notharmonic,1.85,nw,z,,,,,,,
,,,,2023-11-28_12h11.40.531,VH_v3,2023.2.3,Win32,60.09976561,,,,,,,,,,,,645.4427,646.4349,,,,,,,,,,,,,,,,,,,,,,,,,,646.4349,647.0012,m,1,0.5503,,647.0012,647.0013,,0,222,222,136,1,137,süper,3256,147.9397,2989,0.3268,5,harmonic,,word,m,,,,,,,
,,,,2023-11-28_12h11.40.531,VH_v3,2023.2.3,Win32,60.09976561,,,,,,,,,,,,647.0016,648,,,,,,,,,,,,,,,,,,,,,,,,,,648,648.533,m,1,0.5169,,648.533,648.5331,,0,223,223,128,1,129,güçlü,3924,178.291,3614,0.3951,5,harmonic,,word,m,,,,,,,
,,,,2023-11-28_12h11.40.531,VH_v3,2023.2.3,Win32,60.09976561,,,,,,,,,,,,648.5335,649.5319,,,,,,,,,,,,,,,,,,,,,,,,,,649.532,650.6976,m,1,1.1495,,650.6976,650.6978,,0,224,224,64,1,65,lise,888,40.3472,816,0.0892,4,harmonic,1.5,word,m,,,,,,,
,,,,2023-11-28_12h11.40.531,VH_v3,2023.2.3,Win32,60.09976561,,,,,,,,,,,,650.6981,651.6963,,,,,,,,,,,,,,,,,,,,,,,,,,651.6963,652.3126,z,1,0.6001,,652.3126,652.3127,,0,225,225,291,1,292,kasge,,,,,5,notharmonic,2,nw,z,,,,,,,
,,,,2023-11-28_12h11.40.531,VH_v3,2023.2.3,Win32,60.09976561,,,,,,,,,,,,652.313,653.3113,,,,,,,,,,,,,,,,,,,,,,,,,,653.3113,654.0944,z,1,0.7669,,654.0944,654.0945,,0,226,226,295,1,296,takime,,,,,6,notharmonic,1.9,nw,z,,,,,,,
,,,,2023-11-28_12h11.40.531,VH_v3,2023.2.3,Win32,60.09976561,,,,,,,,,,,,654.0949,655.093,,,,,,,,,,,,,,,,,,,,,,,,,,655.093,655.8757,z,1,0.7665,,655.8757,655.8757,,0,227,227,207,1,208,çallak,,,,,6,harmonic,1.75,nw,z,,,,,,,
,,,,2023-11-28_12h11.40.531,VH_v3,2023.2.3,Win32,60.09976561,,,,,,,,,,,,655.876,656.8746,,,,,,,,,,,,,,,,,,,,,,,,,,656.8746,657.4578,m,1,0.567,,657.4578,657.4578,,0,228,228,103,1,104,yemek,9626,437.3673,8311,0.9086,5,harmonic,,word,m,,,,,,,
,,,,2023-11-28_12h11.40.531,VH_v3,2023.2.3,Win32,60.09976561,,,,,,,,,,,,657.458,658.4562,,,,,,,,,,,,,,,,,,,,,,,,,,658.4562,659.0893,z,1,0.6168,,659.0893,659.0894,,0,229,229,248,1,249,harık,,,,,5,harmonic,1.55,nw,z,,,,,,,
,,,,2023-11-28_12h11.40.531,VH_v3,2023.2.3,Win32,60.09976561,,,,,,,,,,,,659.0897,660.0879,,,,,,,,,,,,,,,,,,,,,,,,,,660.088,660.5877,m,1,0.4836,,660.5877,660.5878,,0,230,230,154,1,155,oyun,4926,223.8179,3995,0.4367,4,harmonic,,word,m,,,,,,,
,,,,2023-11-28_12h11.40.531,VH_v3,2023.2.3,Win32,60.09976561,,,,,,,,,,,,660.588,661.5865,,,,,,,,,,,,,,,,,,,,,,,,,,661.5865,662.1529,m,1,0.5503,,662.1529,662.1529,,0,231,231,140,1,141,ünlü,2684,121.9503,2457,0.2686,4,harmonic,,word,m,,,,,,,
,,,,2023-11-28_12h11.40.531,VH_v3,2023.2.3,Win32,60.09976561,,,,,,,,,,,,662.1532,663.1515,,,,,,,,,,,,,,,,,,,,,,,,,,663.1515,663.6515,m,1,0.4838,,663.6515,663.6515,,0,232,232,125,1,126,hızlı,4167,189.332,3688,0.4032,5,harmonic,,word,m,,,,,,,
,,,,2023-11-28_12h11.40.531,VH_v3,2023.2.3,Win32,60.09976561,,,,,,,,,,,,663.6518,664.6501,,,,,,,,,,,,,,,,,,,,,,,,,,664.6501,665.3167,m,1,0.6501,,665.3167,665.3168,,0,233,233,102,1,103,kaşık,1355,61.5658,1177,0.1287,5,harmonic,,word,m,,,,,,,
,,,,2023-11-28_12h11.40.531,VH_v3,2023.2.3,Win32,60.09976561,,,,,,,,,,,,665.3172,666.3152,,,,,,,,,,,,,,,,,,,,,,,,,,666.3153,666.8482,m,1,0.5168,,666.8482,666.8483,,0,234,234,137,1,138,yoğun,3189,144.8955,3026,0.3308,5,harmonic,,word,m,,,,,,,
,,,,2023-11-28_12h11.40.531,VH_v3,2023.2.3,Win32,60.09976561,,,,,,,,,,,,666.8486,667.847,,,,,,,,,,,,,,,,,,,,,,,,,,667.8471,668.5132,z,1,0.65,,668.5132,668.5133,,0,235,235,310,1,311,moderp,,,,,6,notharmonic,,nw,z,,,,,,,
,,,,2023-11-28_12h11.40.531,VH_v3,2023.2.3,Win32,60.09976561,,,,,,,,,,,,668.5136,669.512,,,,,,,,,,,,,,,,,,,,,,,,,,669.512,670.2569,z,1,0.726,,670.257,670.257,,0,236,236,277,1,278,melbut,,,,,6,notharmonic,1.95,nw,z,,,,,,,
,,,,2023-11-28_12h11.40.531,VH_v3,2023.2.3,Win32,60.09976561,,,,,,,,,,,,670.2575,671.2563,,,,,,,,,,,,,,,,,,,,,,,,,,671.2564,671.9386,z,1,0.6701,,671.9387,671.9387,,0,237,237,283,1,284,sate,,,,,4,notharmonic,1.45,nw,z,,,,,,,
,,,,2023-11-28_12h11.40.531,VH_v3,2023.2.3,Win32,60.09976561,,,,,,,,,,,,671.9392,672.9377,,,,,,,,,,,,,,,,,,,,,,,,,,672.9377,673.4871,m,1,0.5293,,673.4871,673.4873,,0,238,238,168,1,169,peynir,1421,64.5646,1248,0.1364,6,harmonic,,word,m,,,,,,,
,,,,2023-11-28_12h11.40.531,VH_v3,2023.2.3,Win32,60.09976561,,,,,,,,,,,,673.4876,674.4861,,,,,,,,,,,,,,,,,,,,,,,,,,674.4862,675.252,z,1,0.7483,,675.2521,675.2523,,0,239,239,340,1,341,zizon,,,,,5,notharmonic,1.85,nw,z,,,,,,,
,,,,2023-11-28_12h11.40.531,VH_v3,2023.2.3,Win32,60.09976561,,,,,,,,,,,,675.2526,676.251,,,,,,,,,,,,,,,,,,,,,,,,,,676.2511,676.8171,z,1,0.5532,,676.8171,831.0686,space,0,240,240,356,1,357,ated,,,,,4,notharmonic,,nw,z,154.2461,,,,,,
,,,,2023-11-28_12h11.40.531,VH_v3,2023.2.3,Win32,60.09976561,,,,,,,,,,,,831.0781,832.0672,,,,,,,,,,,,,,,,,,,,,,,,,,832.0672,833.333,m,1,1.2497,,833.333,833.3331,,0,241,241,142,1,143,aşık,2464,111.9544,2129,0.2327,4,harmonic,,word,m,,,,,,,
,,,,2023-11-28_12h11.40.531,VH_v3,2023.2.3,Win32,60.09976561,,,,,,,,,,,,833.3335,834.3317,,,,,,,,,,,,,,,,,,,,,,,,,,834.3318,835.131,m,1,0.7834,,835.131,835.131,,0,242,242,81,1,82,üretim,1593,72.3796,1283,0.1403,6,harmonic,1.6,word,m,,,,,,,
,,,,2023-11-28_12h11.40.531,VH_v3,2023.2.3,Win32,60.09976561,,,,,,,,,,,,835.1314,836.1298,,,,,,,,,,,,,,,,,,,,,,,,,,836.1298,836.6294,m,1,0.4835,,836.6295,836.6295,,0,243,243,133,1,134,ortak,3666,166.5685,3331,0.3641,5,harmonic,,word,m,,,,,,,
,,,,2023-11-28_12h11.40.531,VH_v3,2023.2.3,Win32,60.09976561,,,,,,,,,,,,836.6297,837.6284,,,,,,,,,,,,,,,,,,,,,,,,,,837.6284,838.0447,m,1,0.4002,,838.0447,838.0448,,0,244,244,139,1,140,okul,2685,121.9958,2381,0.2603,4,harmonic,,word,m,,,,,,,
,,,,2023-11-28_12h11.40.531,VH_v3,2023.2.3,Win32,60.09976561,,,,,,,,,,,,838.045,839.0435,,,,,,,,,,,,,,,,,,,,,,,,,,839.0436,839.6941,z,1,0.6344,,839.6941,839.6942,,0,245,245,237,1,238,küyek,,,,,5,harmonic,1.8,nw,z,,,,,,,
,,,,2023-11-28_12h11.40.531,VH_v3,2023.2.3,Win32,60.09976561,,,,,,,,,,,,839.6946,840.692,,,,,,,,,,,,,,,,,,,,,,,,,,840.6921,841.225,z,1,0.5169,,841.225,841.225,,0,246,246,184,1,185,medme,,,,,5,harmonic,1.95,nw,z,,,,,,,
,,,,2023-11-28_12h11.40.531,VH_v3,2023.2.3,Win32,60.09976561,,,,,,,,,,,,841.2253,842.2237,,,,,,,,,,,,,,,,,,,,,,,,,,842.2237,842.8567,m,1,0.6167,,842.8567,842.8568,,0,247,247,57,1,58,bölüm,1910,86.7828,1605,0.1755,5,harmonic,1.45,word,m,,,,,,,
,,,,2023-11-28_12h11.40.531,VH_v3,2023.2.3,Win32,60.09976561,,,,,,,,,,,,842.8571,843.8557,,,,,,,,,,,,,,,,,,,,,,,,,,843.8557,844.4051,m,1,0.5335,,844.4052,844.4052,,0,248,248,51,1,52,ilginç,2803,127.3572,2690,0.2941,6,harmonic,1.8,word,m,,,,,,,
,,,,2023-11-28_12h11.40.531,VH_v3,2023.2.3,Win32,60.09976561,,,,,,,,,,,,844.4055,845.4039,,,,,,,,,,,,,,,,,,,,,,,,,,845.4039,845.887,m,1,0.467,,845.887,845.8871,,0,249,249,156,1,157,sosyal,5290,240.3566,4372,0.4779,6,harmonic,,word,m,,,,,,,
,,,,2023-11-28_12h11.40.531,VH_v3,2023.2.3,Win32,60.09976561,,,,,,,,,,,,845.8873,846.8857,,,,,,,,,,,,,,,,,,,,,,,,,,846.8858,847.3523,m,1,0.4503,,847.3523,847.3523,,0,250,250,132,1,133,soğuk,3676,167.0229,3359,0.3672,5,harmonic,,word,m,,,,,,,
,,,,2023-11-28_12h11.40.531,VH_v3,2023.2.3,Win32,60.09976561,,,,,,,,,,,,847.3526,848.3509,,,,,,,,,,,,,,,,,,,,,,,,,,848.3509,848.8673,m,1,0.5002,,848.8674,848.8674,,0,251,251,70,1,71,yarın,3440,156.3,3222,0.3522,5,harmonic,1.85,word,m,,,,,,,
,,,,2023-11-28_12h11.40.531,VH_v3,2023.2.3,Win32,60.09976561,,,,,,,,,,,,848.8676,849.8661,,,,,,,,,,,,,,,,,,,,,,,,,,849.8661,850.4658,z,1,0.5837,,850.4658,850.4659,,0,252,252,322,1,323,galiç,,,,,5,notharmonic,1.8,nw,z,,,,,,,
,,,,2023-11-28_12h11.40.531,VH_v3,2023.2.3,Win32,60.09976561,,,,,,,,,,,,850.4662,851.4645,,,,,,,,,,,,,,,,,,,,,,,,,,851.4646,851.9809,m,1,0.5001,,851.9809,851.981,,0,253,253,27,1,28,bölge,1283,58.2944,1123,0.1228,5,harmonic,1.65,word,m,,,,,,,
,,,,2023-11-28_12h11.40.531,VH_v3,2023.2.3,Win32,60.09976561,,,,,,,,,,,,851.9813,852.9796,,,,,,,,,,,,,,,,,,,,,,,,,,852.9797,853.5964,z,1,0.6,,853.5964,853.5965,,0,254,254,297,1,298,şasep,,,,,5,notharmonic,1.9,nw,z,,,,,,,
,,,,2023-11-28_12h11.40.531,VH_v3,2023.2.3,Win32,60.09976561,,,,,,,,,,,,853.5968,854.5947,,,,,,,,,,,,,,,,,,,,,,,,,,854.5947,855.0777,m,1,0.467,,855.0778,855.0778,,0,255,255,124,1,125,yarım,4177,189.7863,3852,0.4211,5,harmonic,,word,m,,,,,,,
,,,,2023-11-28_12h11.40.531,VH_v3,2023.2.3,Win32,60.09976561,,,,,,,,,,,,855.0781,856.0766,,,,,,,,,,,,,,,,,,,,,,,,,,856.0766,856.6263,m,1,0.5335,,856.6264,856.6264,,0,256,256,134,1,135,hanım,3564,161.934,3151,0.3445,5,harmonic,,word,m,,,,,,,
,,,,2023-11-28_12h11.40.531,VH_v3,2023.2.3,Win32,60.09976561,,,,,,,,,,,,856.6266,857.6253,,,,,,,,,,,,,,,,,,,,,,,,,,857.6253,858.4745,z,1,0.8333,,858.4746,858.4746,,0,257,257,282,1,283,edap,,,,,4,notharmonic,1.7,nw,z,,,,,,,
,,,,2023-11-28_12h11.40.531,VH_v3,2023.2.3,Win32,60.09976561,,,,,,,,,,,,858.4749,859.4732,,,,,,,,,,,,,,,,,,,,,,,,,,859.4732,860.0729,m,1,0.5834,,860.0729,860.073,,0,258,258,147,1,148,dizi,1995,90.6449,1689,0.1846,4,harmonic,,word,m,,,,,,,
,,,,2023-11-28_12h11.40.531,VH_v3,2023.2.3,Win32,60.09976561,,,,,,,,,,,,860.0732,861.0715,,,,,,,,,,,,,,,,,,,,,,,,,,861.0715,861.6713,m,1,0.5834,,861.6713,861.6714,,0,259,259,165,1,166,fırsat,1952,88.6911,1863,0.2037,6,harmonic,,word,m,,,,,,,
,,,,2023-11-28_12h11.40.531,VH_v3,2023.2.3,Win32,60.09976561,,,,,,,,,,,,861.6716,862.67,,,,,,,,,,,,,,,,,,,,,,,,,,862.67,863.6027,z,1,0.9165,,863.6027,863.6028,,0,260,260,223,1,224,kamut,,,,,5,harmonic,1.5,nw,z,,,,,,,
,,,,2023-11-28_12h11.40.531,VH_v3,2023.2.3,Win32,60.09976561,,,,,,,,,,,,863.6031,864.6013,,,,,,,,,,,,,,,,,,,,,,,,,,864.6014,865.7008,z,1,1.0832,,865.7009,865.7009,,0,261,261,231,1,232,çekir,,,,,5,harmonic,1.45,nw,z,,,,,,,
,,,,2023-11-28_12h11.40.531,VH_v3,2023.2.3,Win32,60.09976561,,,,,,,,,,,,865.7012,866.7043,,,,,,,,,,,,,,,,,,,,,,,,,,866.7044,867.5657,z,1,0.8502,,867.5658,867.5658,,0,262,262,335,1,336,askif,,,,,5,notharmonic,2,nw,z,,,,,,,
,,,,2023-11-28_12h11.40.531,VH_v3,2023.2.3,Win32,60.09976561,,,,,,,,,,,,867.5661,868.5642,,,,,,,,,,,,,,,,,,,,,,,,,,868.5642,869.1972,z,1,0.6167,,869.1972,869.1973,,0,263,263,337,1,338,yakim,,,,,5,notharmonic,1.75,nw,z,,,,,,,
,,,,2023-11-28_12h11.40.531,VH_v3,2023.2.3,Win32,60.09976561,,,,,,,,,,,,869.1976,870.1958,,,,,,,,,,,,,,,,,,,,,,,,,,870.1958,870.7956,z,1,0.5836,,870.7956,870.7957,,0,264,264,312,1,313,izmal,,,,,5,notharmonic,1.8,nw,z,,,,,,,
,,,,2023-11-28_12h11.40.531,VH_v3,2023.2.3,Win32,60.09976561,,,,,,,,,,,,870.7959,871.7944,,,,,,,,,,,,,,,,,,,,,,,,,,871.7944,872.5772,z,1,0.7666,,872.5772,872.5772,,0,265,265,287,1,288,beran,,,,,5,notharmonic,1.75,nw,z,,,,,,,
,,,,2023-11-28_12h11.40.531,VH_v3,2023.2.3,Win32,60.09976561,,,,,,,,,,,,872.5775,873.5758,,,,,,,,,,,,,,,,,,,,,,,,,,873.5759,874.2255,m,1,0.6335,,874.2255,874.2255,,0,266,266,107,1,108,sivil,1334,60.6117,1151,0.1258,5,harmonic,,word,m,,,,,,,
,,,,2023-11-28_12h11.40.531,VH_v3,2023.2.3,Win32,60.09976561,,,,,,,,,,,,874.2258,875.2242,,,,,,,,,,,,,,,,,,,,,,,,,,875.2242,875.9237,z,1,0.6832,,875.9237,875.9237,,0,267,267,222,1,223,çetiş,,,,,5,harmonic,1.7,nw,z,,,,,,,
,,,,2023-11-28_12h11.40.531,VH_v3,2023.2.3,Win32,60.09976561,,,,,,,,,,,,875.9241,876.9225,,,,,,,,,,,,,,,,,,,,,,,,,,876.9226,877.4557,m,1,0.5169,,877.4557,877.4557,,0,268,268,59,1,60,köpek,1044,47.4352,901,0.0985,5,harmonic,1.75,word,m,,,,,,,
,,,,2023-11-28_12h11.40.531,VH_v3,2023.2.3,Win32,60.09976561,,,,,,,,,,,,877.456,878.4543,,,,,,,,,,,,,,,,,,,,,,,,,,878.4543,879.3375,z,1,0.8669,,879.3375,879.3376,,0,269,269,290,1,291,nüda,,,,,4,notharmonic,1.9,nw,z,,,,,,,
,,,,2023-11-28_12h11.40.531,VH_v3,2023.2.3,Win32,60.09976561,,,,,,,,,,,,879.3379,880.3358,,,,,,,,,,,,,,,,,,,,,,,,,,880.3358,880.8523,m,1,0.5003,,880.8523,880.8524,,0,270,270,0,1,1,sanat,3121,141.8059,2485,0.2717,5,harmonic,1.4,word,m,,,,,,,
,,,,2023-11-28_12h11.40.531,VH_v3,2023.2.3,Win32,60.09976561,,,,,,,,,,,,880.8527,881.8509,,,,,,,,,,,,,,,,,,,,,,,,,,881.8509,882.5506,z,1,0.6835,,882.5507,882.5507,,0,271,271,275,1,276,makis,,,,,5,notharmonic,1.8,nw,z,,,,,,,
,,,,2023-11-28_12h11.40.531,VH_v3,2023.2.3,Win32,60.09976561,,,,,,,,,,,,882.551,883.5494,,,,,,,,,,,,,,,,,,,,,,,,,,883.5495,884.5985,m,1,1.033,,884.5985,884.5985,,0,272,272,44,1,45,kayıt,1234,56.0681,1058,0.1157,5,harmonic,1.35,word,m,,,,,,,
,,,,2023-11-28_12h11.40.531,VH_v3,2023.2.3,Win32,60.09976561,,,,,,,,,,,,884.5988,885.5972,,,,,,,,,,,,,,,,,,,,,,,,,,885.5972,886.2141,z,1,0.6007,,886.2141,886.2142,,0,273,273,279,1,280,ikaza,,,,,5,notharmonic,1.9,nw,z,,,,,,,
,,,,2023-11-28_12h11.40.531,VH_v3,2023.2.3,Win32,60.09976561,,,,,,,,,,,,886.2145,887.2123,,,,,,,,,,,,,,,,,,,,,,,,,,887.2124,887.812,m,1,0.5835,,887.8121,887.8121,,0,274,274,1,1,2,erkek,6188,281.1582,5195,0.5679,5,harmonic,1.65,word,m,,,,,,,
,,,,2023-11-28_12h11.40.531,VH_v3,2023.2.3,Win32,60.09976561,,,,,,,,,,,,887.8125,888.8107,,,,,,,,,,,,,,,,,,,,,,,,,,888.8107,889.3604,m,1,0.5336,,889.3605,889.3605,,0,275,275,29,1,30,huzur,1911,86.8283,1799,0.1967,5,harmonic,1.8,word,m,,,,,,,
,,,,2023-11-28_12h11.40.531,VH_v3,2023.2.3,Win32,60.09976561,,,,,,,,,,,,889.3608,890.3592,,,,,,,,,,,,,,,,,,,,,,,,,,890.3592,890.8756,z,1,0.5002,,890.8756,890.8757,,0,276,276,272,1,273,sakke,,,,,5,notharmonic,1.85,nw,z,,,,,,,
,,,,2023-11-28_12h11.40.531,VH_v3,2023.2.3,Win32,60.09976561,,,,,,,,,,,,890.876,891.8743,,,,,,,,,,,,,,,,,,,,,,,,,,891.8744,891.8916,m,1,0.001,,891.8917,891.8917,,0,277,277,48,1,49,teşvik,932,42.3464,867,0.0948,6,harmonic,1.8,word,m,,,,,,,
,,,,2023-11-28_12h11.40.531,VH_v3,2023.2.3,Win32,60.09976561,,,,,,,,,,,,891.892,892.89,,,,,,,,,,,,,,,,,,,,,,,,,,892.8901,893.4397,z,1,0.5334,,893.4397,893.4397,,0,278,278,217,1,218,dötim,,,,,5,harmonic,2,nw,z,,,,,,,
,,,,2023-11-28_12h11.40.531,VH_v3,2023.2.3,Win32,60.09976561,,,,,,,,,,,,893.4399,894.4384,,,,,,,,,,,,,,,,,,,,,,,,,,894.4384,895.3877,z,1,0.933,,895.3877,895.3878,,0,279,279,350,1,351,bügun,,,,,5,notharmonic,2,nw,z,,,,,,,
,,,,2023-11-28_12h11.40.531,VH_v3,2023.2.3,Win32,60.09976561,,,,,,,,,,,,895.3881,896.3866,,,,,,,,,,,,,,,,,,,,,,,,,,896.3866,897.0861,z,1,0.6834,,897.0861,897.0861,,0,280,280,225,1,226,sakam,,,,,5,harmonic,1.45,nw,z,,,,,,,
,,,,2023-11-28_12h11.40.531,VH_v3,2023.2.3,Win32,60.09976561,,,,,,,,,,,,897.0864,898.0847,,,,,,,,,,,,,,,,,,,,,,,,,,898.0847,898.7012,z,1,0.6001,,898.7012,898.7012,,0,281,281,278,1,279,camet,,,,,5,notharmonic,1.8,nw,z,,,,,,,
,,,,2023-11-28_12h11.40.531,VH_v3,2023.2.3,Win32,60.09976561,,,,,,,,,,,,898.7014,899.6999,,,,,,,,,,,,,,,,,,,,,,,,,,899.7,900.3829,m,1,0.6669,,900.3829,900.383,,0,282,282,115,1,116,uygun,6757,307.0113,6297,0.6884,5,harmonic,,word,m,,,,,,,
,,,,2023-11-28_12h11.40.531,VH_v3,2023.2.3,Win32,60.09976561,,,,,,,,,,,,900.3832,901.3816,,,,,,,,,,,,,,,,,,,,,,,,,,901.3816,901.8814,m,1,0.4836,,901.8815,901.8815,,0,283,283,130,1,131,sonuç,3768,171.203,3626,0.3964,5,harmonic,,word,m,,,,,,,
,,,,2023-11-28_12h11.40.531,VH_v3,2023.2.3,Win32,60.09976561,,,,,,,,,,,,901.8817,902.8805,,,,,,,,,,,,,,,,,,,,,,,,,,902.8805,903.5632,z,1,0.6669,,903.5632,903.5632,,0,284,284,240,1,241,şünle,,,,,5,harmonic,1.9,nw,z,,,,,,,
,,,,2023-11-28_12h11.40.531,VH_v3,2023.2.3,Win32,60.09976561,,,,,,,,,,,,903.5634,904.5618,,,,,,,,,,,,,,,,,,,,,,,,,,904.5618,905.1115,m,1,0.5335,,905.1117,905.1118,,0,285,285,109,1,110,dalga,1307,59.3849,1117,0.1221,5,harmonic,,word,m,,,,,,,
,,,,2023-11-28_12h11.40.531,VH_v3,2023.2.3,Win32,60.09976561,,,,,,,,,,,,905.1121,906.1102,,,,,,,,,,,,,,,,,,,,,,,,,,906.1102,906.76,m,1,0.6335,,906.76,906.7601,,0,286,286,46,1,47,takım,4370,198.5555,3726,0.4073,5,harmonic,1.7,word,m,,,,,,,
,,,,2023-11-28_12h11.40.531,VH_v3,2023.2.3,Win32,60.09976561,,,,,,,,,,,,906.7604,907.7586,,,,,,,,,,,,,,,,,,,,,,,,,,907.7586,908.3415,m,1,0.5669,,908.3416,908.3416,,0,287,287,24,1,25,yorgun,1153,52.3877,1108,0.1211,6,harmonic,1.55,word,m,,,,,,,
,,,,2023-11-28_12h11.40.531,VH_v3,2023.2.3,Win32,60.09976561,,,,,,,,,,,,908.342,909.3403,,,,,,,,,,,,,,,,,,,,,,,,,,909.3404,910.223,z,1,0.8665,,910.2231,910.2232,,0,288,288,341,1,342,sizika,,,,,6,notharmonic,2.45,nw,z,,,,,,,
,,,,2023-11-28_12h11.40.531,VH_v3,2023.2.3,Win32,60.09976561,,,,,,,,,,,,910.2234,911.2218,,,,,,,,,,,,,,,,,,,,,,,,,,911.2218,912.1049,m,1,0.8668,,912.1049,912.105,,0,289,289,12,1,13,konu,5400,245.3546,5110,0.5586,4,harmonic,1,word,m,,,,,,,
,,,,2023-11-28_12h11.40.531,VH_v3,2023.2.3,Win32,60.09976561,,,,,,,,,,,,912.1052,913.1033,,,,,,,,,,,,,,,,,,,,,,,,,,913.1033,914.6687,m,1,1.5494,,914.6688,914.6688,,0,290,290,151,1,152,uzak,4809,218.5019,4564,0.4989,4,harmonic,,word,m,,,,,,,
,,,,2023-11-28_12h11.40.531,VH_v3,2023.2.3,Win32,60.09976561,,,,,,,,,,,,914.6774,915.6674,,,,,,,,,,,,,,,,,,,,,,,,,,915.6674,916.7832,z,1,1.0991,,916.7832,916.7833,,0,291,291,343,1,344,tazen,,,,,5,notharmonic,1.8,nw,z,,,,,,,
,,,,2023-11-28_12h11.40.531,VH_v3,2023.2.3,Win32,60.09976561,,,,,,,,,,,,916.7837,917.7819,,,,,,,,,,,,,,,,,,,,,,,,,,917.7819,918.8649,m,1,1.0669,,918.865,918.8651,,0,292,292,7,1,8,hizmet,3023,137.3531,2689,0.294,6,harmonic,1.75,word,m,,,,,,,
,,,,2023-11-28_12h11.40.531,VH_v3,2023.2.3,Win32,60.09976561,,,,,,,,,,,,918.8653,919.8633,,,,,,,,,,,,,,,,,,,,,,,,,,919.8634,920.9624,m,1,1.083,,920.9624,920.9625,,0,293,293,2,1,3,radyo,763,34.6677,636,0.0695,5,harmonic,1.85,word,m,,,,,,,
,,,,2023-11-28_12h11.40.531,VH_v3,2023.2.3,Win32,60.09976561,,,,,,,,,,,,920.9627,921.9612,,,,,,,,,,,,,,,,,,,,,,,,,,921.9613,922.644,z,1,0.6666,,922.644,922.644,,0,294,294,189,1,190,kanak,,,,,5,harmonic,1.1,nw,z,,,,,,,
,,,,2023-11-28_12h11.40.531,VH_v3,2023.2.3,Win32,60.09976561,,,,,,,,,,,,922.6443,923.6427,,,,,,,,,,,,,,,,,,,,,,,,,,923.6427,924.4924,m,1,0.8332,,924.4924,924.4925,,0,295,295,56,1,57,sağlam,1818,82.6027,1720,0.188,6,harmonic,1.6,word,m,,,,,,,
,,,,2023-11-28_12h11.40.531,VH_v3,2023.2.3,Win32,60.09976561,,,,,,,,,,,,924.4928,925.4908,,,,,,,,,,,,,,,,,,,,,,,,,,925.4908,926.6402,z,1,1.1331,,926.6402,926.6403,,0,296,296,266,1,267,yannoz,,,,,6,harmonic,2.85,nw,z,,,,,,,
,,,,2023-11-28_12h11.40.531,VH_v3,2023.2.3,Win32,60.09976561,,,,,,,,,,,,926.6485,927.6388,,,,,,,,,,,,,,,,,,,,,,,,,,927.6388,928.8879,z,1,1.2328,,928.8879,928.888,,0,297,297,267,1,268,eşti,,,,,4,harmonic,1.85,nw,z,,,,,,,
,,,,2023-11-28_12h11.40.531,VH_v3,2023.2.3,Win32,60.09976561,,,,,,,,,,,,928.8883,929.8866,,,,,,,,,,,,,,,,,,,,,,,,,,929.8867,930.5528,m,1,0.6501,,930.5528,930.5529,,0,298,298,58,1,59,ayak,2143,97.3694,1931,0.2111,4,harmonic,1,word,m,,,,,,,
,,,,2023-11-28_12h11.40.531,VH_v3,2023.2.3,Win32,60.09976561,,,,,,,,,,,,930.5532,931.5516,,,,,,,,,,,,,,,,,,,,,,,,,,931.5517,932.3344,z,1,0.7665,,932.3344,932.3345,,0,299,299,298,1,299,memzur,,,,,6,notharmonic,1.95,nw,z,,,,,,,
,,,,2023-11-28_12h11.40.531,VH_v3,2023.2.3,Win32,60.09976561,,,,,,,,,,,,932.3347,933.333,,,,,,,,,,,,,,,,,,,,,,,,,,933.3331,933.8329,m,1,0.4835,,933.8329,933.833,,0,300,300,16,1,17,yavaş,5087,231.1331,2886,0.3155,5,harmonic,1.6,word,m,,,,,,,
,,,,2023-11-28_12h11.40.531,VH_v3,2023.2.3,Win32,60.09976561,,,,,,,,,,,,933.8332,934.8317,,,,,,,,,,,,,,,,,,,,,,,,,,934.8318,935.3813,m,1,0.5335,,935.3813,935.3814,,0,301,301,67,1,68,bayram,1948,88.5094,1648,0.1802,6,harmonic,1.85,word,m,,,,,,,
,,,,2023-11-28_12h11.40.531,VH_v3,2023.2.3,Win32,60.09976561,,,,,,,,,,,,935.3817,936.3806,,,,,,,,,,,,,,,,,,,,,,,,,,936.3807,937.0132,m,1,0.6169,,937.0132,937.0133,,0,302,302,179,1,180,mesele,995,45.2089,929,0.1016,6,harmonic,,word,m,,,,,,,
,,,,2023-11-28_12h11.40.531,VH_v3,2023.2.3,Win32,60.09976561,,,,,,,,,,,,937.0135,938.0119,,,,,,,,,,,,,,,,,,,,,,,,,,938.0119,938.7281,z,1,0.7001,,938.7281,938.7281,,0,303,303,358,1,359,ksalik,,,,,6,notharmonic,,nw,z,,,,,,,
,,,,2023-11-28_12h11.40.531,VH_v3,2023.2.3,Win32,60.09976561,,,,,,,,,,,,938.7285,939.7268,,,,,,,,,,,,,,,,,,,,,,,,,,939.7268,940.3764,m,1,0.6335,,940.3765,940.3765,,0,304,304,135,1,136,değer,3333,151.4383,3084,0.3371,5,harmonic,,word,m,,,,,,,
,,,,2023-11-28_12h11.40.531,VH_v3,2023.2.3,Win32,60.09976561,,,,,,,,,,,,940.3769,941.3751,,,,,,,,,,,,,,,,,,,,,,,,,,941.3752,941.9083,m,1,0.5169,,941.9084,941.9084,,0,305,305,49,1,50,şeker,4708,213.9128,4170,0.4559,5,harmonic,1.6,word,m,,,,,,,
,,,,2023-11-28_12h11.40.531,VH_v3,2023.2.3,Win32,60.09976561,,,,,,,,,,,,941.9087,942.907,,,,,,,,,,,,,,,,,,,,,,,,,,942.907,943.4733,m,1,0.5502,,943.4733,943.4734,,0,306,306,91,1,92,zaman,40307,1831.3902,33589,3.672,5,harmonic,,word,m,,,,,,,
,,,,2023-11-28_12h11.40.531,VH_v3,2023.2.3,Win32,60.09976561,,,,,,,,,,,,943.4737,944.4721,,,,,,,,,,,,,,,,,,,,,,,,,,944.4721,945.2382,z,1,0.7499,,945.2383,945.2383,,0,307,307,320,1,321,sivaka,,,,,6,notharmonic,2.3,nw,z,,,,,,,
,,,,2023-11-28_12h11.40.531,VH_v3,2023.2.3,Win32,60.09976561,,,,,,,,,,,,945.2385,946.237,,,,,,,,,,,,,,,,,,,,,,,,,,946.237,948.0523,z,1,1.799,,948.0523,948.0523,,0,308,308,333,1,334,uleç,,,,,4,notharmonic,1.95,nw,z,,,,,,,
,,,,2023-11-28_12h11.40.531,VH_v3,2023.2.3,Win32,60.09976561,,,,,,,,,,,,948.0525,949.0508,,,,,,,,,,,,,,,,,,,,,,,,,,949.0508,950.2999,m,1,1.233,,950.2999,950.3,,0,309,309,98,1,99,yerel,1399,63.565,1187,0.1298,5,harmonic,,word,m,,,,,,,
,,,,2023-11-28_12h11.40.531,VH_v3,2023.2.3,Win32,60.09976561,,,,,,,,,,,,950.3003,951.2986,,,,,,,,,,,,,,,,,,,,,,,,,,951.2986,951.9151,z,1,0.6003,,951.9151,951.9151,,0,310,310,235,1,236,mörüm,,,,,5,harmonic,1.9,nw,z,,,,,,,
,,,,2023-11-28_12h11.40.531,VH_v3,2023.2.3,Win32,60.09976561,,,,,,,,,,,,951.9154,952.9136,,,,,,,,,,,,,,,,,,,,,,,,,,952.9137,953.4967,z,1,0.5667,,953.4967,953.4968,,0,311,311,305,1,306,itba,,,,,4,notharmonic,1.85,nw,z,,,,,,,
,,,,2023-11-28_12h11.40.531,VH_v3,2023.2.3,Win32,60.09976561,,,,,,,,,,,,953.4972,954.4958,,,,,,,,,,,,,,,,,,,,,,,,,,954.4958,955.1285,z,1,0.6168,,955.1285,955.1286,,0,312,312,336,1,337,zanit,,,,,5,notharmonic,1.85,nw,z,,,,,,,
,,,,2023-11-28_12h11.40.531,VH_v3,2023.2.3,Win32,60.09976561,,,,,,,,,,,,955.1288,956.1271,,,,,,,,,,,,,,,,,,,,,,,,,,956.1271,956.6938,z,1,0.5505,,956.6938,956.6939,,0,313,313,257,1,258,dulom,,,,,5,harmonic,2.3,nw,z,,,,,,,
,,,,2023-11-28_12h11.40.531,VH_v3,2023.2.3,Win32,60.09976561,,,,,,,,,,,,956.6941,957.6925,,,,,,,,,,,,,,,,,,,,,,,,,,957.6925,958.3918,z,1,0.6833,,958.3919,958.3919,,0,314,314,234,1,235,taslam,,,,,6,harmonic,1.9,nw,z,,,,,,,
,,,,2023-11-28_12h11.40.531,VH_v3,2023.2.3,Win32,60.09976561,,,,,,,,,,,,958.3921,959.3906,,,,,,,,,,,,,,,,,,,,,,,,,,959.3906,959.907,z,1,0.5003,,959.9071,959.9071,,0,315,315,329,1,330,aniş,,,,,4,notharmonic,1.7,nw,z,,,,,,,
,,,,2023-11-28_12h11.40.531,VH_v3,2023.2.3,Win32,60.09976561,,,,,,,,,,,,959.9073,960.9059,,,,,,,,,,,,,,,,,,,,,,,,,,960.9059,961.5721,z,1,0.6499,,961.5721,961.5721,,0,316,316,309,1,310,yanele,,,,,6,notharmonic,1.85,nw,z,,,,,,,
,,,,2023-11-28_12h11.40.531,VH_v3,2023.2.3,Win32,60.09976561,,,,,,,,,,,,961.5723,962.5708,,,,,,,,,,,,,,,,,,,,,,,,,,962.5708,963.2037,z,1,0.6166,,963.2038,963.2038,,0,317,317,261,1,262,kübün,,,,,5,harmonic,2,nw,z,,,,,,,
,,,,2023-11-28_12h11.40.531,VH_v3,2023.2.3,Win32,60.09976561,,,,,,,,,,,,963.2041,964.2024,,,,,,,,,,,,,,,,,,,,,,,,,,964.2025,964.8354,z,1,0.6168,,964.8354,964.8355,,0,318,318,302,1,303,desum,,,,,5,notharmonic,2,nw,z,,,,,,,
,,,,2023-11-28_12h11.40.531,VH_v3,2023.2.3,Win32,60.09976561,,,,,,,,,,,,964.8358,965.8347,,,,,,,,,,,,,,,,,,,,,,,,,,965.8347,966.4172,z,1,0.5666,,966.4172,966.4173,,0,319,319,255,1,256,ubar,,,,,4,harmonic,1.7,nw,z,,,,,,,
,,,,2023-11-28_12h11.40.531,VH_v3,2023.2.3,Win32,60.09976561,,,,,,,,,,,,966.4176,967.4159,,,,,,,,,,,,,,,,,,,,,,,,,,967.4159,968.0157,m,1,0.5836,,968.0157,968.0158,,0,320,320,160,1,161,günlük,3421,155.4367,3201,0.3499,6,harmonic,,word,m,,,,,,,
,,,,2023-11-28_12h11.40.531,VH_v3,2023.2.3,Win32,60.09976561,,,,,,,,,,,,968.016,969.0144,,,,,,,,,,,,,,,,,,,,,,,,,,969.0144,969.8305,z,1,0.8,,969.8306,969.8306,,0,321,321,347,1,348,şeylam,,,,,6,notharmonic,2.4,nw,z,,,,,,,
,,,,2023-11-28_12h11.40.531,VH_v3,2023.2.3,Win32,60.09976561,,,,,,,,,,,,969.8309,970.8293,,,,,,,,,,,,,,,,,,,,,,,,,,970.8293,971.7287,z,1,0.8831,,971.7288,971.7288,,0,322,322,355,1,356,daneta,,,,,6,notharmonic,2.4,nw,z,,,,,,,
,,,,2023-11-28_12h11.40.531,VH_v3,2023.2.3,Win32,60.09976561,,,,,,,,,,,,971.729,972.7273,,,,,,,,,,,,,,,,,,,,,,,,,,972.7274,973.2604,z,1,0.5169,,973.2604,973.2605,,0,323,323,195,1,196,habaş,,,,,5,harmonic,1.95,nw,z,,,,,,,
,,,,2023-11-28_12h11.40.531,VH_v3,2023.2.3,Win32,60.09976561,,,,,,,,,,,,973.2608,974.2591,,,,,,,,,,,,,,,,,,,,,,,,,,974.2591,974.8257,z,1,0.5502,,974.8257,974.8258,,0,324,324,238,1,239,bodu,,,,,4,harmonic,1.85,nw,z,,,,,,,
,,,,2023-11-28_12h11.40.531,VH_v3,2023.2.3,Win32,60.09976561,,,,,,,,,,,,974.8261,975.8243,,,,,,,,,,,,,,,,,,,,,,,,,,975.8243,976.2243,z,0,0.3837,,976.2243,976.2244,,0,325,325,25,1,26,rapor,703,31.9415,617,0.0675,5,harmonic,1.8,word,m,,,,,,,
,,,,2023-11-28_12h11.40.531,VH_v3,2023.2.3,Win32,60.09976561,,,,,,,,,,,,976.2246,977.2228,,,,,,,,,,,,,,,,,,,,,,,,,,977.2228,977.806,m,1,0.5669,,977.806,977.8061,,0,326,326,72,1,73,çorba,1674,76.0599,1513,0.1654,5,harmonic,1.75,word,m,,,,,,,
,,,,2023-11-28_12h11.40.531,VH_v3,2023.2.3,Win32,60.09976561,,,,,,,,,,,,977.8063,978.8046,,,,,,,,,,,,,,,,,,,,,,,,,,978.8047,979.4379,z,1,0.6171,,979.438,979.438,,0,327,327,242,1,243,ziye,,,,,4,harmonic,1.75,nw,z,,,,,,,
,,,,2023-11-28_12h11.40.531,VH_v3,2023.2.3,Win32,60.09976561,,,,,,,,,,,,979.4383,980.4363,,,,,,,,,,,,,,,,,,,,,,,,,,980.4364,981.7689,z,1,1.3163,,981.7689,981.769,,0,328,328,339,1,340,halip,,,,,5,notharmonic,1.5,nw,z,,,,,,,
,,,,2023-11-28_12h11.40.531,VH_v3,2023.2.3,Win32,60.09976561,,,,,,,,,,,,981.7693,982.7673,,,,,,,,,,,,,,,,,,,,,,,,,,982.7673,984.7654,,0,,,984.7654,984.7656,,0,329,329,92,1,93,büyük,32406,1472.4001,28224,3.0855,5,harmonic,,word,m,,,,,,,
,,,,2023-11-28_12h11.40.531,VH_v3,2023.2.3,Win32,60.09976561,,,,,,,,,,,,984.7658,985.7644,,,,,,,,,,,,,,,,,,,,,,,,,,985.7644,987.0133,m,1,1.2328,,987.0133,987.0134,,0,330,330,158,1,159,tercih,4577,207.9607,4282,0.4681,6,harmonic,,word,m,,,,,,,
,,,,2023-11-28_12h11.40.531,VH_v3,2023.2.3,Win32,60.09976561,,,,,,,,,,,,987.0137,988.0123,,,,,,,,,,,,,,,,,,,,,,,,,,988.0123,989.0448,z,1,1.0165,,989.0449,989.0449,,0,331,331,351,1,352,eula,,,,,4,notharmonic,1.65,nw,z,,,,,,,
,,,,2023-11-28_12h11.40.531,VH_v3,2023.2.3,Win32,60.09976561,,,,,,,,,,,,989.0452,990.0435,,,,,,,,,,,,,,,,,,,,,,,,,,990.0436,990.6931,m,1,0.6335,,990.6932,990.6932,,0,332,332,62,1,63,cümle,1911,86.8283,1765,0.193,5,harmonic,1.85,word,m,,,,,,,
,,,,2023-11-28_12h11.40.531,VH_v3,2023.2.3,Win32,60.09976561,,,,,,,,,,,,990.6935,991.6917,,,,,,,,,,,,,,,,,,,,,,,,,,991.6917,992.375,m,1,0.6669,,992.375,992.3751,,0,333,333,164,1,165,toprak,1989,90.3723,1762,0.1926,6,harmonic,,word,m,,,,,,,
,,,,2023-11-28_12h11.40.531,VH_v3,2023.2.3,Win32,60.09976561,,,,,,,,,,,,992.3754,993.3735,,,,,,,,,,,,,,,,,,,,,,,,,,993.3735,994.1067,z,1,0.717,,994.1067,994.1067,,0,334,334,251,1,252,bellet,,,,,6,harmonic,1.8,nw,z,,,,,,,
,,,,2023-11-28_12h11.40.531,VH_v3,2023.2.3,Win32,60.09976561,,,,,,,,,,,,994.1069,995.1051,,,,,,,,,,,,,,,,,,,,,,,,,,995.1051,996.121,z,1,0.9998,,996.1211,996.1212,,0,335,335,292,1,293,semun,,,,,5,notharmonic,1.85,nw,z,,,,,,,
,,,,2023-11-28_12h11.40.531,VH_v3,2023.2.3,Win32,60.09976561,,,,,,,,,,,,996.1214,997.1198,,,,,,,,,,,,,,,,,,,,,,,,,,997.1198,998.1524,z,1,1.0164,,998.1524,998.1524,,0,336,336,182,1,183,rafto,,,,,5,harmonic,2,nw,z,,,,,,,
,,,,2023-11-28_12h11.40.531,VH_v3,2023.2.3,Win32,60.09976561,,,,,,,,,,,,998.1527,999.1511,,,,,,,,,,,,,,,,,,,,,,,,,,999.1511,999.5844,m,1,0.4172,,999.5844,999.5845,,0,337,337,90,1,91,güzel,42841,1946.5251,37209,4.0677,5,harmonic,,word,m,,,,,,,
,,,,2023-11-28_12h11.40.531,VH_v3,2023.2.3,Win32,60.09976561,,,,,,,,,,,,999.5848,1000.5829,,,,,,,,,,,,,,,,,,,,,,,,,,1000.5829,1002.0321,z,1,1.4328,,1002.0321,1002.0322,,0,338,338,199,1,200,repes,,,,,5,harmonic,2,nw,z,,,,,,,
,,,,2023-11-28_12h11.40.531,VH_v3,2023.2.3,Win32,60.09976561,,,,,,,,,,,,1002.0406,1003.0306,,,,,,,,,,,,,,,,,,,,,,,,,,1003.0307,1003.7968,z,1,0.75,,1003.7968,1003.797,,0,339,339,273,1,274,sisaf,,,,,5,notharmonic,2,nw,z,,,,,,,
,,,,2023-11-28_12h11.40.531,VH_v3,2023.2.3,Win32,60.09976561,,,,,,,,,,,,1003.7972,1004.7955,,,,,,,,,,,,,,,,,,,,,,,,,,1004.7955,1006.794,,0,,,1006.7941,1006.7941,,0,340,340,306,1,307,napare,,,,,6,notharmonic,2.15,nw,z,,,,,,,
,,,,2023-11-28_12h11.40.531,VH_v3,2023.2.3,Win32,60.09976561,,,,,,,,,,,,1006.7943,1007.7925,,,,,,,,,,,,,,,,,,,,,,,,,,1007.7925,1008.3589,m,1,0.5502,,1008.3589,1008.359,,0,341,341,101,1,102,kabul,10003,454.4967,9014,0.9854,5,harmonic,,word,m,,,,,,,
,,,,2023-11-28_12h11.40.531,VH_v3,2023.2.3,Win32,60.09976561,,,,,,,,,,,,1008.3593,1009.3578,,,,,,,,,,,,,,,,,,,,,,,,,,1009.3578,1010.4236,z,1,1.0499,,1010.4236,1010.4237,,0,342,342,288,1,289,talif,,,,,5,notharmonic,1.5,nw,z,,,,,,,
,,,,2023-11-28_12h11.40.531,VH_v3,2023.2.3,Win32,60.09976561,,,,,,,,,,,,1010.4239,1011.4221,,,,,,,,,,,,,,,,,,,,,,,,,,1011.4222,1011.9387,m,1,0.5003,,1011.9388,1011.9389,,0,343,343,78,1,79,ulusal,1551,70.4713,1355,0.1481,6,harmonic,1.75,word,m,,,,,,,
,,,,2023-11-28_12h11.40.531,VH_v3,2023.2.3,Win32,60.09976561,,,,,,,,,,,,1011.9391,1012.9374,,,,,,,,,,,,,,,,,,,,,,,,,,1012.9374,1013.4705,m,1,0.5169,,1013.4705,1013.4705,,0,344,344,75,1,76,roman,1499,68.1086,1281,0.14,5,harmonic,1.6,word,m,,,,,,,
,,,,2023-11-28_12h11.40.531,VH_v3,2023.2.3,Win32,60.09976561,,,,,,,,,,,,1013.4708,1014.4691,,,,,,,,,,,,,,,,,,,,,,,,,,1014.4692,1015.1355,z,1,0.6503,,1015.1356,1015.1357,,0,345,345,293,1,294,mosil,,,,,5,notharmonic,1.85,nw,z,,,,,,,
,,,,2023-11-28_12h11.40.531,VH_v3,2023.2.3,Win32,60.09976561,,,,,,,,,,,,1015.136,1016.1344,,,,,,,,,,,,,,,,,,,,,,,,,,1016.1345,1016.6679,z,1,0.5172,,1016.6679,1016.6679,,0,346,346,301,1,302,meyav,,,,,5,notharmonic,1.85,nw,z,,,,,,,
,,,,2023-11-28_12h11.40.531,VH_v3,2023.2.3,Win32,60.09976561,,,,,,,,,,,,1016.6685,1017.666,,,,,,,,,,,,,,,,,,,,,,,,,,1017.666,1018.2993,z,1,0.6171,,1018.2994,1018.2994,,0,347,347,324,1,325,başi,,,,,4,notharmonic,1.5,nw,z,,,,,,,
,,,,2023-11-28_12h11.40.531,VH_v3,2023.2.3,Win32,60.09976561,,,,,,,,,,,,1018.2997,1019.2977,,,,,,,,,,,,,,,,,,,,,,,,,,1019.2977,1020.0806,z,1,0.7667,,1020.0807,1020.0807,,0,348,348,308,1,309,tasnin,,,,,6,notharmonic,1.85,nw,z,,,,,,,
,,,,2023-11-28_12h11.40.531,VH_v3,2023.2.3,Win32,60.09976561,,,,,,,,,,,,1020.081,1021.0793,,,,,,,,,,,,,,,,,,,,,,,,,,1021.0793,1021.5625,m,1,0.467,,1021.5625,1021.5625,,0,349,349,126,1,127,ciddi,4147,188.4232,3686,0.403,5,harmonic,,word,m,,,,,,,
,,,,2023-11-28_12h11.40.531,VH_v3,2023.2.3,Win32,60.09976561,,,,,,,,,,,,1021.5628,1022.561,,,,,,,,,,,,,,,,,,,,,,,,,,1022.5611,1023.0775,m,1,0.5002,,1023.0775,1023.0776,,0,350,350,35,1,36,hava,4975,226.0443,4398,0.4808,4,harmonic,1,word,m,,,,,,,
,,,,2023-11-28_12h11.40.531,VH_v3,2023.2.3,Win32,60.09976561,,,,,,,,,,,,1023.0779,1024.0763,,,,,,,,,,,,,,,,,,,,,,,,,,1024.0763,1024.5428,m,1,0.4504,,1024.5429,1024.5429,,0,351,351,155,1,156,devlet,5766,261.9842,4854,0.5306,6,harmonic,,word,m,,,,,,,
,,,,2023-11-28_12h11.40.531,VH_v3,2023.2.3,Win32,60.09976561,,,,,,,,,,,,1024.5432,1025.5415,,,,,,,,,,,,,,,,,,,,,,,,,,1025.5416,1026.0413,m,1,0.4836,,1026.0414,1026.0415,,0,352,352,99,1,100,çocuk,10612,482.1672,8979,0.9816,5,harmonic,,word,m,,,,,,,
,,,,2023-11-28_12h11.40.531,VH_v3,2023.2.3,Win32,60.09976561,,,,,,,,,,,,1026.0417,1027.04,,,,,,,,,,,,,,,,,,,,,,,,,,1027.04,1027.573,z,1,0.5168,,1027.5731,1027.5732,,0,353,353,260,1,261,abaf,,,,,4,harmonic,1.85,nw,z,,,,,,,
,,,,2023-11-28_12h11.40.531,VH_v3,2023.2.3,Win32,60.09976561,,,,,,,,,,,,1027.5733,1028.5718,,,,,,,,,,,,,,,,,,,,,,,,,,1028.5718,1029.1383,z,1,0.5502,,1029.1383,1029.1383,,0,354,354,196,1,197,gakık,,,,,5,harmonic,2,nw,z,,,,,,,
,,,,2023-11-28_12h11.40.531,VH_v3,2023.2.3,Win32,60.09976561,,,,,,,,,,,,1029.1387,1030.1369,,,,,,,,,,,,,,,,,,,,,,,,,,1030.1369,1030.8032,m,1,0.65,,1030.8033,1030.8034,,0,355,355,37,1,38,hayvan,2363,107.3653,1894,0.2071,6,harmonic,1.5,word,m,,,,,,,
,,,,2023-11-28_12h11.40.531,VH_v3,2023.2.3,Win32,60.09976561,,,,,,,,,,,,1030.8037,1031.8019,,,,,,,,,,,,,,,,,,,,,,,,,,1031.8019,1032.3351,m,1,0.5169,,1032.3351,1032.3351,,0,356,356,129,1,130,yorum,3801,172.7024,3473,0.3797,5,harmonic,,word,m,,,,,,,
,,,,2023-11-28_12h11.40.531,VH_v3,2023.2.3,Win32,60.09976561,,,,,,,,,,,,1032.3354,1033.3339,,,,,,,,,,,,,,,,,,,,,,,,,,1033.334,1033.767,m,1,0.4169,,1033.767,1033.767,,0,357,357,38,1,39,dönem,2820,128.1296,2437,0.2664,5,harmonic,1.4,word,m,,,,,,,
,,,,2023-11-28_12h11.40.531,VH_v3,2023.2.3,Win32,60.09976561,,,,,,,,,,,,1033.7673,1034.7657,,,,,,,,,,,,,,,,,,,,,,,,,,1034.7658,1035.3154,z,1,0.5333,,1035.3154,1035.3155,,0,358,358,239,1,240,yulçız,,,,,6,harmonic,2.75,nw,z,,,,,,,
,,,,2023-11-28_12h11.40.531,VH_v3,2023.2.3,Win32,60.09976561,,,,,,,,,,,,1035.3156,1036.3143,,,,,,,,,,,,,,,,,,,,,,,,,,1036.3143,1037.0137,z,1,0.6833,,1037.0138,1037.0139,,0,359,359,218,1,219,yaltın,,,,,6,harmonic,1.8,nw,z,,,,,,,
,,,,2023-11-28_12h11.40.531,VH_v3,2023.2.3,Win32,60.09976561,,,,,,,,,,,,,,,,,,,,,,,,,,,,,,,,,,,,,,,,,,,,,,,,,,,,,,,,,,,,,,,,,,1037.0145,1039.0792,space,2.0488,