Welcome_screen.started,Welcome_screen.stopped,key_respwelcome.keys,key_respwelcome.rt,key_respwelcome.duration,intro_x.thisRepN,intro_x.thisTrialN,intro_x.thisN,intro_x.thisIndex,intro_x.ran,Introduction,participant,session,date,expName,psychopyVersion,OS,frameRate,Fixation.started,Fixation.stopped,Studypractice.started,Studypractice.stopped,key_respstudy.keys,key_respstudy.corr,key_respstudy.rt,key_respstudy.duration,rt,corr,Feedback.started,Feedback.stopped,practice_loop.thisRepN,practice_loop.thisTrialN,practice_loop.thisN,practice_loop.thisIndex,practice_loop.ran,item_nr_p,target_p,isHarmonic_p,target_cond_p,CorrAns_p,Instraction.started,Instraction.stopped,key_respınstraction.keys,key_respınstraction.rt,key_respınstraction.duration,TestTrial.started,TestTrial.stopped,key_respTest.keys,key_respTest.corr,Pause.started,Pause.stopped,key_resp_xx.keys,test_loop.thisRepN,test_loop.thisTrialN,test_loop.thisN,test_loop.thisIndex,test_loop.ran,item_nr,target,BlogFreq_A1,BlogFreqpm_A1,BlogCD_A1,BlogCDPc_A1,WordLength_A1,isHarmonic_A1,old20,target_cond,CorrAns,key_respTest.rt,key_respTest.duration,key_resp_xx.rt,key_resp_xx.duration,Goodbye_screen.started,Goodbye_screen.stopped,key_respgoodbye.keys,key_respgoodbye.rt,key_respgoodbye.duration
0.023,3.1121,space,3.0669,,0,0,0,0,1,"Deneye hoş geldiniz,

Devam etmek için BOŞLUK tuşuna basınız.",3579,001,2023-11-07_16h00.22.268,vowel_harmony,2023.2.3,Win32,59.95922773,,,,,,,,,,,,,,,,,,,,,,,,,,,,,,,,,,,,,,,,,,,,,,,,,,,,,,,,,,,
3.1146,18.8742,space,15.7415,,0,1,1,1,1,"Bu çalışma Valencia Üniversitesi kapsamında yürütülmektedir. Deneydeki göreviniz, ekrana çıkacak Türkçe sözcüklerin kelime olup olmadığını belirlemenizdir. Eğer sözcük gerçek bir kelime ise ""m"" tuşuna, değil ise ""z"" tuşuna basınız.   

Devam etmek için BOŞLUK tuşuna basınız.",3579,001,2023-11-07_16h00.22.268,vowel_harmony,2023.2.3,Win32,59.95922773,,,,,,,,,,,,,,,,,,,,,,,,,,,,,,,,,,,,,,,,,,,,,,,,,,,,,,,,,,,
18.8746,26.868,space,7.9634,,0,2,2,2,1,"Her sözcük için en fazla iki saniyede cevap vermeniz beklenmektedir. Aksi takdirde deney bir sonraki sözcük ile devam eder. 
Bu çalışmada oldukça hızlı ve doğru cevaplama yapmanız beklenmektedir.

Devam etmek için BOŞLUK tuşuna basınız.",3579,001,2023-11-07_16h00.22.268,vowel_harmony,2023.2.3,Win32,59.95922773,,,,,,,,,,,,,,,,,,,,,,,,,,,,,,,,,,,,,,,,,,,,,,,,,,,,,,,,,,,
26.8694,35.5146,space,8.6129,,0,3,3,3,1,"Çalışmaya başlamadan önce ufak bir pratik yer almaktadır.
Kelimedir: ""m""
Kelime değildir: ""z""

Pratik teste başlamak için BOŞLUK tuşuna basınız. ",3579,001,2023-11-07_16h00.22.268,vowel_harmony,2023.2.3,Win32,59.95922773,,,,,,,,,,,,,,,,,,,,,,,,,,,,,,,,,,,,,,,,,,,,,,,,,,,,,,,,,,,
,,,,,,,,,,,3579,001,2023-11-07_16h00.22.268,vowel_harmony,2023.2.3,Win32,59.95922773,35.5256,36.5159,36.516,45.1277,m,1,8.5736,,8.5736,1,45.128,46.6267,0,0,0,2,1,3,memur,notharmonic,word,m,,,,,,,,,,,,,,,,,,,,,,,,,,,,,,,,,,,,,
,,,,,,,,,,,3579,001,2023-11-07_16h00.22.268,vowel_harmony,2023.2.3,Win32,59.95922773,46.6276,47.6253,47.6255,54.4889,m,0,6.8354,,6.8354,0,54.4893,55.9886,0,1,1,15,1,16,mımal,harmonic,nw,z,,,,,,,,,,,,,,,,,,,,,,,,,,,,,,,,,,,,,
,,,,,,,,,,,3579,001,2023-11-07_16h00.22.268,vowel_harmony,2023.2.3,Win32,59.95922773,55.9898,56.9878,56.9881,61.7569,z,1,4.748,,4.748,1,61.7569,63.2515,0,2,2,11,1,12,geki,harmonic,nw,z,,,,,,,,,,,,,,,,,,,,,,,,,,,,,,,,,,,,,
,,,,,,,,,,,3579,001,2023-11-07_16h00.22.268,vowel_harmony,2023.2.3,Win32,59.95922773,63.253,64.2553,64.2553,69.4701,m,0,5.1979,,5.1979,0,69.4702,70.9652,0,3,3,13,1,14,pilar,notharmonic,nw,z,,,,,,,,,,,,,,,,,,,,,,,,,,,,,,,,,,,,,
,,,,,,,,,,,3579,001,2023-11-07_16h00.22.268,vowel_harmony,2023.2.3,Win32,59.95922773,70.9662,71.9643,71.9645,76.6619,m,1,4.6657,,4.6657,1,76.6624,78.1632,0,4,4,4,1,5,mimar,notharmonic,word,m,,,,,,,,,,,,,,,,,,,,,,,,,,,,,,,,,,,,,
,,,,,,,,,,,3579,001,2023-11-07_16h00.22.268,vowel_harmony,2023.2.3,Win32,59.95922773,78.1636,79.1614,79.1618,82.5262,m,1,3.3403,,3.3403,1,82.5266,84.0256,0,5,5,7,1,8,oran,harmonic,word,m,,,,,,,,,,,,,,,,,,,,,,,,,,,,,,,,,,,,,
,,,,,,,,,,,3579,001,2023-11-07_16h00.22.268,vowel_harmony,2023.2.3,Win32,59.95922773,84.0269,85.0251,85.0253,88.973,z,1,3.9254,,3.9254,1,88.9734,90.4728,0,6,6,12,1,13,ihlot,notharmonic,nw,z,,,,,,,,,,,,,,,,,,,,,,,,,,,,,,,,,,,,,
,,,,,,,,,,,3579,001,2023-11-07_16h00.22.268,vowel_harmony,2023.2.3,Win32,59.95922773,90.474,91.4717,91.4718,94.3875,m,1,2.8834,,2.8834,1,94.3879,95.8868,0,7,7,3,1,4,ihlal,notharmonic,word,m,,,,,,,,,,,,,,,,,,,,,,,,,,,,,,,,,,,,,
,,,,,,,,,,,3579,001,2023-11-07_16h00.22.268,vowel_harmony,2023.2.3,Win32,59.95922773,95.8882,96.8862,96.8863,101.2513,m,1,4.3336,,4.3336,1,101.2515,102.7498,0,8,8,1,1,2,veri,harmonic,word,m,,,,,,,,,,,,,,,,,,,,,,,,,,,,,,,,,,,,,
,,,,,,,,,,,3579,001,2023-11-07_16h00.22.268,vowel_harmony,2023.2.3,Win32,59.95922773,102.7513,103.7498,103.75,106.7817,m,0,2.9998,,2.9998,0,106.7819,108.281,0,9,9,14,1,15,pimer,harmonic,nw,z,,,,,,,,,,,,,,,,,,,,,,,,,,,,,,,,,,,,,
,,,,,,,,,,,3579,001,2023-11-07_16h00.22.268,vowel_harmony,2023.2.3,Win32,59.95922773,108.2824,109.2808,109.2811,113.5617,z,1,4.2577,,4.2577,1,113.5619,115.0612,0,10,10,8,1,9,tahip,notharmonic,nw,z,,,,,,,,,,,,,,,,,,,,,,,,,,,,,,,,,,,,,
,,,,,,,,,,,3579,001,2023-11-07_16h00.22.268,vowel_harmony,2023.2.3,Win32,59.95922773,115.0627,116.0608,116.0609,117.5435,z,1,1.4546,,1.4546,1,117.5437,119.0435,0,11,11,10,1,11,mahne,notharmonic,nw,z,,,,,,,,,,,,,,,,,,,,,,,,,,,,,,,,,,,,,
,,,,,,,,,,,3579,001,2023-11-07_16h00.22.268,vowel_harmony,2023.2.3,Win32,59.95922773,119.0444,120.042,120.042,123.0082,z,1,2.9393,,2.9393,1,123.0084,124.5071,0,12,12,9,1,10,orat,harmonic,nw,z,,,,,,,,,,,,,,,,,,,,,,,,,,,,,,,,,,,,,
,,,,,,,,,,,3579,001,2023-11-07_16h00.22.268,vowel_harmony,2023.2.3,Win32,59.95922773,124.5085,125.5067,125.5069,127.2722,m,1,1.7334,,1.7334,1,127.2724,128.7712,0,13,13,6,1,7,pilot,notharmonic,word,m,,,,,,,,,,,,,,,,,,,,,,,,,,,,,,,,,,,,,
,,,,,,,,,,,3579,001,2023-11-07_16h00.22.268,vowel_harmony,2023.2.3,Win32,59.95922773,128.7729,129.7713,129.7715,130.904,m,1,1.1073,,1.1073,1,130.9042,132.408,0,14,14,5,1,6,bahçe,notharmonic,word,m,,,,,,,,,,,,,,,,,,,,,,,,,,,,,,,,,,,,,
,,,,,,,,,,,3579,001,2023-11-07_16h00.22.268,vowel_harmony,2023.2.3,Win32,59.95922773,132.4082,133.4075,133.4075,140.666,z,0,7.2351,,7.2351,0,140.6661,142.1656,0,15,15,0,1,1,ihale,notharmonic,word,m,,,,,,,,,,,,,,,,,,,,,,,,,,,,,,,,,,,,,
,,,,,,,,,,,3579,001,2023-11-07_16h00.22.268,vowel_harmony,2023.2.3,Win32,59.95922773,,,,,,,,,,,,,,,,,,,,,,,142.1673,151.6297,space,9.4317,,,,,,,,,,,,,,,,,,,,,,,,,,,,,,,,,
,,,,,,,,,,,3579,001,2023-11-07_16h00.22.268,vowel_harmony,2023.2.3,Win32,59.95922773,151.6855,152.6433,,,,,,,,,,,,,,,,,,,,,,,,,,152.6435,154.6426,,0,154.6429,154.6467,,0,0,0,141,1,142,madde,3793,172.3389,3389,0.3705,5,notharmonic,1.7,word,m,,,,,,,,,
,,,,,,,,,,,3579,001,2023-11-07_16h00.22.268,vowel_harmony,2023.2.3,Win32,59.95922773,154.6471,155.6419,,,,,,,,,,,,,,,,,,,,,,,,,,155.6419,156.9082,m,1,156.9082,156.9083,,0,1,1,168,1,169,kilo,3389,153.9827,2646,0.2893,4,notharmonic,1.65,word,m,1.2444,,,,,,,,
,,,,,,,,,,,3579,001,2023-11-07_16h00.22.268,vowel_harmony,2023.2.3,Win32,59.95922773,156.9087,157.9076,,,,,,,,,,,,,,,,,,,,,,,,,,157.9076,159.0736,m,1,159.0737,159.0737,,0,2,2,56,1,57,sağlam,1818,82.6027,1720,0.188,6,harmonic,1.6,word,m,1.1558,,,,,,,,
,,,,,,,,,,,3579,001,2023-11-07_16h00.22.268,vowel_harmony,2023.2.3,Win32,59.95922773,159.074,160.0733,,,,,,,,,,,,,,,,,,,,,,,,,,160.0733,161.4892,z,1,161.4892,161.4894,,0,3,3,215,1,216,aydo,,,,,4,harmonic,1.9,nw,z,1.3978,,,,,,,,
,,,,,,,,,,,3579,001,2023-11-07_16h00.22.268,vowel_harmony,2023.2.3,Win32,59.95922773,161.4897,162.4887,,,,,,,,,,,,,,,,,,,,,,,,,,162.4887,164.088,z,1,164.0881,164.0882,,0,4,4,228,1,229,haytam,,,,,6,harmonic,1.75,nw,z,1.5783,,,,,,,,
,,,,,,,,,,,3579,001,2023-11-07_16h00.22.268,vowel_harmony,2023.2.3,Win32,59.95922773,164.0977,165.0877,,,,,,,,,,,,,,,,,,,,,,,,,,165.0877,167.0201,z,1,167.0201,167.0202,,0,5,5,221,1,222,yaypın,,,,,6,harmonic,1.75,nw,z,1.9193,,,,,,,,
,,,,,,,,,,,3579,001,2023-11-07_16h00.22.268,vowel_harmony,2023.2.3,Win32,59.95922773,167.0205,168.0194,,,,,,,,,,,,,,,,,,,,,,,,,,168.0195,169.0525,z,1,169.0525,169.0527,,0,6,6,319,1,320,biho,,,,,4,notharmonic,2,nw,z,1.0143,,,,,,,,
,,,,,,,,,,,3579,001,2023-11-07_16h00.22.268,vowel_harmony,2023.2.3,Win32,59.95922773,169.0529,170.0519,,,,,,,,,,,,,,,,,,,,,,,,,,170.052,171.0513,z,1,171.0513,171.0514,,0,7,7,284,1,285,deval,,,,,5,notharmonic,1.75,nw,z,0.9782,,,,,,,,
,,,,,,,,,,,3579,001,2023-11-07_16h00.22.268,vowel_harmony,2023.2.3,Win32,59.95922773,171.0517,172.051,,,,,,,,,,,,,,,,,,,,,,,,,,172.051,172.8005,m,1,172.8006,172.8006,,0,8,8,132,1,133,modern,2326,105.6842,2031,0.222,6,notharmonic,1.85,word,m,0.7291,,,,,,,,
,,,,,,,,,,,3579,001,2023-11-07_16h00.22.268,vowel_harmony,2023.2.3,Win32,59.95922773,172.8014,173.8003,,,,,,,,,,,,,,,,,,,,,,,,,,173.8004,174.5332,m,1,174.5333,174.5333,,0,9,9,179,1,180,dakika,5891,267.6637,5207,0.5692,6,notharmonic,1.75,word,m,0.7168,,,,,,,,
,,,,,,,,,,,3579,001,2023-11-07_16h00.22.268,vowel_harmony,2023.2.3,Win32,59.95922773,174.5337,175.5329,,,,,,,,,,,,,,,,,,,,,,,,,,175.533,176.6324,z,1,176.6324,176.6325,,0,10,10,331,1,332,ehun,,,,,4,notharmonic,1.95,nw,z,1.0782,,,,,,,,
,,,,,,,,,,,3579,001,2023-11-07_16h00.22.268,vowel_harmony,2023.2.3,Win32,59.95922773,176.6328,177.6316,,,,,,,,,,,,,,,,,,,,,,,,,,177.6317,178.3814,m,1,178.3815,178.3817,,0,11,11,23,1,24,kurum,986,44.7999,882,0.0964,5,harmonic,1.75,word,m,0.7309,,,,,,,,
,,,,,,,,,,,3579,001,2023-11-07_16h00.22.268,vowel_harmony,2023.2.3,Win32,59.95922773,178.382,179.381,,,,,,,,,,,,,,,,,,,,,,,,,,179.381,181.3801,,0,181.3802,181.3804,,0,12,12,247,1,248,hafgın,,,,,6,harmonic,2,nw,z,,,,,,,,,
,,,,,,,,,,,3579,001,2023-11-07_16h00.22.268,vowel_harmony,2023.2.3,Win32,59.95922773,181.3806,182.3797,,,,,,,,,,,,,,,,,,,,,,,,,,182.3797,183.1127,m,1,183.1128,183.1129,,0,13,13,94,1,95,final,876,39.802,778,0.0851,5,notharmonic,1,word,m,0.718,,,,,,,,
,,,,,,,,,,,3579,001,2023-11-07_16h00.22.268,vowel_harmony,2023.2.3,Win32,59.95922773,183.1132,184.112,,,,,,,,,,,,,,,,,,,,,,,,,,184.112,184.7287,m,1,184.7287,184.7288,,0,14,14,112,1,113,sezon,2315,105.1844,1917,0.2096,5,notharmonic,1.8,word,m,0.6014,,,,,,,,
,,,,,,,,,,,3579,001,2023-11-07_16h00.22.268,vowel_harmony,2023.2.3,Win32,59.95922773,184.7292,185.7279,,,,,,,,,,,,,,,,,,,,,,,,,,185.7279,186.5611,z,1,186.5611,186.5611,,0,15,15,339,1,340,asmel,,,,,5,notharmonic,1.95,nw,z,0.8227,,,,,,,,
,,,,,,,,,,,3579,001,2023-11-07_16h00.22.268,vowel_harmony,2023.2.3,Win32,59.95922773,186.5615,187.5606,,,,,,,,,,,,,,,,,,,,,,,,,,187.5606,188.36,z,1,188.3601,188.3602,,0,16,16,254,1,255,millek,,,,,6,harmonic,1.8,nw,z,0.7847,,,,,,,,
,,,,,,,,,,,3579,001,2023-11-07_16h00.22.268,vowel_harmony,2023.2.3,Win32,59.95922773,188.3603,189.36,,,,,,,,,,,,,,,,,,,,,,,,,,189.36,190.626,z,1,190.6261,190.6261,,0,17,17,216,1,217,çeyret,,,,,6,harmonic,1.9,nw,z,1.2472,,,,,,,,
,,,,,,,,,,,3579,001,2023-11-07_16h00.22.268,vowel_harmony,2023.2.3,Win32,59.95922773,190.6265,191.6255,,,,,,,,,,,,,,,,,,,,,,,,,,191.6255,192.3083,z,1,192.3083,192.3084,,0,18,18,282,1,283,taöz,,,,,4,notharmonic,1.9,nw,z,0.6687,,,,,,,,
,,,,,,,,,,,3579,001,2023-11-07_16h00.22.268,vowel_harmony,2023.2.3,Win32,59.95922773,192.3087,193.3078,,,,,,,,,,,,,,,,,,,,,,,,,,193.3079,194.1077,z,1,194.1077,194.1079,,0,19,19,330,1,331,vahçe,,,,,5,notharmonic,1.9,nw,z,0.7814,,,,,,,,
,,,,,,,,,,,3579,001,2023-11-07_16h00.22.268,vowel_harmony,2023.2.3,Win32,59.95922773,194.1082,195.1073,,,,,,,,,,,,,,,,,,,,,,,,,,195.1073,195.8569,z,1,195.857,195.8571,,0,20,20,343,1,344,tarne,,,,,5,notharmonic,1.85,nw,z,0.7286,,,,,,,,
,,,,,,,,,,,3579,001,2023-11-07_16h00.22.268,vowel_harmony,2023.2.3,Win32,59.95922773,195.8574,196.8565,,,,,,,,,,,,,,,,,,,,,,,,,,196.8565,197.4229,z,1,197.4229,197.423,,0,21,21,224,1,225,ertre,,,,,5,harmonic,1.95,nw,z,0.5532,,,,,,,,
,,,,,,,,,,,3579,001,2023-11-07_16h00.22.268,vowel_harmony,2023.2.3,Win32,59.95922773,197.4233,198.4221,,,,,,,,,,,,,,,,,,,,,,,,,,198.4222,199.0056,z,1,199.0056,199.0057,,0,22,22,244,1,245,kaof,,,,,4,harmonic,1.9,nw,z,0.5641,,,,,,,,
,,,,,,,,,,,3579,001,2023-11-07_16h00.22.268,vowel_harmony,2023.2.3,Win32,59.95922773,199.006,200.0047,,,,,,,,,,,,,,,,,,,,,,,,,,200.0048,201.021,m,1,201.0211,201.0212,,0,23,23,143,1,144,kitap,8359,379.7998,6786,0.7418,5,notharmonic,1.9,word,m,0.9985,,,,,,,,
,,,,,,,,,,,3579,001,2023-11-07_16h00.22.268,vowel_harmony,2023.2.3,Win32,59.95922773,201.0215,202.0209,,,,,,,,,,,,,,,,,,,,,,,,,,202.0209,202.6372,m,1,202.6373,202.6374,,0,24,24,147,1,148,işaret,1888,85.7832,1787,0.1954,6,notharmonic,1,word,m,0.6018,,,,,,,,
,,,,,,,,,,,3579,001,2023-11-07_16h00.22.268,vowel_harmony,2023.2.3,Win32,59.95922773,202.6376,203.6368,,,,,,,,,,,,,,,,,,,,,,,,,,203.6369,205.6355,,0,205.6355,205.6357,,0,25,25,209,1,210,sapor,,,,,5,harmonic,1.8,nw,z,,,,,,,,,
,,,,,,,,,,,3579,001,2023-11-07_16h00.22.268,vowel_harmony,2023.2.3,Win32,59.95922773,205.636,206.6352,,,,,,,,,,,,,,,,,,,,,,,,,,206.6352,207.9346,m,0,207.9346,207.9347,,0,26,26,204,1,205,gerkez,,,,,6,harmonic,1.9,nw,z,1.2897,,,,,,,,
,,,,,,,,,,,3579,001,2023-11-07_16h00.22.268,vowel_harmony,2023.2.3,Win32,59.95922773,207.9446,208.9342,,,,,,,,,,,,,,,,,,,,,,,,,,208.9342,209.6174,m,1,209.6175,209.6175,,0,27,27,5,1,6,bebek,3301,149.9843,2794,0.3054,5,harmonic,1.6,word,m,0.6649,,,,,,,,
,,,,,,,,,,,3579,001,2023-11-07_16h00.22.268,vowel_harmony,2023.2.3,Win32,59.95922773,209.6178,210.6169,,,,,,,,,,,,,,,,,,,,,,,,,,210.617,211.4163,z,1,211.4163,211.4164,,0,28,28,272,1,273,daken,,,,,5,notharmonic,1.8,nw,z,0.79,,,,,,,,
,,,,,,,,,,,3579,001,2023-11-07_16h00.22.268,vowel_harmony,2023.2.3,Win32,59.95922773,211.4166,212.4159,,,,,,,,,,,,,,,,,,,,,,,,,,212.4159,213.1488,m,1,213.1489,213.1489,,0,29,29,66,1,67,sanık,768,34.8949,699,0.0764,5,harmonic,1.85,word,m,0.7121,,,,,,,,
,,,,,,,,,,,3579,001,2023-11-07_16h00.22.268,vowel_harmony,2023.2.3,Win32,59.95922773,213.1492,214.1486,,,,,,,,,,,,,,,,,,,,,,,,,,214.1486,214.998,z,1,214.998,214.9981,,0,30,30,200,1,201,duşın,,,,,5,harmonic,1.9,nw,z,0.8356,,,,,,,,
,,,,,,,,,,,3579,001,2023-11-07_16h00.22.268,vowel_harmony,2023.2.3,Win32,59.95922773,214.9984,215.9975,,,,,,,,,,,,,,,,,,,,,,,,,,215.9976,216.6142,m,1,216.6142,216.6143,,0,31,31,134,1,135,iptal,793,36.0308,725,0.0793,5,notharmonic,1.35,word,m,0.5959,,,,,,,,
,,,,,,,,,,,3579,001,2023-11-07_16h00.22.268,vowel_harmony,2023.2.3,Win32,59.95922773,216.6146,217.6138,,,,,,,,,,,,,,,,,,,,,,,,,,217.6138,218.2968,m,0,218.2968,218.2969,,0,32,32,276,1,277,iptap,,,,,5,notharmonic,1.95,nw,z,0.6703,,,,,,,,
,,,,,,,,,,,3579,001,2023-11-07_16h00.22.268,vowel_harmony,2023.2.3,Win32,59.95922773,218.2972,219.2962,,,,,,,,,,,,,,,,,,,,,,,,,,219.2962,219.8294,m,1,219.8294,219.8296,,0,33,33,136,1,137,beyaz,5517,250.6706,4788,0.5234,5,notharmonic,1.85,word,m,0.5187,,,,,,,,
,,,,,,,,,,,3579,001,2023-11-07_16h00.22.268,vowel_harmony,2023.2.3,Win32,59.95922773,219.8299,220.8287,,,,,,,,,,,,,,,,,,,,,,,,,,220.8287,221.5119,m,1,221.5119,221.5121,,0,34,34,60,1,61,doğu,2105,95.6429,1823,0.1993,4,harmonic,1.05,word,m,0.672,,,,,,,,
,,,,,,,,,,,3579,001,2023-11-07_16h00.22.268,vowel_harmony,2023.2.3,Win32,59.95922773,221.5126,222.5113,,,,,,,,,,,,,,,,,,,,,,,,,,222.5113,222.978,m,1,222.978,222.9781,,0,35,35,0,1,1,sanat,3121,141.8059,2485,0.2717,5,harmonic,1.4,word,m,0.4477,,,,,,,,
,,,,,,,,,,,3579,001,2023-11-07_16h00.22.268,vowel_harmony,2023.2.3,Win32,59.95922773,222.9785,223.9773,,,,,,,,,,,,,,,,,,,,,,,,,,223.9773,224.7938,z,1,224.7939,224.794,,0,36,36,312,1,313,şahmin,,,,,6,notharmonic,1.8,nw,z,0.8046,,,,,,,,
,,,,,,,,,,,3579,001,2023-11-07_16h00.22.268,vowel_harmony,2023.2.3,Win32,59.95922773,224.7942,225.7934,,,,,,,,,,,,,,,,,,,,,,,,,,225.7934,226.5431,z,1,226.5431,226.5432,,0,37,37,196,1,197,bilön,,,,,5,harmonic,1.9,nw,z,0.7351,,,,,,,,
,,,,,,,,,,,3579,001,2023-11-07_16h00.22.268,vowel_harmony,2023.2.3,Win32,59.95922773,226.5436,227.5426,,,,,,,,,,,,,,,,,,,,,,,,,,227.5426,228.0923,m,1,228.0923,228.0924,,0,38,38,35,1,36,hava,4975,226.0443,4398,0.4808,4,harmonic,1,word,m,0.5378,,,,,,,,
,,,,,,,,,,,3579,001,2023-11-07_16h00.22.268,vowel_harmony,2023.2.3,Win32,59.95922773,228.0927,229.0918,,,,,,,,,,,,,,,,,,,,,,,,,,229.0918,229.5582,m,1,229.5583,229.5583,,0,39,39,174,1,175,bugün,13879,630.6067,12842,1.4039,5,notharmonic,1.85,word,m,0.4558,,,,,,,,
,,,,,,,,,,,3579,001,2023-11-07_16h00.22.268,vowel_harmony,2023.2.3,Win32,59.95922773,229.5586,230.5576,,,,,,,,,,,,,,,,,,,,,,,,,,230.5576,231.3075,z,1,231.3076,231.3077,,0,40,40,217,1,218,sanfız,,,,,6,harmonic,1.85,nw,z,0.732,,,,,,,,
,,,,,,,,,,,3579,001,2023-11-07_16h00.22.268,vowel_harmony,2023.2.3,Win32,59.95922773,231.3079,232.3069,,,,,,,,,,,,,,,,,,,,,,,,,,232.307,233.04,z,1,233.04,233.04,,0,41,41,273,1,274,nimal,,,,,5,notharmonic,1.9,nw,z,0.719,,,,,,,,
,,,,,,,,,,,3579,001,2023-11-07_16h00.22.268,vowel_harmony,2023.2.3,Win32,59.95922773,233.0404,234.0396,,,,,,,,,,,,,,,,,,,,,,,,,,234.0396,234.8393,z,1,234.8393,234.8394,,0,42,42,280,1,281,adalek,,,,,6,notharmonic,1.85,nw,z,0.7814,,,,,,,,
,,,,,,,,,,,3579,001,2023-11-07_16h00.22.268,vowel_harmony,2023.2.3,Win32,59.95922773,234.8397,235.8388,,,,,,,,,,,,,,,,,,,,,,,,,,235.8388,236.4386,m,1,236.4386,236.4387,,0,43,43,137,1,138,parti,2613,118.7244,2059,0.2251,5,notharmonic,1.8,word,m,0.5812,,,,,,,,
,,,,,,,,,,,3579,001,2023-11-07_16h00.22.268,vowel_harmony,2023.2.3,Win32,59.95922773,236.439,237.438,,,,,,,,,,,,,,,,,,,,,,,,,,237.438,237.9209,m,1,237.9209,237.921,,0,44,44,27,1,28,bölge,1283,58.2944,1123,0.1228,5,harmonic,1.65,word,m,0.4695,,,,,,,,
,,,,,,,,,,,3579,001,2023-11-07_16h00.22.268,vowel_harmony,2023.2.3,Win32,59.95922773,237.9212,238.9206,,,,,,,,,,,,,,,,,,,,,,,,,,238.9207,239.5036,m,1,239.5037,239.5038,,0,45,45,80,1,81,merkez,1445,65.6551,1255,0.1372,6,harmonic,1.8,word,m,0.5617,,,,,,,,
,,,,,,,,,,,3579,001,2023-11-07_16h00.22.268,vowel_harmony,2023.2.3,Win32,59.95922773,239.5041,240.5033,,,,,,,,,,,,,,,,,,,,,,,,,,240.5034,241.1364,m,0,241.1364,241.1364,,0,46,46,351,1,352,seğlık,,,,,6,notharmonic,1.9,nw,z,0.6148,,,,,,,,
,,,,,,,,,,,3579,001,2023-11-07_16h00.22.268,vowel_harmony,2023.2.3,Win32,59.95922773,241.1368,242.1359,,,,,,,,,,,,,,,,,,,,,,,,,,242.1359,243.0855,z,1,243.0855,243.0856,,0,47,47,181,1,182,rapkı,,,,,5,harmonic,1.85,nw,z,0.9275,,,,,,,,
,,,,,,,,,,,3579,001,2023-11-07_16h00.22.268,vowel_harmony,2023.2.3,Win32,59.95922773,243.0859,244.0848,,,,,,,,,,,,,,,,,,,,,,,,,,244.0848,244.8512,m,1,244.8512,244.8513,,0,48,48,48,1,49,teşvik,932,42.3464,867,0.0948,6,harmonic,1.8,word,m,0.7517,,,,,,,,
,,,,,,,,,,,3579,001,2023-11-07_16h00.22.268,vowel_harmony,2023.2.3,Win32,59.95922773,244.8516,245.8506,,,,,,,,,,,,,,,,,,,,,,,,,,245.8506,246.4505,m,1,246.4506,246.4506,,0,49,49,106,1,107,esnaf,315,14.3124,284,0.031,5,notharmonic,1.55,word,m,0.5813,,,,,,,,
,,,,,,,,,,,3579,001,2023-11-07_16h00.22.268,vowel_harmony,2023.2.3,Win32,59.95922773,246.4509,247.4498,,,,,,,,,,,,,,,,,,,,,,,,,,247.4499,248.3494,z,1,248.3494,248.3495,,0,50,50,305,1,306,tamü,,,,,4,notharmonic,1.75,nw,z,0.888,,,,,,,,
,,,,,,,,,,,3579,001,2023-11-07_16h00.22.268,vowel_harmony,2023.2.3,Win32,59.95922773,248.3498,249.3495,,,,,,,,,,,,,,,,,,,,,,,,,,249.3496,249.899,m,1,249.899,249.8992,,0,51,51,39,1,40,yaygın,1061,48.2076,1019,0.1114,6,harmonic,1.35,word,m,0.5309,,,,,,,,
,,,,,,,,,,,3579,001,2023-11-07_16h00.22.268,vowel_harmony,2023.2.3,Win32,59.95922773,249.8995,250.8984,,,,,,,,,,,,,,,,,,,,,,,,,,250.8985,251.6813,z,1,251.6813,251.6814,,0,52,52,315,1,316,takep,,,,,5,notharmonic,1.85,nw,z,0.7683,,,,,,,,
,,,,,,,,,,,3579,001,2023-11-07_16h00.22.268,vowel_harmony,2023.2.3,Win32,59.95922773,251.6817,252.6811,,,,,,,,,,,,,,,,,,,,,,,,,,252.6811,253.3309,m,1,253.331,253.3327,,0,53,53,96,1,97,dahil,3189,144.8955,3060,0.3345,5,notharmonic,1.7,word,m,0.6406,,,,,,,,
,,,,,,,,,,,3579,001,2023-11-07_16h00.22.268,vowel_harmony,2023.2.3,Win32,59.95922773,253.3341,254.3303,,,,,,,,,,,,,,,,,,,,,,,,,,254.3303,254.8801,m,1,254.8801,254.8802,,0,54,54,71,1,72,örnek,3463,157.345,3266,0.357,5,harmonic,1.85,word,m,0.5288,,,,,,,,
,,,,,,,,,,,3579,001,2023-11-07_16h00.22.268,vowel_harmony,2023.2.3,Win32,59.95922773,254.8805,255.8794,,,,,,,,,,,,,,,,,,,,,,,,,,255.8794,256.5626,z,1,256.5627,256.5628,,0,55,55,225,1,226,düvem,,,,,5,harmonic,1.7,nw,z,0.6615,,,,,,,,
,,,,,,,,,,,3579,001,2023-11-07_16h00.22.268,vowel_harmony,2023.2.3,Win32,59.95922773,256.5631,257.5621,,,,,,,,,,,,,,,,,,,,,,,,,,257.5621,258.0953,m,0,258.0953,258.0955,,0,56,56,358,1,359,yangin,,,,,6,notharmonic,1.9,nw,z,0.5168,,,,,,,,
,,,,,,,,,,,3579,001,2023-11-07_16h00.22.268,vowel_harmony,2023.2.3,Win32,59.95922773,258.0957,259.0949,,,,,,,,,,,,,,,,,,,,,,,,,,259.0949,259.6611,m,1,259.6611,259.6612,,0,57,57,52,1,53,resim,2506,113.8627,2188,0.2392,5,harmonic,1.4,word,m,0.5456,,,,,,,,
,,,,,,,,,,,3579,001,2023-11-07_16h00.22.268,vowel_harmony,2023.2.3,Win32,59.95922773,259.6616,260.6607,,,,,,,,,,,,,,,,,,,,,,,,,,260.6607,261.1103,m,1,261.1104,261.1105,,0,58,58,131,1,132,hakim,1677,76.1962,1559,0.1704,5,notharmonic,1,word,m,0.4303,,,,,,,,
,,,,,,,,,,,3579,001,2023-11-07_16h00.22.268,vowel_harmony,2023.2.3,Win32,59.95922773,261.1107,262.1101,,,,,,,,,,,,,,,,,,,,,,,,,,262.1101,262.5597,m,0,262.5598,262.5598,,0,59,59,275,1,276,tahçe,,,,,5,notharmonic,1.95,nw,z,0.4352,,,,,,,,
,,,,,,,,,,,3579,001,2023-11-07_16h00.22.268,vowel_harmony,2023.2.3,Win32,59.95922773,262.5601,263.5595,,,,,,,,,,,,,,,,,,,,,,,,,,263.5597,264.5756,z,1,264.5757,264.5757,,0,60,60,201,1,202,ergiy,,,,,5,harmonic,1.85,nw,z,1.006,,,,,,,,
,,,,,,,,,,,3579,001,2023-11-07_16h00.22.268,vowel_harmony,2023.2.3,Win32,59.95922773,264.576,265.5753,,,,,,,,,,,,,,,,,,,,,,,,,,265.5753,266.2581,m,1,266.2581,266.2581,,0,61,61,91,1,92,ifade,6177,280.6584,5726,0.626,5,notharmonic,1.7,word,m,0.6692,,,,,,,,
,,,,,,,,,,,3579,001,2023-11-07_16h00.22.268,vowel_harmony,2023.2.3,Win32,59.95922773,266.2585,267.2578,,,,,,,,,,,,,,,,,,,,,,,,,,267.2578,267.8575,m,1,267.8575,267.8576,,0,62,62,1,1,2,erkek,6188,281.1582,5195,0.5679,5,harmonic,1.65,word,m,0.5838,,,,,,,,
,,,,,,,,,,,3579,001,2023-11-07_16h00.22.268,vowel_harmony,2023.2.3,Win32,59.95922773,267.8578,268.857,,,,,,,,,,,,,,,,,,,,,,,,,,268.857,269.3735,m,1,269.3735,269.3735,,0,63,63,42,1,43,ürün,2268,103.0489,1954,0.2136,4,harmonic,1.1,word,m,0.5059,,,,,,,,
,,,,,,,,,,,3579,001,2023-11-07_16h00.22.268,vowel_harmony,2023.2.3,Win32,59.95922773,269.3738,270.3728,,,,,,,,,,,,,,,,,,,,,,,,,,270.3728,270.8394,m,1,270.8394,270.8395,,0,64,64,170,1,171,basit,3385,153.801,3177,0.3473,5,notharmonic,1.65,word,m,0.4567,,,,,,,,
,,,,,,,,,,,3579,001,2023-11-07_16h00.22.268,vowel_harmony,2023.2.3,Win32,59.95922773,270.8398,271.8388,,,,,,,,,,,,,,,,,,,,,,,,,,271.8389,272.5888,z,1,272.5888,272.5889,,0,65,65,199,1,200,movu,,,,,4,harmonic,1.9,nw,z,0.7288,,,,,,,,
,,,,,,,,,,,3579,001,2023-11-07_16h00.22.268,vowel_harmony,2023.2.3,Win32,59.95922773,272.5893,273.5883,,,,,,,,,,,,,,,,,,,,,,,,,,273.5883,274.221,z,1,274.221,274.2211,,0,66,66,355,1,356,adül,,,,,4,notharmonic,1.85,nw,z,0.6234,,,,,,,,
,,,,,,,,,,,3579,001,2023-11-07_16h00.22.268,vowel_harmony,2023.2.3,Win32,59.95922773,274.2214,275.2208,,,,,,,,,,,,,,,,,,,,,,,,,,275.2208,275.7204,z,1,275.7204,275.7205,,0,67,67,240,1,241,hoga,,,,,4,harmonic,1.75,nw,z,0.4892,,,,,,,,
,,,,,,,,,,,3579,001,2023-11-07_16h00.22.268,vowel_harmony,2023.2.3,Win32,59.95922773,275.7208,276.7202,,,,,,,,,,,,,,,,,,,,,,,,,,276.7203,277.3198,z,1,277.3199,277.3199,,0,68,68,348,1,349,aife,,,,,4,notharmonic,1.75,nw,z,0.5802,,,,,,,,
,,,,,,,,,,,3579,001,2023-11-07_16h00.22.268,vowel_harmony,2023.2.3,Win32,59.95922773,277.3203,278.3194,,,,,,,,,,,,,,,,,,,,,,,,,,278.3195,278.9525,m,1,278.9525,278.9525,,0,69,69,70,1,71,yarın,3440,156.3,3222,0.3522,5,harmonic,1.85,word,m,0.6119,,,,,,,,
,,,,,,,,,,,3579,001,2023-11-07_16h00.22.268,vowel_harmony,2023.2.3,Win32,59.95922773,278.9529,279.9519,,,,,,,,,,,,,,,,,,,,,,,,,,279.952,280.6016,m,0,280.6017,280.6017,,0,70,70,259,1,260,hayuk,,,,,5,harmonic,1.95,nw,z,0.6375,,,,,,,,
,,,,,,,,,,,3579,001,2023-11-07_16h00.22.268,vowel_harmony,2023.2.3,Win32,59.95922773,280.6021,281.6011,,,,,,,,,,,,,,,,,,,,,,,,,,281.6011,282.3843,z,1,282.3843,282.3844,,0,71,71,320,1,321,finak,,,,,5,notharmonic,1.85,nw,z,0.7657,,,,,,,,
,,,,,,,,,,,3579,001,2023-11-07_16h00.22.268,vowel_harmony,2023.2.3,Win32,59.95922773,282.3848,283.3839,,,,,,,,,,,,,,,,,,,,,,,,,,283.3839,284.1669,z,1,284.1669,284.1669,,0,72,72,323,1,324,devak,,,,,5,notharmonic,1.75,nw,z,0.7612,,,,,,,,
,,,,,,,,,,,3579,001,2023-11-07_16h00.22.268,vowel_harmony,2023.2.3,Win32,59.95922773,284.1672,285.1664,,,,,,,,,,,,,,,,,,,,,,,,,,285.1664,285.9326,m,1,285.9326,285.9326,,0,73,73,120,1,121,ihmal,1002,45.5269,977,0.1068,5,notharmonic,1.65,word,m,0.7547,,,,,,,,
,,,,,,,,,,,3579,001,2023-11-07_16h00.22.268,vowel_harmony,2023.2.3,Win32,59.95922773,285.9331,286.9322,,,,,,,,,,,,,,,,,,,,,,,,,,286.9322,287.7483,m,1,287.7484,287.7485,,0,74,74,164,1,165,sinema,1575,71.5618,1304,0.1426,6,notharmonic,1.8,word,m,0.7945,,,,,,,,
,,,,,,,,,,,3579,001,2023-11-07_16h00.22.268,vowel_harmony,2023.2.3,Win32,59.95922773,287.7488,288.7478,,,,,,,,,,,,,,,,,,,,,,,,,,288.7479,289.2145,m,1,289.2146,289.2147,,0,75,75,75,1,76,roman,1499,68.1086,1281,0.14,5,harmonic,1.6,word,m,0.4487,,,,,,,,
,,,,,,,,,,,3579,001,2023-11-07_16h00.22.268,vowel_harmony,2023.2.3,Win32,59.95922773,289.215,290.2141,,,,,,,,,,,,,,,,,,,,,,,,,,290.2141,290.9635,z,1,290.9636,290.9636,,0,76,76,359,1,360,kardez,,,,,6,notharmonic,1.95,nw,z,0.7315,,,,,,,,
,,,,,,,,,,,3579,001,2023-11-07_16h00.22.268,vowel_harmony,2023.2.3,Win32,59.95922773,290.964,291.963,,,,,,,,,,,,,,,,,,,,,,,,,,291.9631,292.5794,m,1,292.5794,292.5795,,0,77,77,166,1,167,maden,402,18.2653,339,0.0371,5,notharmonic,1.45,word,m,0.5975,,,,,,,,
,,,,,,,,,,,3579,001,2023-11-07_16h00.22.268,vowel_harmony,2023.2.3,Win32,59.95922773,292.5799,293.5792,,,,,,,,,,,,,,,,,,,,,,,,,,293.5793,294.5954,z,1,294.5954,294.5955,,0,78,78,317,1,318,mevul,,,,,5,notharmonic,1.95,nw,z,1.0024,,,,,,,,
,,,,,,,,,,,3579,001,2023-11-07_16h00.22.268,vowel_harmony,2023.2.3,Win32,59.95922773,294.5958,295.5948,,,,,,,,,,,,,,,,,,,,,,,,,,295.5948,296.4611,z,1,296.4612,296.4613,,0,79,79,185,1,186,örtin,,,,,5,harmonic,1.9,nw,z,0.8518,,,,,,,,
,,,,,,,,,,,3579,001,2023-11-07_16h00.22.268,vowel_harmony,2023.2.3,Win32,59.95922773,296.4616,297.4607,,,,,,,,,,,,,,,,,,,,,,,,,,297.4607,298.0603,m,1,298.0603,298.0603,,0,80,80,135,1,136,hafif,3355,152.4379,3101,0.339,5,notharmonic,1.75,word,m,0.5854,,,,,,,,
,,,,,,,,,,,3579,001,2023-11-07_16h00.22.268,vowel_harmony,2023.2.3,Win32,59.95922773,298.0607,299.06,,,,,,,,,,,,,,,,,,,,,,,,,,299.06,299.6098,m,1,299.6098,299.6099,,0,81,81,22,1,23,anlam,1730,78.6043,1617,0.1768,5,harmonic,1.25,word,m,0.5363,,,,,,,,
,,,,,,,,,,,3579,001,2023-11-07_16h00.22.268,vowel_harmony,2023.2.3,Win32,59.95922773,299.6102,300.6094,,,,,,,,,,,,,,,,,,,,,,,,,,300.6094,301.0758,m,1,301.0759,301.0759,,0,82,82,45,1,46,bilgi,5981,271.7529,5353,0.5852,5,harmonic,1.5,word,m,0.4498,,,,,,,,
,,,,,,,,,,,3579,001,2023-11-07_16h00.22.268,vowel_harmony,2023.2.3,Win32,59.95922773,301.0763,302.0752,,,,,,,,,,,,,,,,,,,,,,,,,,302.0752,302.5252,m,1,302.5253,302.5253,,0,83,83,26,1,27,sebze,1094,49.707,961,0.1051,5,harmonic,1.9,word,m,0.4337,,,,,,,,
,,,,,,,,,,,3579,001,2023-11-07_16h00.22.268,vowel_harmony,2023.2.3,Win32,59.95922773,302.5257,303.5247,,,,,,,,,,,,,,,,,,,,,,,,,,303.5248,303.9409,m,1,303.9409,303.941,,0,84,84,15,1,16,hayat,7922,359.9443,7314,0.7996,5,harmonic,1.9,word,m,0.3975,,,,,,,,
,,,,,,,,,,,3579,001,2023-11-07_16h00.22.268,vowel_harmony,2023.2.3,Win32,59.95922773,303.9413,304.9406,,,,,,,,,,,,,,,,,,,,,,,,,,304.9406,305.4405,m,1,305.4405,305.4406,,0,85,85,74,1,75,başarı,1398,63.5196,1300,0.1421,6,harmonic,1.2,word,m,0.4816,,,,,,,,
,,,,,,,,,,,3579,001,2023-11-07_16h00.22.268,vowel_harmony,2023.2.3,Win32,59.95922773,305.441,306.44,,,,,,,,,,,,,,,,,,,,,,,,,,306.44,306.8732,m,0,306.8733,306.8733,,0,86,86,289,1,290,karmen,,,,,6,notharmonic,1.75,nw,z,0.4117,,,,,,,,
,,,,,,,,,,,3579,001,2023-11-07_16h00.22.268,vowel_harmony,2023.2.3,Win32,59.95922773,306.8736,307.8727,,,,,,,,,,,,,,,,,,,,,,,,,,307.8727,308.5557,z,1,308.5557,308.5557,,0,87,87,286,1,287,cedan,,,,,5,notharmonic,1.8,nw,z,0.6647,,,,,,,,
,,,,,,,,,,,3579,001,2023-11-07_16h00.22.268,vowel_harmony,2023.2.3,Win32,59.95922773,308.556,309.5552,,,,,,,,,,,,,,,,,,,,,,,,,,309.5552,310.2713,z,1,310.2713,310.2714,,0,88,88,310,1,311,yandeş,,,,,6,notharmonic,1.95,nw,z,0.6945,,,,,,,,
,,,,,,,,,,,3579,001,2023-11-07_16h00.22.268,vowel_harmony,2023.2.3,Win32,59.95922773,310.2717,311.2708,,,,,,,,,,,,,,,,,,,,,,,,,,311.2709,311.8706,z,1,311.8707,311.8708,,0,89,89,206,1,207,bevek,,,,,5,harmonic,1.75,nw,z,0.5823,,,,,,,,
,,,,,,,,,,,3579,001,2023-11-07_16h00.22.268,vowel_harmony,2023.2.3,Win32,59.95922773,311.8711,312.8703,,,,,,,,,,,,,,,,,,,,,,,,,,312.8703,313.4867,m,1,313.4867,313.4867,,0,90,90,109,1,110,milyon,3936,178.8362,2958,0.3234,6,notharmonic,1.75,word,m,0.5992,,,,,,,,
,,,,,,,,,,,3579,001,2023-11-07_16h00.22.268,vowel_harmony,2023.2.3,Win32,59.95922773,313.487,314.4865,,,,,,,,,,,,,,,,,,,,,,,,,,314.4865,315.0027,m,1,315.0027,315.0027,,0,91,91,127,1,128,şahane,1153,52.3877,1108,0.1211,6,notharmonic,1.8,word,m,0.5056,,,,,,,,
,,,,,,,,,,,3579,001,2023-11-07_16h00.22.268,vowel_harmony,2023.2.3,Win32,59.95922773,315.003,316.0024,,,,,,,,,,,,,,,,,,,,,,,,,,316.0024,316.4188,m,1,316.4189,316.4189,,0,92,92,92,1,93,sahne,1380,62.7017,1238,0.1353,5,notharmonic,1.65,word,m,0.3966,,,,,,,,
,,,,,,,,,,,3579,001,2023-11-07_16h00.22.268,vowel_harmony,2023.2.3,Win32,59.95922773,316.4192,317.4183,,,,,,,,,,,,,,,,,,,,,,,,,,317.4184,318.0682,z,1,318.0682,318.0683,,0,93,93,262,1,263,sauk,,,,,4,harmonic,1.85,nw,z,0.6316,,,,,,,,
,,,,,,,,,,,3579,001,2023-11-07_16h00.22.268,vowel_harmony,2023.2.3,Win32,59.95922773,318.0687,319.0675,,,,,,,,,,,,,,,,,,,,,,,,,,319.0675,319.5341,m,1,319.5341,319.5342,,0,94,94,59,1,60,köpek,1044,47.4352,901,0.0985,5,harmonic,1.75,word,m,0.4522,,,,,,,,
,,,,,,,,,,,3579,001,2023-11-07_16h00.22.268,vowel_harmony,2023.2.3,Win32,59.95922773,319.5345,320.5337,,,,,,,,,,,,,,,,,,,,,,,,,,320.5337,321.3,z,1,321.3001,321.3001,,0,95,95,213,1,214,kaun,,,,,4,harmonic,1.7,nw,z,0.7481,,,,,,,,
,,,,,,,,,,,3579,001,2023-11-07_16h00.22.268,vowel_harmony,2023.2.3,Win32,59.95922773,321.3004,322.2995,,,,,,,,,,,,,,,,,,,,,,,,,,322.2995,322.8326,m,0,322.8326,322.8326,,0,96,96,230,1,231,bikir,,,,,5,harmonic,1.75,nw,z,0.5176,,,,,,,,
,,,,,,,,,,,3579,001,2023-11-07_16h00.22.268,vowel_harmony,2023.2.3,Win32,59.95922773,322.833,323.8322,,,,,,,,,,,,,,,,,,,,,,,,,,323.8322,324.2986,m,1,324.2987,324.2988,,0,97,97,49,1,50,şeker,4708,213.9128,4170,0.4559,5,harmonic,1.6,word,m,0.4457,,,,,,,,
,,,,,,,,,,,3579,001,2023-11-07_16h00.22.268,vowel_harmony,2023.2.3,Win32,59.95922773,324.2991,325.298,,,,,,,,,,,,,,,,,,,,,,,,,,325.298,325.7647,m,1,325.7647,325.7648,,0,98,98,43,1,44,geniş,3380,153.5738,3185,0.3482,5,harmonic,1.35,word,m,0.452,,,,,,,,
,,,,,,,,,,,3579,001,2023-11-07_16h00.22.268,vowel_harmony,2023.2.3,Win32,59.95922773,325.7651,326.7639,,,,,,,,,,,,,,,,,,,,,,,,,,326.7639,327.4972,z,1,327.4972,327.4973,,0,99,99,302,1,303,işgar,,,,,5,notharmonic,1.9,nw,z,0.7147,,,,,,,,
,,,,,,,,,,,3579,001,2023-11-07_16h00.22.268,vowel_harmony,2023.2.3,Win32,59.95922773,327.4976,328.4966,,,,,,,,,,,,,,,,,,,,,,,,,,328.4966,329.2961,z,1,329.2961,329.2962,,0,100,100,277,1,278,balsin,,,,,6,notharmonic,1.85,nw,z,0.7842,,,,,,,,
,,,,,,,,,,,3579,001,2023-11-07_16h00.22.268,vowel_harmony,2023.2.3,Win32,59.95922773,329.2965,330.2956,,,,,,,,,,,,,,,,,,,,,,,,,,330.2956,330.8289,z,1,330.829,330.829,,0,101,101,328,1,329,kirul,,,,,5,notharmonic,1.95,nw,z,0.5146,,,,,,,,
,,,,,,,,,,,3579,001,2023-11-07_16h00.22.268,vowel_harmony,2023.2.3,Win32,59.95922773,330.8294,331.8282,,,,,,,,,,,,,,,,,,,,,,,,,,331.8282,332.4279,m,0,332.4279,332.4281,,0,102,102,287,1,288,haköm,,,,,5,notharmonic,1.9,nw,z,0.5872,,,,,,,,
,,,,,,,,,,,3579,001,2023-11-07_16h00.22.268,vowel_harmony,2023.2.3,Win32,59.95922773,332.4284,333.4276,,,,,,,,,,,,,,,,,,,,,,,,,,333.4277,335.077,m,0,335.077,335.0772,,0,103,103,183,1,184,orkın,,,,,5,harmonic,1.9,nw,z,1.6278,,,,,,,,
,,,,,,,,,,,3579,001,2023-11-07_16h00.22.268,vowel_harmony,2023.2.3,Win32,59.95922773,335.0777,336.0765,,,,,,,,,,,,,,,,,,,,,,,,,,336.0766,336.7603,z,1,336.7604,336.7605,,0,104,104,248,1,249,şegim,,,,,5,harmonic,1.9,nw,z,0.6673,,,,,,,,
,,,,,,,,,,,3579,001,2023-11-07_16h00.22.268,vowel_harmony,2023.2.3,Win32,59.95922773,336.7616,337.7591,,,,,,,,,,,,,,,,,,,,,,,,,,337.7591,338.3756,m,1,338.3757,338.3757,,0,105,105,53,1,54,gelir,7578,344.3143,7014,0.7668,5,harmonic,1.4,word,m,0.6017,,,,,,,,
,,,,,,,,,,,3579,001,2023-11-07_16h00.22.268,vowel_harmony,2023.2.3,Win32,59.95922773,338.3761,339.3749,,,,,,,,,,,,,,,,,,,,,,,,,,339.375,339.8747,m,1,339.8747,339.8748,,0,106,106,138,1,139,kardeş,1270,57.7038,1174,0.1283,6,notharmonic,1.9,word,m,0.4875,,,,,,,,
,,,,,,,,,,,3579,001,2023-11-07_16h00.22.268,vowel_harmony,2023.2.3,Win32,59.95922773,339.875,340.8743,,,,,,,,,,,,,,,,,,,,,,,,,,340.8743,341.6904,z,1,341.6904,341.6906,,0,107,107,321,1,322,makih,,,,,5,notharmonic,1.8,nw,z,0.7987,,,,,,,,
,,,,,,,,,,,3579,001,2023-11-07_16h00.22.268,vowel_harmony,2023.2.3,Win32,59.95922773,341.6908,342.6902,,,,,,,,,,,,,,,,,,,,,,,,,,342.6903,343.4066,z,1,343.4066,343.4066,,0,108,108,296,1,297,işban,,,,,5,notharmonic,1.95,nw,z,0.7024,,,,,,,,
,,,,,,,,,,,3579,001,2023-11-07_16h00.22.268,vowel_harmony,2023.2.3,Win32,59.95922773,343.4069,344.4061,,,,,,,,,,,,,,,,,,,,,,,,,,344.4061,345.2057,z,1,345.2058,345.2059,,0,109,109,307,1,308,merbat,,,,,6,notharmonic,1.95,nw,z,0.7845,,,,,,,,
,,,,,,,,,,,3579,001,2023-11-07_16h00.22.268,vowel_harmony,2023.2.3,Win32,59.95922773,345.2061,346.2051,,,,,,,,,,,,,,,,,,,,,,,,,,346.2052,346.7549,m,1,346.7549,346.7551,,0,110,110,30,1,31,çevre,1662,75.5147,1409,0.154,5,harmonic,1.55,word,m,0.5382,,,,,,,,
,,,,,,,,,,,3579,001,2023-11-07_16h00.22.268,vowel_harmony,2023.2.3,Win32,59.95922773,346.7554,347.7546,,,,,,,,,,,,,,,,,,,,,,,,,,347.7547,348.2208,m,1,348.2209,348.2209,,0,111,111,41,1,42,zengin,2193,99.6412,2015,0.2203,6,harmonic,1.65,word,m,0.4536,,,,,,,,
,,,,,,,,,,,3579,001,2023-11-07_16h00.22.268,vowel_harmony,2023.2.3,Win32,59.95922773,348.2212,349.2205,,,,,,,,,,,,,,,,,,,,,,,,,,349.2205,349.737,m,1,349.737,349.7371,,0,112,112,165,1,166,gazete,1402,63.7013,1270,0.1388,6,notharmonic,1.8,word,m,0.5045,,,,,,,,
,,,,,,,,,,,3579,001,2023-11-07_16h00.22.268,vowel_harmony,2023.2.3,Win32,59.95922773,349.7374,350.7367,,,,,,,,,,,,,,,,,,,,,,,,,,350.7367,351.586,z,1,351.586,351.586,,0,113,113,345,1,346,bardeş,,,,,6,notharmonic,1.95,nw,z,0.8309,,,,,,,,
,,,,,,,,,,,3579,001,2023-11-07_16h00.22.268,vowel_harmony,2023.2.3,Win32,59.95922773,351.5864,352.5858,,,,,,,,,,,,,,,,,,,,,,,,,,352.5858,353.2188,z,1,353.2189,353.2189,,0,114,114,290,1,291,aipa,,,,,4,notharmonic,1.95,nw,z,0.6127,,,,,,,,
,,,,,,,,,,,3579,001,2023-11-07_16h00.22.268,vowel_harmony,2023.2.3,Win32,59.95922773,353.2192,354.2183,,,,,,,,,,,,,,,,,,,,,,,,,,354.2183,354.8512,m,1,354.8513,354.8513,,0,115,115,101,1,102,imza,1358,61.7021,1253,0.137,4,notharmonic,1.65,word,m,0.624,,,,,,,,
,,,,,,,,,,,3579,001,2023-11-07_16h00.22.268,vowel_harmony,2023.2.3,Win32,59.95922773,354.8516,355.8509,,,,,,,,,,,,,,,,,,,,,,,,,,355.851,356.4839,z,1,356.4839,356.484,,0,116,116,274,1,275,pisan,,,,,5,notharmonic,1.75,nw,z,0.6116,,,,,,,,
,,,,,,,,,,,3579,001,2023-11-07_16h00.22.268,vowel_harmony,2023.2.3,Win32,59.95922773,356.4843,357.4834,,,,,,,,,,,,,,,,,,,,,,,,,,357.4834,357.9831,m,1,357.9831,357.9832,,0,117,117,20,1,21,nefes,2871,130.4469,2553,0.2791,5,harmonic,1.8,word,m,0.4791,,,,,,,,
,,,,,,,,,,,3579,001,2023-11-07_16h00.22.268,vowel_harmony,2023.2.3,Win32,59.95922773,357.9835,358.9828,,,,,,,,,,,,,,,,,,,,,,,,,,358.9829,359.5989,m,1,359.5989,359.599,,0,118,118,98,1,99,paket,1532,69.608,1392,0.1522,5,notharmonic,1.55,word,m,0.598,,,,,,,,
,,,,,,,,,,,3579,001,2023-11-07_16h00.22.268,vowel_harmony,2023.2.3,Win32,59.95922773,359.5993,360.5988,,,,,,,,,,,,,,,,,,,,,,,,,,360.5988,361.3149,z,1,361.315,361.3151,,0,119,119,270,1,271,miyaj,,,,,5,notharmonic,1.9,nw,z,0.6981,,,,,,,,
,,,,,,,,,,,3579,001,2023-11-07_16h00.22.268,vowel_harmony,2023.2.3,Win32,59.95922773,361.3154,362.3145,,,,,,,,,,,,,,,,,,,,,,,,,,362.3145,363.1476,m,1,363.1476,390.5852,space,0,120,120,19,1,20,ödül,1063,48.2985,926,0.1012,4,harmonic,1.7,word,m,0.8121,,27.4217,,,,,,
,,,,,,,,,,,3579,001,2023-11-07_16h00.22.268,vowel_harmony,2023.2.3,Win32,59.95922773,390.5961,391.5847,,,,,,,,,,,,,,,,,,,,,,,,,,391.5847,393.3171,m,1,393.3171,393.3173,,0,121,121,104,1,105,cevap,5232,237.7213,4822,0.5271,5,notharmonic,1.85,word,m,1.7199,,,,,,,,
,,,,,,,,,,,3579,001,2023-11-07_16h00.22.268,vowel_harmony,2023.2.3,Win32,59.95922773,393.3176,394.3167,,,,,,,,,,,,,,,,,,,,,,,,,,394.3167,395.3827,z,1,395.3827,395.3828,,0,122,122,354,1,355,taden,,,,,5,notharmonic,1.7,nw,z,1.0551,,,,,,,,
,,,,,,,,,,,3579,001,2023-11-07_16h00.22.268,vowel_harmony,2023.2.3,Win32,59.95922773,395.3831,396.3825,,,,,,,,,,,,,,,,,,,,,,,,,,396.3826,397.0489,z,1,397.049,397.0491,,0,123,123,218,1,219,tezöl,,,,,5,harmonic,2,nw,z,0.6485,,,,,,,,
,,,,,,,,,,,3579,001,2023-11-07_16h00.22.268,vowel_harmony,2023.2.3,Win32,59.95922773,397.0495,398.0484,,,,,,,,,,,,,,,,,,,,,,,,,,398.0484,398.515,m,1,398.515,398.515,,0,124,124,21,1,22,duygu,1877,85.2834,1760,0.1924,5,harmonic,1.8,word,m,0.4457,,,,,,,,
,,,,,,,,,,,3579,001,2023-11-07_16h00.22.268,vowel_harmony,2023.2.3,Win32,59.95922773,398.5153,399.5144,,,,,,,,,,,,,,,,,,,,,,,,,,399.5144,400.1306,m,1,400.1306,400.1306,,0,125,125,145,1,146,iddia,2430,110.4096,2295,0.2509,5,notharmonic,1.85,word,m,0.6063,,,,,,,,
,,,,,,,,,,,3579,001,2023-11-07_16h00.22.268,vowel_harmony,2023.2.3,Win32,59.95922773,400.1309,401.1304,,,,,,,,,,,,,,,,,,,,,,,,,,401.1305,401.7801,z,1,401.7802,401.7803,,0,126,126,219,1,220,barlum,,,,,6,harmonic,1.9,nw,z,0.6379,,,,,,,,
,,,,,,,,,,,3579,001,2023-11-07_16h00.22.268,vowel_harmony,2023.2.3,Win32,59.95922773,401.7806,402.7797,,,,,,,,,,,,,,,,,,,,,,,,,,402.7797,403.596,m,0,403.596,403.596,,0,127,127,293,1,294,esnan,,,,,5,notharmonic,1.85,nw,z,0.7968,,,,,,,,
,,,,,,,,,,,3579,001,2023-11-07_16h00.22.268,vowel_harmony,2023.2.3,Win32,59.95922773,403.5964,404.5954,,,,,,,,,,,,,,,,,,,,,,,,,,404.5954,405.0952,m,1,405.0952,405.0953,,0,128,128,160,1,161,hakem,603,27.3979,473,0.0517,5,notharmonic,1.3,word,m,0.4864,,,,,,,,
,,,,,,,,,,,3579,001,2023-11-07_16h00.22.268,vowel_harmony,2023.2.3,Win32,59.95922773,405.0957,406.0948,,,,,,,,,,,,,,,,,,,,,,,,,,406.0948,406.9777,z,1,406.9777,406.9778,,0,129,129,295,1,296,haylin,,,,,6,notharmonic,1.8,nw,z,0.864,,,,,,,,
,,,,,,,,,,,3579,001,2023-11-07_16h00.22.268,vowel_harmony,2023.2.3,Win32,59.95922773,406.9781,407.9772,,,,,,,,,,,,,,,,,,,,,,,,,,407.9772,408.9268,z,1,408.9268,408.9268,,0,130,130,281,1,282,afel,,,,,4,notharmonic,1.8,nw,z,0.9398,,,,,,,,
,,,,,,,,,,,3579,001,2023-11-07_16h00.22.268,vowel_harmony,2023.2.3,Win32,59.95922773,408.9272,409.9265,,,,,,,,,,,,,,,,,,,,,,,,,,409.9265,410.5427,z,1,410.5427,410.5428,,0,131,131,188,1,189,tonık,,,,,5,harmonic,1.85,nw,z,0.5984,,,,,,,,
,,,,,,,,,,,3579,001,2023-11-07_16h00.22.268,vowel_harmony,2023.2.3,Win32,59.95922773,410.5431,411.5421,,,,,,,,,,,,,,,,,,,,,,,,,,411.5421,412.0753,m,1,412.0753,412.0754,,0,132,132,177,1,178,tekrar,10788,490.1639,9352,1.0224,6,notharmonic,1.85,word,m,0.5232,,,,,,,,
,,,,,,,,,,,3579,001,2023-11-07_16h00.22.268,vowel_harmony,2023.2.3,Win32,59.95922773,412.0757,413.0749,,,,,,,,,,,,,,,,,,,,,,,,,,413.075,413.8077,z,1,413.8078,413.8079,,0,133,133,235,1,236,oşup,,,,,4,harmonic,1.75,nw,z,0.7124,,,,,,,,
,,,,,,,,,,,3579,001,2023-11-07_16h00.22.268,vowel_harmony,2023.2.3,Win32,59.95922773,413.8082,414.8074,,,,,,,,,,,,,,,,,,,,,,,,,,414.8075,415.4404,m,1,415.4404,415.4405,,0,134,134,12,1,13,konu,5400,245.3546,5110,0.5586,4,harmonic,1,word,m,0.6124,,,,,,,,
,,,,,,,,,,,3579,001,2023-11-07_16h00.22.268,vowel_harmony,2023.2.3,Win32,59.95922773,415.4408,416.4401,,,,,,,,,,,,,,,,,,,,,,,,,,416.4401,417.3729,z,1,417.3729,417.3729,,0,135,135,322,1,323,normin,,,,,6,notharmonic,1.95,nw,z,0.9227,,,,,,,,
,,,,,,,,,,,3579,001,2023-11-07_16h00.22.268,vowel_harmony,2023.2.3,Win32,59.95922773,417.3733,418.3726,,,,,,,,,,,,,,,,,,,,,,,,,,418.3726,419.0055,z,1,419.0055,419.0056,,0,136,136,246,1,247,orkın,,,,,5,harmonic,1.9,nw,z,0.6204,,,,,,,,
,,,,,,,,,,,3579,001,2023-11-07_16h00.22.268,vowel_harmony,2023.2.3,Win32,59.95922773,419.0059,420.0051,,,,,,,,,,,,,,,,,,,,,,,,,,420.0052,420.5713,m,1,420.5713,420.5715,,0,137,137,122,1,123,devam,17666,802.673,16284,1.7802,5,notharmonic,1.55,word,m,0.5503,,,,,,,,
,,,,,,,,,,,3579,001,2023-11-07_16h00.22.268,vowel_harmony,2023.2.3,Win32,59.95922773,420.5718,421.5708,,,,,,,,,,,,,,,,,,,,,,,,,,421.5708,422.5371,m,0,422.5371,422.5372,,0,138,138,313,1,314,ikas,,,,,4,notharmonic,1.85,nw,z,0.9545,,,,,,,,
,,,,,,,,,,,3579,001,2023-11-07_16h00.22.268,vowel_harmony,2023.2.3,Win32,59.95922773,422.5376,423.5368,,,,,,,,,,,,,,,,,,,,,,,,,,423.5368,424.3532,z,1,424.3532,424.3533,,0,139,139,349,1,350,harten,,,,,6,notharmonic,1.85,nw,z,0.8027,,,,,,,,
,,,,,,,,,,,3579,001,2023-11-07_16h00.22.268,vowel_harmony,2023.2.3,Win32,59.95922773,424.3538,425.3528,,,,,,,,,,,,,,,,,,,,,,,,,,425.3529,426.0857,z,1,426.0857,426.0858,,0,140,140,269,1,270,vekü,,,,,4,harmonic,2,nw,z,0.7189,,,,,,,,
,,,,,,,,,,,3579,001,2023-11-07_16h00.22.268,vowel_harmony,2023.2.3,Win32,59.95922773,426.0862,427.0849,,,,,,,,,,,,,,,,,,,,,,,,,,427.0849,427.8514,z,1,427.8515,427.8516,,0,141,141,340,1,341,minya,,,,,5,notharmonic,1.95,nw,z,0.7454,,,,,,,,
,,,,,,,,,,,3579,001,2023-11-07_16h00.22.268,vowel_harmony,2023.2.3,Win32,59.95922773,427.8518,428.851,,,,,,,,,,,,,,,,,,,,,,,,,,428.851,429.4174,m,1,429.4175,429.4175,,0,142,142,169,1,170,hikaye,1555,70.653,1405,0.1536,6,notharmonic,1.8,word,m,0.5561,,,,,,,,
,,,,,,,,,,,3579,001,2023-11-07_16h00.22.268,vowel_harmony,2023.2.3,Win32,59.95922773,429.4178,430.4167,,,,,,,,,,,,,,,,,,,,,,,,,,430.4167,430.9668,m,1,430.9669,430.967,,0,143,143,31,1,32,fazla,18293,831.1614,16694,1.825,5,harmonic,1,word,m,0.5363,,,,,,,,
,,,,,,,,,,,3579,001,2023-11-07_16h00.22.268,vowel_harmony,2023.2.3,Win32,59.95922773,430.9672,431.9663,,,,,,,,,,,,,,,,,,,,,,,,,,431.9665,432.5494,m,1,432.5494,432.5494,,0,144,144,78,1,79,ulusal,1551,70.4713,1355,0.1481,6,harmonic,1.75,word,m,0.5719,,,,,,,,
,,,,,,,,,,,3579,001,2023-11-07_16h00.22.268,vowel_harmony,2023.2.3,Win32,59.95922773,432.5497,433.5489,,,,,,,,,,,,,,,,,,,,,,,,,,433.5489,434.3317,z,1,434.3317,434.3318,,0,145,145,212,1,213,ortat,,,,,5,harmonic,1.7,nw,z,0.7645,,,,,,,,
,,,,,,,,,,,3579,001,2023-11-07_16h00.22.268,vowel_harmony,2023.2.3,Win32,59.95922773,434.332,435.3314,,,,,,,,,,,,,,,,,,,,,,,,,,435.3314,436.0645,m,1,436.0646,436.0646,,0,146,146,158,1,159,klasik,1871,85.0108,1734,0.1896,6,notharmonic,2,word,m,0.7152,,,,,,,,
,,,,,,,,,,,3579,001,2023-11-07_16h00.22.268,vowel_harmony,2023.2.3,Win32,59.95922773,436.0649,437.064,,,,,,,,,,,,,,,,,,,,,,,,,,437.064,437.847,z,1,437.8471,437.8471,,0,147,147,226,1,227,tefem,,,,,5,harmonic,1.75,nw,z,0.7685,,,,,,,,
,,,,,,,,,,,3579,001,2023-11-07_16h00.22.268,vowel_harmony,2023.2.3,Win32,59.95922773,437.8475,438.8462,,,,,,,,,,,,,,,,,,,,,,,,,,438.8463,439.7961,z,1,439.7961,439.7961,,0,148,148,253,1,254,meslet,,,,,6,harmonic,1.85,nw,z,0.9393,,,,,,,,
,,,,,,,,,,,3579,001,2023-11-07_16h00.22.268,vowel_harmony,2023.2.3,Win32,59.95922773,439.7965,440.7958,,,,,,,,,,,,,,,,,,,,,,,,,,440.7958,441.362,m,1,441.362,441.3621,,0,149,149,73,1,74,millet,1658,75.3329,1508,0.1649,6,harmonic,1.7,word,m,0.5494,,,,,,,,
,,,,,,,,,,,3579,001,2023-11-07_16h00.22.268,vowel_harmony,2023.2.3,Win32,59.95922773,441.3623,442.3615,,,,,,,,,,,,,,,,,,,,,,,,,,442.3616,442.8281,m,1,442.8281,442.8282,,0,150,150,57,1,58,bölüm,1910,86.7828,1605,0.1755,5,harmonic,1.45,word,m,0.4481,,,,,,,,
,,,,,,,,,,,3579,001,2023-11-07_16h00.22.268,vowel_harmony,2023.2.3,Win32,59.95922773,442.8285,443.8274,,,,,,,,,,,,,,,,,,,,,,,,,,443.8274,444.9271,m,0,444.9272,444.9273,,0,151,151,268,1,269,haldum,,,,,6,harmonic,2,nw,z,1.0806,,,,,,,,
,,,,,,,,,,,3579,001,2023-11-07_16h00.22.268,vowel_harmony,2023.2.3,Win32,59.95922773,444.9275,445.9267,,,,,,,,,,,,,,,,,,,,,,,,,,445.9267,446.7597,z,1,446.7597,446.7598,,0,152,152,233,1,234,devpi,,,,,5,harmonic,1.8,nw,z,0.8121,,,,,,,,
,,,,,,,,,,,3579,001,2023-11-07_16h00.22.268,vowel_harmony,2023.2.3,Win32,59.95922773,446.76,447.7592,,,,,,,,,,,,,,,,,,,,,,,,,,447.7592,449.1252,z,1,449.1252,449.1253,,0,153,153,190,1,191,reklen,,,,,6,harmonic,1.8,nw,z,1.3501,,,,,,,,
,,,,,,,,,,,3579,001,2023-11-07_16h00.22.268,vowel_harmony,2023.2.3,Win32,59.95922773,449.1256,450.1248,,,,,,,,,,,,,,,,,,,,,,,,,,450.1248,450.8909,z,1,450.8909,450.891,,0,154,154,314,1,315,seral,,,,,5,notharmonic,1.7,nw,z,0.7474,,,,,,,,
,,,,,,,,,,,3579,001,2023-11-07_16h00.22.268,vowel_harmony,2023.2.3,Win32,59.95922773,450.8914,451.8906,,,,,,,,,,,,,,,,,,,,,,,,,,451.8906,452.5901,m,1,452.5901,452.5902,,0,155,155,97,1,98,mevcut,3007,136.6262,2842,0.3107,6,notharmonic,1.95,word,m,0.6905,,,,,,,,
,,,,,,,,,,,3579,001,2023-11-07_16h00.22.268,vowel_harmony,2023.2.3,Win32,59.95922773,452.5905,453.5899,,,,,,,,,,,,,,,,,,,,,,,,,,453.5899,454.2562,m,1,454.2562,454.2563,,0,156,156,77,1,78,ufak,3252,147.758,2980,0.3258,4,harmonic,1.5,word,m,0.6472,,,,,,,,
,,,,,,,,,,,3579,001,2023-11-07_16h00.22.268,vowel_harmony,2023.2.3,Win32,59.95922773,454.2566,455.2558,,,,,,,,,,,,,,,,,,,,,,,,,,455.2558,455.8555,m,1,455.8556,455.8556,,0,157,157,54,1,55,yedek,825,37.4847,732,0.08,5,harmonic,1.65,word,m,0.5786,,,,,,,,
,,,,,,,,,,,3579,001,2023-11-07_16h00.22.268,vowel_harmony,2023.2.3,Win32,59.95922773,455.8559,456.855,,,,,,,,,,,,,,,,,,,,,,,,,,456.8551,457.4381,m,1,457.4381,457.4383,,0,158,158,107,1,108,merak,5806,263.8016,5524,0.6039,5,notharmonic,1.65,word,m,0.564,,,,,,,,
,,,,,,,,,,,3579,001,2023-11-07_16h00.22.268,vowel_harmony,2023.2.3,Win32,59.95922773,457.4386,458.4377,,,,,,,,,,,,,,,,,,,,,,,,,,458.4377,459.0872,m,1,459.0873,459.0873,,0,159,159,114,1,115,nisan,2321,105.457,2044,0.2235,5,notharmonic,1.6,word,m,0.6343,,,,,,,,
,,,,,,,,,,,3579,001,2023-11-07_16h00.22.268,vowel_harmony,2023.2.3,Win32,59.95922773,459.0876,460.0867,,,,,,,,,,,,,,,,,,,,,,,,,,460.0867,460.8699,z,1,460.8699,460.8701,,0,160,160,335,1,336,lilo,,,,,4,notharmonic,1.8,nw,z,0.7628,,,,,,,,
,,,,,,,,,,,3579,001,2023-11-07_16h00.22.268,vowel_harmony,2023.2.3,Win32,59.95922773,460.8703,461.8694,,,,,,,,,,,,,,,,,,,,,,,,,,461.8694,462.6024,z,1,462.6024,462.6025,,0,161,161,346,1,347,kidan,,,,,5,notharmonic,1.8,nw,z,0.7143,,,,,,,,
,,,,,,,,,,,3579,001,2023-11-07_16h00.22.268,vowel_harmony,2023.2.3,Win32,59.95922773,462.6028,463.602,,,,,,,,,,,,,,,,,,,,,,,,,,463.602,464.285,z,1,464.285,464.2852,,0,162,162,250,1,251,kakuk,,,,,5,harmonic,1.9,nw,z,0.6664,,,,,,,,
,,,,,,,,,,,3579,001,2023-11-07_16h00.22.268,vowel_harmony,2023.2.3,Win32,59.95922773,464.2854,465.2846,,,,,,,,,,,,,,,,,,,,,,,,,,465.2846,465.8675,m,1,465.8675,465.8676,,0,163,163,24,1,25,yorgun,1153,52.3877,1108,0.1211,6,harmonic,1.55,word,m,0.5732,,,,,,,,
,,,,,,,,,,,3579,001,2023-11-07_16h00.22.268,vowel_harmony,2023.2.3,Win32,59.95922773,465.8679,466.8672,,,,,,,,,,,,,,,,,,,,,,,,,,466.8673,467.8666,z,1,467.8666,467.8667,,0,164,164,261,1,262,kardok,,,,,6,harmonic,1.95,nw,z,0.9805,,,,,,,,
,,,,,,,,,,,3579,001,2023-11-07_16h00.22.268,vowel_harmony,2023.2.3,Win32,59.95922773,467.8669,468.8663,,,,,,,,,,,,,,,,,,,,,,,,,,468.8663,469.4159,m,1,469.4159,469.416,,0,165,165,124,1,125,ilan,1579,71.7435,1499,0.1639,4,notharmonic,1,word,m,0.5342,,,,,,,,
,,,,,,,,,,,3579,001,2023-11-07_16h00.22.268,vowel_harmony,2023.2.3,Win32,59.95922773,469.4163,470.4153,,,,,,,,,,,,,,,,,,,,,,,,,,470.4153,471.1318,m,1,471.1318,471.1319,,0,166,166,29,1,30,huzur,1911,86.8283,1799,0.1967,5,harmonic,1.8,word,m,0.6975,,,,,,,,
,,,,,,,,,,,3579,001,2023-11-07_16h00.22.268,vowel_harmony,2023.2.3,Win32,59.95922773,471.1322,472.1313,,,,,,,,,,,,,,,,,,,,,,,,,,472.1314,472.8977,z,1,472.8977,472.8978,,0,167,167,265,1,266,parula,,,,,6,harmonic,1.75,nw,z,0.7538,,,,,,,,
,,,,,,,,,,,3579,001,2023-11-07_16h00.22.268,vowel_harmony,2023.2.3,Win32,59.95922773,472.8981,473.8972,,,,,,,,,,,,,,,,,,,,,,,,,,473.8972,474.4638,m,0,474.4638,474.4638,,0,168,168,333,1,334,heyran,,,,,6,notharmonic,1.85,nw,z,0.5483,,,,,,,,
,,,,,,,,,,,3579,001,2023-11-07_16h00.22.268,vowel_harmony,2023.2.3,Win32,59.95922773,474.4642,475.4631,,,,,,,,,,,,,,,,,,,,,,,,,,475.4631,476.1629,m,1,476.1629,476.163,,0,169,169,144,1,145,garip,2567,116.6343,2355,0.2574,5,notharmonic,1.65,word,m,0.6816,,,,,,,,
,,,,,,,,,,,3579,001,2023-11-07_16h00.22.268,vowel_harmony,2023.2.3,Win32,59.95922773,476.1634,477.1623,,,,,,,,,,,,,,,,,,,,,,,,,,477.1624,477.6955,m,1,477.6955,477.6956,,0,170,170,62,1,63,cümle,1911,86.8283,1765,0.193,5,harmonic,1.85,word,m,0.5156,,,,,,,,
,,,,,,,,,,,3579,001,2023-11-07_16h00.22.268,vowel_harmony,2023.2.3,Win32,59.95922773,477.6961,478.6949,,,,,,,,,,,,,,,,,,,,,,,,,,478.6949,479.2614,m,1,479.2615,479.2616,,0,171,171,14,1,15,yaşam,4348,197.5559,3918,0.4283,5,harmonic,1.4,word,m,0.5478,,,,,,,,
,,,,,,,,,,,3579,001,2023-11-07_16h00.22.268,vowel_harmony,2023.2.3,Win32,59.95922773,479.2619,480.261,,,,,,,,,,,,,,,,,,,,,,,,,,480.261,481.0272,z,1,481.0273,481.0273,,0,172,172,256,1,257,yaruza,,,,,6,harmonic,1.9,nw,z,0.7471,,,,,,,,
,,,,,,,,,,,3579,001,2023-11-07_16h00.22.268,vowel_harmony,2023.2.3,Win32,59.95922773,481.0276,482.027,,,,,,,,,,,,,,,,,,,,,,,,,,482.027,482.8265,m,0,482.8265,482.8266,,0,173,173,334,1,335,işgan,,,,,5,notharmonic,1.95,nw,z,0.7817,,,,,,,,
,,,,,,,,,,,3579,001,2023-11-07_16h00.22.268,vowel_harmony,2023.2.3,Win32,59.95922773,482.8269,483.8261,,,,,,,,,,,,,,,,,,,,,,,,,,483.8262,484.4758,m,0,484.4759,484.476,,0,174,174,184,1,185,yapor,,,,,5,harmonic,1.9,nw,z,0.6405,,,,,,,,
,,,,,,,,,,,3579,001,2023-11-07_16h00.22.268,vowel_harmony,2023.2.3,Win32,59.95922773,484.4763,485.4754,,,,,,,,,,,,,,,,,,,,,,,,,,485.4755,486.2416,m,1,486.2416,486.2417,,0,175,175,161,1,162,komik,1617,73.4701,1506,0.1646,5,notharmonic,1.75,word,m,0.7455,,,,,,,,
,,,,,,,,,,,3579,001,2023-11-07_16h00.22.268,vowel_harmony,2023.2.3,Win32,59.95922773,486.242,487.2409,,,,,,,,,,,,,,,,,,,,,,,,,,487.2409,487.8574,m,1,487.8574,487.8575,,0,176,176,113,1,114,model,1200,54.5232,1082,0.1183,5,notharmonic,1.75,word,m,0.6024,,,,,,,,
,,,,,,,,,,,3579,001,2023-11-07_16h00.22.268,vowel_harmony,2023.2.3,Win32,59.95922773,487.8578,488.8569,,,,,,,,,,,,,,,,,,,,,,,,,,488.857,489.5736,z,1,489.5736,489.5737,,0,177,177,285,1,286,iklon,,,,,5,notharmonic,1.85,nw,z,0.7012,,,,,,,,
,,,,,,,,,,,3579,001,2023-11-07_16h00.22.268,vowel_harmony,2023.2.3,Win32,59.95922773,489.574,490.5728,,,,,,,,,,,,,,,,,,,,,,,,,,490.5729,491.506,m,1,491.5061,491.5061,,0,178,178,82,1,83,aday,1028,46.7082,873,0.0954,4,harmonic,1.45,word,m,0.9143,,,,,,,,
,,,,,,,,,,,3579,001,2023-11-07_16h00.22.268,vowel_harmony,2023.2.3,Win32,59.95922773,491.5064,492.5053,,,,,,,,,,,,,,,,,,,,,,,,,,492.5054,493.3883,z,1,493.3883,493.3883,,0,179,179,271,1,272,mimal,,,,,5,notharmonic,1.8,nw,z,0.8649,,,,,,,,
,,,,,,,,,,,3579,001,2023-11-07_16h00.22.268,vowel_harmony,2023.2.3,Win32,59.95922773,493.3887,494.3879,,,,,,,,,,,,,,,,,,,,,,,,,,494.3879,495.0874,z,1,495.0875,495.0875,,0,180,180,205,1,206,kahay,,,,,5,harmonic,1.9,nw,z,0.69,,,,,,,,
,,,,,,,,,,,3579,001,2023-11-07_16h00.22.268,vowel_harmony,2023.2.3,Win32,59.95922773,495.0879,496.087,,,,,,,,,,,,,,,,,,,,,,,,,,496.087,496.837,z,1,496.837,496.8371,,0,181,181,337,1,338,bakem,,,,,5,notharmonic,1.7,nw,z,0.7357,,,,,,,,
,,,,,,,,,,,3579,001,2023-11-07_16h00.22.268,vowel_harmony,2023.2.3,Win32,59.95922773,496.8373,497.8365,,,,,,,,,,,,,,,,,,,,,,,,,,497.8365,498.6025,m,1,498.6025,498.6026,,0,182,182,172,1,173,milyar,1496,67.9723,1078,0.1178,6,notharmonic,1.85,word,m,0.7562,,,,,,,,
,,,,,,,,,,,3579,001,2023-11-07_16h00.22.268,vowel_harmony,2023.2.3,Win32,59.95922773,498.6028,499.6023,,,,,,,,,,,,,,,,,,,,,,,,,,499.6023,500.1186,m,1,500.1186,500.1186,,0,183,183,123,1,124,haber,4559,207.1429,4151,0.4538,5,notharmonic,1.85,word,m,0.4985,,,,,,,,
,,,,,,,,,,,3579,001,2023-11-07_16h00.22.268,vowel_harmony,2023.2.3,Win32,59.95922773,500.1189,501.1183,,,,,,,,,,,,,,,,,,,,,,,,,,501.1184,501.7513,z,1,501.7513,501.7514,,0,184,184,245,1,246,bıyan,,,,,5,harmonic,1.7,nw,z,0.6176,,,,,,,,
,,,,,,,,,,,3579,001,2023-11-07_16h00.22.268,vowel_harmony,2023.2.3,Win32,59.95922773,501.7516,502.7506,,,,,,,,,,,,,,,,,,,,,,,,,,502.7506,503.4169,m,1,503.417,503.4171,,0,185,185,105,1,106,sahip,10887,494.6621,9847,1.0765,5,notharmonic,1.25,word,m,0.648,,,,,,,,
,,,,,,,,,,,3579,001,2023-11-07_16h00.22.268,vowel_harmony,2023.2.3,Win32,59.95922773,503.4174,504.4168,,,,,,,,,,,,,,,,,,,,,,,,,,504.4169,505,m,1,505,505.0001,,0,186,186,151,1,152,ateş,2108,95.7792,1803,0.1971,4,notharmonic,1.65,word,m,0.5714,,,,,,,,
,,,,,,,,,,,3579,001,2023-11-07_16h00.22.268,vowel_harmony,2023.2.3,Win32,59.95922773,505.0004,505.9991,,,,,,,,,,,,,,,,,,,,,,,,,,505.9992,506.5157,m,0,506.5157,506.5158,,0,187,187,211,1,212,yarum,,,,,5,harmonic,1.75,nw,z,0.5068,,,,,,,,
,,,,,,,,,,,3579,001,2023-11-07_16h00.22.268,vowel_harmony,2023.2.3,Win32,59.95922773,506.516,507.5154,,,,,,,,,,,,,,,,,,,,,,,,,,507.5154,508.2651,z,1,508.2651,508.2652,,0,188,188,258,1,259,karıha,,,,,6,harmonic,1.75,nw,z,0.7307,,,,,,,,
,,,,,,,,,,,3579,001,2023-11-07_16h00.22.268,vowel_harmony,2023.2.3,Win32,59.95922773,508.2655,509.2646,,,,,,,,,,,,,,,,,,,,,,,,,,509.2646,509.831,m,1,509.831,509.8312,,0,189,189,51,1,52,ilginç,2803,127.3572,2690,0.2941,6,harmonic,1.8,word,m,0.5452,,,,,,,,
,,,,,,,,,,,3579,001,2023-11-07_16h00.22.268,vowel_harmony,2023.2.3,Win32,59.95922773,509.8315,510.8303,,,,,,,,,,,,,,,,,,,,,,,,,,510.8303,511.7469,z,1,511.7469,511.7471,,0,190,190,329,1,330,taif,,,,,4,notharmonic,1.8,nw,z,0.898,,,,,,,,
,,,,,,,,,,,3579,001,2023-11-07_16h00.22.268,vowel_harmony,2023.2.3,Win32,59.95922773,511.7476,512.7463,,,,,,,,,,,,,,,,,,,,,,,,,,512.7464,513.2795,m,1,513.2795,513.2797,,0,191,191,8,1,9,güven,1433,65.1098,1300,0.1421,5,harmonic,1.35,word,m,0.5219,,,,,,,,
,,,,,,,,,,,3579,001,2023-11-07_16h00.22.268,vowel_harmony,2023.2.3,Win32,59.95922773,513.2801,514.2788,,,,,,,,,,,,,,,,,,,,,,,,,,514.2788,514.7955,m,1,514.7955,514.7957,,0,192,192,87,1,88,mümkün,6604,300.0596,6264,0.6848,6,harmonic,1.9,word,m,0.5021,,,,,,,,
,,,,,,,,,,,3579,001,2023-11-07_16h00.22.268,vowel_harmony,2023.2.3,Win32,59.95922773,514.796,515.795,,,,,,,,,,,,,,,,,,,,,,,,,,515.795,516.5447,z,1,516.5447,516.5448,,0,193,193,267,1,268,nokuma,,,,,6,harmonic,1.75,nw,z,0.7315,,,,,,,,
,,,,,,,,,,,3579,001,2023-11-07_16h00.22.268,vowel_harmony,2023.2.3,Win32,59.95922773,516.5451,517.5442,,,,,,,,,,,,,,,,,,,,,,,,,,517.5442,518.144,m,1,518.144,518.144,,0,194,194,6,1,7,hayal,4498,204.3713,4079,0.4459,5,harmonic,1.45,word,m,0.5783,,,,,,,,
,,,,,,,,,,,3579,001,2023-11-07_16h00.22.268,vowel_harmony,2023.2.3,Win32,59.95922773,518.1443,519.1434,,,,,,,,,,,,,,,,,,,,,,,,,,519.1434,519.8098,z,1,519.8098,519.8099,,0,195,195,187,1,188,remrin,,,,,6,harmonic,1.9,nw,z,0.6488,,,,,,,,
,,,,,,,,,,,3579,001,2023-11-07_16h00.22.268,vowel_harmony,2023.2.3,Win32,59.95922773,519.8102,520.8094,,,,,,,,,,,,,,,,,,,,,,,,,,520.8094,521.359,m,1,521.359,521.3591,,0,196,196,16,1,17,yavaş,5087,231.1331,2886,0.3155,5,harmonic,1.6,word,m,0.5339,,,,,,,,
,,,,,,,,,,,3579,001,2023-11-07_16h00.22.268,vowel_harmony,2023.2.3,Win32,59.95922773,521.3594,522.3588,,,,,,,,,,,,,,,,,,,,,,,,,,522.3588,522.8583,m,1,522.8583,522.8584,,0,197,197,9,1,10,karar,8108,368.3954,7436,0.8129,5,harmonic,1.6,word,m,0.4782,,,,,,,,
,,,,,,,,,,,3579,001,2023-11-07_16h00.22.268,vowel_harmony,2023.2.3,Win32,59.95922773,522.8587,523.858,,,,,,,,,,,,,,,,,,,,,,,,,,523.8581,524.6074,z,1,524.6074,524.6075,,0,198,198,260,1,261,yarlam,,,,,6,harmonic,1.75,nw,z,0.7284,,,,,,,,
,,,,,,,,,,,3579,001,2023-11-07_16h00.22.268,vowel_harmony,2023.2.3,Win32,59.95922773,524.6078,525.6071,,,,,,,,,,,,,,,,,,,,,,,,,,525.6072,526.2733,m,1,526.2734,526.2734,,0,199,199,7,1,8,hizmet,3023,137.3531,2689,0.294,6,harmonic,1.75,word,m,0.6543,,,,,,,,
,,,,,,,,,,,3579,001,2023-11-07_16h00.22.268,vowel_harmony,2023.2.3,Win32,59.95922773,526.2737,527.2731,,,,,,,,,,,,,,,,,,,,,,,,,,527.2731,527.7895,m,1,527.7896,527.7896,,0,200,200,152,1,153,tedavi,1865,84.7382,1597,0.1746,6,notharmonic,1.8,word,m,0.4979,,,,,,,,
,,,,,,,,,,,3579,001,2023-11-07_16h00.22.268,vowel_harmony,2023.2.3,Win32,59.95922773,527.7899,528.789,,,,,,,,,,,,,,,,,,,,,,,,,,528.789,529.2221,m,1,529.2221,529.2222,,0,201,201,176,1,177,harika,4682,212.7315,4422,0.4834,6,notharmonic,1.9,word,m,0.4145,,,,,,,,
,,,,,,,,,,,3579,001,2023-11-07_16h00.22.268,vowel_harmony,2023.2.3,Win32,59.95922773,529.2225,530.2216,,,,,,,,,,,,,,,,,,,,,,,,,,530.2216,530.6546,m,1,530.6547,530.6548,,0,202,202,64,1,65,lise,888,40.3472,816,0.0892,4,harmonic,1.5,word,m,0.4147,,,,,,,,
,,,,,,,,,,,3579,001,2023-11-07_16h00.22.268,vowel_harmony,2023.2.3,Win32,59.95922773,530.6551,531.6543,,,,,,,,,,,,,,,,,,,,,,,,,,531.6543,532.1376,m,1,532.1376,532.1377,,0,203,203,36,1,37,meslek,1082,49.1618,976,0.1067,6,harmonic,1.9,word,m,0.4658,,,,,,,,
,,,,,,,,,,,3579,001,2023-11-07_16h00.22.268,vowel_harmony,2023.2.3,Win32,59.95922773,532.1379,533.137,,,,,,,,,,,,,,,,,,,,,,,,,,533.137,533.8365,z,1,533.8365,533.8366,,0,204,204,198,1,199,yarbız,,,,,6,harmonic,1.95,nw,z,0.6813,,,,,,,,
,,,,,,,,,,,3579,001,2023-11-07_16h00.22.268,vowel_harmony,2023.2.3,Win32,59.95922773,533.8368,534.8363,,,,,,,,,,,,,,,,,,,,,,,,,,534.8364,535.8691,z,1,535.8692,535.8693,,0,205,205,341,1,342,işgan,,,,,5,notharmonic,1.95,nw,z,1.0144,,,,,,,,
,,,,,,,,,,,3579,001,2023-11-07_16h00.22.268,vowel_harmony,2023.2.3,Win32,59.95922773,535.8696,536.8688,,,,,,,,,,,,,,,,,,,,,,,,,,536.8688,537.4683,z,1,537.4684,537.4685,,0,206,206,291,1,292,mepan,,,,,5,notharmonic,1.75,nw,z,0.5837,,,,,,,,
,,,,,,,,,,,3579,001,2023-11-07_16h00.22.268,vowel_harmony,2023.2.3,Win32,59.95922773,537.4688,538.4679,,,,,,,,,,,,,,,,,,,,,,,,,,538.468,539.2508,z,1,539.2508,539.2509,,0,207,207,347,1,348,tekram,,,,,6,notharmonic,1.95,nw,z,0.7625,,,,,,,,
,,,,,,,,,,,3579,001,2023-11-07_16h00.22.268,vowel_harmony,2023.2.3,Win32,59.95922773,539.2512,540.2502,,,,,,,,,,,,,,,,,,,,,,,,,,540.2503,540.8169,m,1,540.817,540.8171,,0,208,208,11,1,12,umut,1988,90.3268,1818,0.1987,4,harmonic,1.55,word,m,0.5479,,,,,,,,
,,,,,,,,,,,3579,001,2023-11-07_16h00.22.268,vowel_harmony,2023.2.3,Win32,59.95922773,540.8174,541.8164,,,,,,,,,,,,,,,,,,,,,,,,,,541.8164,542.3162,m,1,542.3163,542.3164,,0,209,209,100,1,101,düşman,1065,48.3894,962,0.1052,6,notharmonic,1.85,word,m,0.4856,,,,,,,,
,,,,,,,,,,,3579,001,2023-11-07_16h00.22.268,vowel_harmony,2023.2.3,Win32,59.95922773,542.3168,543.3158,,,,,,,,,,,,,,,,,,,,,,,,,,543.3159,543.9654,z,1,543.9654,543.9655,,0,210,210,242,1,243,kahon,,,,,5,harmonic,1.85,nw,z,0.6289,,,,,,,,
,,,,,,,,,,,3579,001,2023-11-07_16h00.22.268,vowel_harmony,2023.2.3,Win32,59.95922773,543.9659,544.965,,,,,,,,,,,,,,,,,,,,,,,,,,544.9651,545.981,m,1,545.981,545.9811,,0,211,211,85,1,86,geçmiş,4195,190.6042,4039,0.4415,6,harmonic,1.55,word,m,1.0014,,,,,,,,
,,,,,,,,,,,3579,001,2023-11-07_16h00.22.268,vowel_harmony,2023.2.3,Win32,59.95922773,545.9815,546.9805,,,,,,,,,,,,,,,,,,,,,,,,,,546.9806,547.797,z,1,547.797,547.7971,,0,212,212,220,1,221,denbi,,,,,5,harmonic,1.75,nw,z,0.804,,,,,,,,
,,,,,,,,,,,3579,001,2023-11-07_16h00.22.268,vowel_harmony,2023.2.3,Win32,59.95922773,547.7975,548.7966,,,,,,,,,,,,,,,,,,,,,,,,,,548.7966,549.4961,z,1,549.4962,549.4962,,0,213,213,301,1,302,mezak,,,,,5,notharmonic,1.8,nw,z,0.6902,,,,,,,,
,,,,,,,,,,,3579,001,2023-11-07_16h00.22.268,vowel_harmony,2023.2.3,Win32,59.95922773,549.4964,550.4955,,,,,,,,,,,,,,,,,,,,,,,,,,550.4955,551.0789,z,1,551.079,551.0791,,0,214,214,234,1,235,düzöt,,,,,5,harmonic,2.05,nw,z,0.5702,,,,,,,,
,,,,,,,,,,,3579,001,2023-11-07_16h00.22.268,vowel_harmony,2023.2.3,Win32,59.95922773,551.0794,552.0782,,,,,,,,,,,,,,,,,,,,,,,,,,552.0782,552.6615,z,1,552.6616,552.6617,,0,215,215,255,1,256,yokın,,,,,5,harmonic,1.85,nw,z,0.5704,,,,,,,,
,,,,,,,,,,,3579,001,2023-11-07_16h00.22.268,vowel_harmony,2023.2.3,Win32,59.95922773,552.662,553.661,,,,,,,,,,,,,,,,,,,,,,,,,,553.661,554.2273,m,1,554.2273,554.2274,,0,216,216,167,1,168,adalet,1611,73.1975,1388,0.1517,6,notharmonic,1.65,word,m,0.5526,,,,,,,,
,,,,,,,,,,,3579,001,2023-11-07_16h00.22.268,vowel_harmony,2023.2.3,Win32,59.95922773,554.2276,555.2267,,,,,,,,,,,,,,,,,,,,,,,,,,555.2267,556.243,m,0,556.243,556.2431,,0,217,217,318,1,319,yorgün,,,,,6,notharmonic,1.9,nw,z,1.0043,,,,,,,,
,,,,,,,,,,,3579,001,2023-11-07_16h00.22.268,vowel_harmony,2023.2.3,Win32,59.95922773,556.2433,557.2429,,,,,,,,,,,,,,,,,,,,,,,,,,557.2429,558.0255,z,1,558.0255,558.0256,,0,218,218,342,1,343,kulön,,,,,5,notharmonic,1.9,nw,z,0.7716,,,,,,,,
,,,,,,,,,,,3579,001,2023-11-07_16h00.22.268,vowel_harmony,2023.2.3,Win32,59.95922773,558.0258,559.0253,,,,,,,,,,,,,,,,,,,,,,,,,,559.0253,559.6414,m,1,559.6414,559.6415,,0,219,219,72,1,73,çorba,1674,76.0599,1513,0.1654,5,harmonic,1.75,word,m,0.6058,,,,,,,,
,,,,,,,,,,,3579,001,2023-11-07_16h00.22.268,vowel_harmony,2023.2.3,Win32,59.95922773,559.642,560.6412,,,,,,,,,,,,,,,,,,,,,,,,,,560.6412,561.2076,m,1,561.2077,561.2078,,0,220,220,146,1,147,mavi,2206,100.2319,1934,0.2114,4,notharmonic,1.45,word,m,0.5451,,,,,,,,
,,,,,,,,,,,3579,001,2023-11-07_16h00.22.268,vowel_harmony,2023.2.3,Win32,59.95922773,561.2081,562.2072,,,,,,,,,,,,,,,,,,,,,,,,,,562.2072,562.8904,z,1,562.8905,562.8905,,0,221,221,237,1,238,taşal,,,,,5,harmonic,1.8,nw,z,0.6742,,,,,,,,
,,,,,,,,,,,3579,001,2023-11-07_16h00.22.268,vowel_harmony,2023.2.3,Win32,59.95922773,562.8909,563.8899,,,,,,,,,,,,,,,,,,,,,,,,,,563.8899,564.5893,z,1,564.5894,564.5894,,0,222,222,210,1,211,şevci,,,,,5,harmonic,1.75,nw,z,0.6792,,,,,,,,
,,,,,,,,,,,3579,001,2023-11-07_16h00.22.268,vowel_harmony,2023.2.3,Win32,59.95922773,564.5898,565.5891,,,,,,,,,,,,,,,,,,,,,,,,,,565.5891,566.1386,m,1,566.1386,566.1387,,0,223,223,178,1,179,dikkat,6230,283.0665,5888,0.6437,6,notharmonic,2.05,word,m,0.5286,,,,,,,,
,,,,,,,,,,,3579,001,2023-11-07_16h00.22.268,vowel_harmony,2023.2.3,Win32,59.95922773,566.139,567.1383,,,,,,,,,,,,,,,,,,,,,,,,,,567.1384,567.6381,m,1,567.6382,567.6382,,0,224,224,128,1,129,tatil,2152,97.7783,1865,0.2039,5,notharmonic,1.7,word,m,0.4819,,,,,,,,
,,,,,,,,,,,3579,001,2023-11-07_16h00.22.268,vowel_harmony,2023.2.3,Win32,59.95922773,567.6385,568.6376,,,,,,,,,,,,,,,,,,,,,,,,,,568.6377,569.387,z,1,569.3871,569.3872,,0,225,225,338,1,339,pardön,,,,,6,notharmonic,1.95,nw,z,0.7374,,,,,,,,
,,,,,,,,,,,3579,001,2023-11-07_16h00.22.268,vowel_harmony,2023.2.3,Win32,59.95922773,569.3874,570.3868,,,,,,,,,,,,,,,,,,,,,,,,,,570.3869,571.4527,m,1,571.4528,571.4528,,0,226,226,163,1,164,limon,1658,75.3329,1481,0.1619,5,notharmonic,1.75,word,m,1.0472,,,,,,,,
,,,,,,,,,,,3579,001,2023-11-07_16h00.22.268,vowel_harmony,2023.2.3,Win32,59.95922773,571.4531,572.4522,,,,,,,,,,,,,,,,,,,,,,,,,,572.4523,573.1521,z,1,573.1521,573.1522,,0,227,227,249,1,250,hurıt,,,,,5,harmonic,1.95,nw,z,0.6822,,,,,,,,
,,,,,,,,,,,3579,001,2023-11-07_16h00.22.268,vowel_harmony,2023.2.3,Win32,59.95922773,573.1525,574.1515,,,,,,,,,,,,,,,,,,,,,,,,,,574.1516,574.7347,m,1,574.7347,574.7347,,0,228,228,154,1,155,sakin,1855,84.2838,1635,0.1787,5,notharmonic,1.05,word,m,0.5617,,,,,,,,
,,,,,,,,,,,3579,001,2023-11-07_16h00.22.268,vowel_harmony,2023.2.3,Win32,59.95922773,574.7352,575.7342,,,,,,,,,,,,,,,,,,,,,,,,,,575.7342,576.4839,z,1,576.4839,576.484,,0,229,229,300,1,301,nilgi,,,,,5,notharmonic,1.85,nw,z,0.7337,,,,,,,,
,,,,,,,,,,,3579,001,2023-11-07_16h00.22.268,vowel_harmony,2023.2.3,Win32,59.95922773,576.4843,577.4834,,,,,,,,,,,,,,,,,,,,,,,,,,577.4834,577.9498,m,1,577.9498,577.9499,,0,230,230,111,1,112,kahve,2634,119.6785,2283,0.2496,5,notharmonic,1.85,word,m,0.4515,,,,,,,,
,,,,,,,,,,,3579,001,2023-11-07_16h00.22.268,vowel_harmony,2023.2.3,Win32,59.95922773,577.9503,578.9494,,,,,,,,,,,,,,,,,,,,,,,,,,578.9494,579.6158,z,1,579.6159,579.6159,,0,231,231,350,1,351,resun,,,,,5,notharmonic,1.85,nw,z,0.6573,,,,,,,,
,,,,,,,,,,,3579,001,2023-11-07_16h00.22.268,vowel_harmony,2023.2.3,Win32,59.95922773,579.6163,580.6156,,,,,,,,,,,,,,,,,,,,,,,,,,580.6156,581.3651,z,1,581.3651,581.3651,,0,232,232,294,1,295,mesap,,,,,5,notharmonic,1.8,nw,z,0.7284,,,,,,,,
,,,,,,,,,,,3579,001,2023-11-07_16h00.22.268,vowel_harmony,2023.2.3,Win32,59.95922773,581.3655,582.3644,,,,,,,,,,,,,,,,,,,,,,,,,,582.3644,582.9145,z,1,582.9145,582.9146,,0,233,233,207,1,208,örtre,,,,,5,harmonic,1.85,nw,z,0.5377,,,,,,,,
,,,,,,,,,,,3579,001,2023-11-07_16h00.22.268,vowel_harmony,2023.2.3,Win32,59.95922773,582.915,583.9141,,,,,,,,,,,,,,,,,,,,,,,,,,583.9141,584.5968,z,1,584.5969,584.597,,0,234,234,336,1,337,diyam,,,,,5,notharmonic,1.85,nw,z,0.6622,,,,,,,,
,,,,,,,,,,,3579,001,2023-11-07_16h00.22.268,vowel_harmony,2023.2.3,Win32,59.95922773,584.5973,585.5966,,,,,,,,,,,,,,,,,,,,,,,,,,585.5966,586.1129,m,1,586.1131,586.1131,,0,235,235,13,1,14,nokta,2085,94.7341,1939,0.212,5,harmonic,1.5,word,m,0.5061,,,,,,,,
,,,,,,,,,,,3579,001,2023-11-07_16h00.22.268,vowel_harmony,2023.2.3,Win32,59.95922773,586.1134,587.1125,,,,,,,,,,,,,,,,,,,,,,,,,,587.1125,587.9622,z,1,587.9622,587.9622,,0,236,236,251,1,252,oştay,,,,,5,harmonic,1.95,nw,z,0.8356,,,,,,,,
,,,,,,,,,,,3579,001,2023-11-07_16h00.22.268,vowel_harmony,2023.2.3,Win32,59.95922773,587.9625,588.9616,,,,,,,,,,,,,,,,,,,,,,,,,,588.9617,589.4445,m,1,589.4446,589.4446,,0,237,237,37,1,38,hayvan,2363,107.3653,1894,0.2071,6,harmonic,1.5,word,m,0.4627,,,,,,,,
,,,,,,,,,,,3579,001,2023-11-07_16h00.22.268,vowel_harmony,2023.2.3,Win32,59.95922773,589.4449,590.4444,,,,,,,,,,,,,,,,,,,,,,,,,,590.4444,591.1439,z,1,591.144,591.144,,0,238,238,195,1,196,netüm,,,,,5,harmonic,1.95,nw,z,0.6896,,,,,,,,
,,,,,,,,,,,3579,001,2023-11-07_16h00.22.268,vowel_harmony,2023.2.3,Win32,59.95922773,591.1444,592.1433,,,,,,,,,,,,,,,,,,,,,,,,,,592.1433,592.7767,m,1,592.7767,592.7768,,0,239,239,115,1,116,saniye,1088,49.4344,984,0.1076,6,notharmonic,1.35,word,m,0.6149,,,,,,,,
,,,,,,,,,,,3579,001,2023-11-07_16h00.22.268,vowel_harmony,2023.2.3,Win32,59.95922773,592.7771,593.7761,,,,,,,,,,,,,,,,,,,,,,,,,,593.7761,594.3926,m,1,594.3927,634.6243,space,0,240,240,32,1,33,temel,4231,192.2399,3851,0.421,5,harmonic,1.55,word,m,0.5988,,40.2199,,,,,,
,,,,,,,,,,,3579,001,2023-11-07_16h00.22.268,vowel_harmony,2023.2.3,Win32,59.95922773,634.6348,635.6238,,,,,,,,,,,,,,,,,,,,,,,,,,635.6238,637.6231,,0,637.6231,637.6231,,0,241,241,175,1,176,aile,3655,166.0687,3126,0.3417,4,notharmonic,1,word,m,,,,,,,,,
,,,,,,,,,,,3579,001,2023-11-07_16h00.22.268,vowel_harmony,2023.2.3,Win32,59.95922773,637.6235,638.6225,,,,,,,,,,,,,,,,,,,,,,,,,,638.6225,639.2555,z,1,639.2556,639.2557,,0,242,242,283,1,284,fahe,,,,,4,notharmonic,1.95,nw,z,0.6144,,,,,,,,
,,,,,,,,,,,3579,001,2023-11-07_16h00.22.268,vowel_harmony,2023.2.3,Win32,59.95922773,639.256,640.2551,,,,,,,,,,,,,,,,,,,,,,,,,,640.2551,640.6883,m,1,640.6883,640.6883,,0,243,243,159,1,160,vakit,3476,157.9357,3298,0.3605,5,notharmonic,1.65,word,m,0.4182,,,,,,,,
,,,,,,,,,,,3579,001,2023-11-07_16h00.22.268,vowel_harmony,2023.2.3,Win32,59.95922773,640.6887,641.6876,,,,,,,,,,,,,,,,,,,,,,,,,,641.6876,642.1876,m,1,642.1877,642.1878,,0,244,244,58,1,59,ayak,2143,97.3694,1931,0.2111,4,harmonic,1,word,m,0.482,,,,,,,,
,,,,,,,,,,,3579,001,2023-11-07_16h00.22.268,vowel_harmony,2023.2.3,Win32,59.95922773,642.1881,643.187,,,,,,,,,,,,,,,,,,,,,,,,,,643.187,643.6367,m,1,643.6367,643.6368,,0,245,245,173,1,174,sade,1193,54.2052,1114,0.1218,4,notharmonic,1.55,word,m,0.4317,,,,,,,,
,,,,,,,,,,,3579,001,2023-11-07_16h00.22.268,vowel_harmony,2023.2.3,Win32,59.95922773,643.6371,644.6364,,,,,,,,,,,,,,,,,,,,,,,,,,644.6364,645.536,z,1,645.5361,645.5361,,0,246,246,304,1,305,annö,,,,,4,notharmonic,1.95,nw,z,0.8826,,,,,,,,
,,,,,,,,,,,3579,001,2023-11-07_16h00.22.268,vowel_harmony,2023.2.3,Win32,59.95922773,645.5365,646.5353,,,,,,,,,,,,,,,,,,,,,,,,,,646.5354,647.0687,m,1,647.0687,647.0688,,0,247,247,126,1,127,adet,4367,198.4192,3768,0.4119,4,notharmonic,1.4,word,m,0.5152,,,,,,,,
,,,,,,,,,,,3579,001,2023-11-07_16h00.22.268,vowel_harmony,2023.2.3,Win32,59.95922773,647.0691,648.0679,,,,,,,,,,,,,,,,,,,,,,,,,,648.0679,648.5511,m,0,648.5512,648.5512,,0,248,248,238,1,239,kocı,,,,,4,harmonic,1.95,nw,z,0.4735,,,,,,,,
,,,,,,,,,,,3579,001,2023-11-07_16h00.22.268,vowel_harmony,2023.2.3,Win32,59.95922773,648.5516,649.5508,,,,,,,,,,,,,,,,,,,,,,,,,,649.5508,650.2505,z,1,650.2505,650.2506,,0,249,249,257,1,258,zerü,,,,,4,harmonic,1.8,nw,z,0.6811,,,,,,,,
,,,,,,,,,,,3579,001,2023-11-07_16h00.22.268,vowel_harmony,2023.2.3,Win32,59.95922773,650.2509,651.2498,,,,,,,,,,,,,,,,,,,,,,,,,,651.2499,651.8665,m,1,651.8666,651.8666,,0,250,250,156,1,157,medya,1784,81.0579,1495,0.1634,5,notharmonic,1.35,word,m,0.5982,,,,,,,,
,,,,,,,,,,,3579,001,2023-11-07_16h00.22.268,vowel_harmony,2023.2.3,Win32,59.95922773,651.867,652.8658,,,,,,,,,,,,,,,,,,,,,,,,,,652.8658,653.4157,m,0,653.4157,653.4158,,0,251,251,299,1,300,fihal,,,,,5,notharmonic,1.95,nw,z,0.5314,,,,,,,,
,,,,,,,,,,,3579,001,2023-11-07_16h00.22.268,vowel_harmony,2023.2.3,Win32,59.95922773,653.4161,654.4153,,,,,,,,,,,,,,,,,,,,,,,,,,654.4153,654.9481,m,1,654.9482,654.9483,,0,252,252,155,1,156,ilaç,1366,62.0656,1215,0.1328,4,notharmonic,1.75,word,m,0.5184,,,,,,,,
,,,,,,,,,,,3579,001,2023-11-07_16h00.22.268,vowel_harmony,2023.2.3,Win32,59.95922773,654.9486,655.948,,,,,,,,,,,,,,,,,,,,,,,,,,655.948,656.6307,m,1,656.6308,656.6308,,0,253,253,47,1,48,kaza,740,33.6227,679,0.0742,4,harmonic,1.85,word,m,0.6618,,,,,,,,
,,,,,,,,,,,3579,001,2023-11-07_16h00.22.268,vowel_harmony,2023.2.3,Win32,59.95922773,656.6311,657.6305,,,,,,,,,,,,,,,,,,,,,,,,,,657.6305,658.4135,z,1,658.4136,658.4136,,0,254,254,352,1,353,yılden,,,,,6,notharmonic,1.8,nw,z,0.7718,,,,,,,,
,,,,,,,,,,,3579,001,2023-11-07_16h00.22.268,vowel_harmony,2023.2.3,Win32,59.95922773,658.414,659.4131,,,,,,,,,,,,,,,,,,,,,,,,,,659.4131,659.9461,m,1,659.9461,659.9462,,0,255,255,3,1,4,minik,2916,132.4915,2594,0.2836,5,harmonic,1.6,word,m,0.5221,,,,,,,,
,,,,,,,,,,,3579,001,2023-11-07_16h00.22.268,vowel_harmony,2023.2.3,Win32,59.95922773,659.9465,660.9455,,,,,,,,,,,,,,,,,,,,,,,,,,660.9455,661.6287,z,1,661.6288,661.6289,,0,256,256,332,1,333,tahane,,,,,6,notharmonic,1.85,nw,z,0.6654,,,,,,,,
,,,,,,,,,,,3579,001,2023-11-07_16h00.22.268,vowel_harmony,2023.2.3,Win32,59.95922773,661.6292,662.6283,,,,,,,,,,,,,,,,,,,,,,,,,,662.6283,663.2112,m,1,663.2113,663.2113,,0,257,257,33,1,34,moda,1381,62.7472,1231,0.1346,4,harmonic,1.55,word,m,0.5701,,,,,,,,
,,,,,,,,,,,3579,001,2023-11-07_16h00.22.268,vowel_harmony,2023.2.3,Win32,59.95922773,663.2116,664.2105,,,,,,,,,,,,,,,,,,,,,,,,,,664.2106,664.7606,m,1,664.7606,664.7607,,0,258,258,108,1,109,tarih,2806,127.4935,2483,0.2714,5,notharmonic,1.55,word,m,0.5393,,,,,,,,
,,,,,,,,,,,3579,001,2023-11-07_16h00.22.268,vowel_harmony,2023.2.3,Win32,59.95922773,664.761,665.7601,,,,,,,,,,,,,,,,,,,,,,,,,,665.7601,666.2432,m,1,666.2433,666.2434,,0,259,259,116,1,117,daire,621,28.2158,503,0.055,5,notharmonic,1,word,m,0.4674,,,,,,,,
,,,,,,,,,,,3579,001,2023-11-07_16h00.22.268,vowel_harmony,2023.2.3,Win32,59.95922773,666.2437,667.2425,,,,,,,,,,,,,,,,,,,,,,,,,,667.2425,667.7423,m,1,667.7424,667.7424,,0,260,260,10,1,11,bardak,1728,78.5135,1569,0.1715,6,harmonic,1.6,word,m,0.4868,,,,,,,,
,,,,,,,,,,,3579,001,2023-11-07_16h00.22.268,vowel_harmony,2023.2.3,Win32,59.95922773,667.7427,668.7422,,,,,,,,,,,,,,,,,,,,,,,,,,668.7422,669.4082,z,1,669.4083,669.4084,,0,261,261,308,1,309,hafer,,,,,5,notharmonic,1.85,nw,z,0.6497,,,,,,,,
,,,,,,,,,,,3579,001,2023-11-07_16h00.22.268,vowel_harmony,2023.2.3,Win32,59.95922773,669.4087,670.4076,,,,,,,,,,,,,,,,,,,,,,,,,,670.4077,670.941,m,1,670.9411,670.9411,,0,262,262,79,1,80,durum,6783,308.1926,6431,0.703,5,harmonic,1.7,word,m,0.5174,,,,,,,,
,,,,,,,,,,,3579,001,2023-11-07_16h00.22.268,vowel_harmony,2023.2.3,Win32,59.95922773,670.9414,671.9406,,,,,,,,,,,,,,,,,,,,,,,,,,671.9407,672.5735,m,1,672.5735,672.5736,,0,263,263,142,1,143,siyasi,2909,132.1734,2445,0.2673,6,notharmonic,1.8,word,m,0.6124,,,,,,,,
,,,,,,,,,,,3579,001,2023-11-07_16h00.22.268,vowel_harmony,2023.2.3,Win32,59.95922773,672.5739,673.5732,,,,,,,,,,,,,,,,,,,,,,,,,,673.5733,674.0396,m,1,674.0396,674.0397,,0,264,264,95,1,96,takip,4996,226.9984,4651,0.5084,5,notharmonic,1.55,word,m,0.4561,,,,,,,,
,,,,,,,,,,,3579,001,2023-11-07_16h00.22.268,vowel_harmony,2023.2.3,Win32,59.95922773,674.04,675.0394,,,,,,,,,,,,,,,,,,,,,,,,,,675.0394,675.7723,z,1,675.7723,675.7725,,0,265,265,194,1,195,rayna,,,,,5,harmonic,1.7,nw,z,0.716,,,,,,,,
,,,,,,,,,,,3579,001,2023-11-07_16h00.22.268,vowel_harmony,2023.2.3,Win32,59.95922773,675.7728,676.7715,,,,,,,,,,,,,,,,,,,,,,,,,,676.7716,677.4212,z,1,677.4213,677.4214,,0,266,266,311,1,312,dedya,,,,,5,notharmonic,1.9,nw,z,0.6311,,,,,,,,
,,,,,,,,,,,3579,001,2023-11-07_16h00.22.268,vowel_harmony,2023.2.3,Win32,59.95922773,677.4217,678.4209,,,,,,,,,,,,,,,,,,,,,,,,,,678.4209,678.9541,m,1,678.9542,678.9544,,0,267,267,157,1,158,aktif,1062,48.2531,986,0.1078,5,notharmonic,1.9,word,m,0.5245,,,,,,,,
,,,,,,,,,,,3579,001,2023-11-07_16h00.22.268,vowel_harmony,2023.2.3,Win32,59.95922773,678.9547,679.9535,,,,,,,,,,,,,,,,,,,,,,,,,,679.9535,680.6864,m,0,680.6864,680.6865,,0,268,268,357,1,358,işarek,,,,,6,notharmonic,1.95,nw,z,0.7122,,,,,,,,
,,,,,,,,,,,3579,001,2023-11-07_16h00.22.268,vowel_harmony,2023.2.3,Win32,59.95922773,680.6868,681.6862,,,,,,,,,,,,,,,,,,,,,,,,,,681.6862,682.4025,z,1,682.4026,682.4026,,0,269,269,180,1,181,ayaro,,,,,5,harmonic,1.8,nw,z,0.706,,,,,,,,
,,,,,,,,,,,3579,001,2023-11-07_16h00.22.268,vowel_harmony,2023.2.3,Win32,59.95922773,682.403,683.4021,,,,,,,,,,,,,,,,,,,,,,,,,,683.4021,684.2017,z,1,684.2018,684.2018,,0,270,270,229,1,230,tonam,,,,,5,harmonic,1.8,nw,z,0.7834,,,,,,,,
,,,,,,,,,,,3579,001,2023-11-07_16h00.22.268,vowel_harmony,2023.2.3,Win32,59.95922773,684.2021,685.2012,,,,,,,,,,,,,,,,,,,,,,,,,,685.2012,685.8008,m,1,685.8008,685.8009,,0,271,271,34,1,35,hoca,1893,86.0104,1526,0.1668,4,harmonic,1.45,word,m,0.5817,,,,,,,,
,,,,,,,,,,,3579,001,2023-11-07_16h00.22.268,vowel_harmony,2023.2.3,Win32,59.95922773,685.8011,686.8008,,,,,,,,,,,,,,,,,,,,,,,,,,686.8008,687.4002,m,1,687.4002,687.4003,,0,272,272,121,1,122,mesaj,1604,72.8794,1386,0.1515,5,notharmonic,1.8,word,m,0.5806,,,,,,,,
,,,,,,,,,,,3579,001,2023-11-07_16h00.22.268,vowel_harmony,2023.2.3,Win32,59.95922773,687.4006,688.3996,,,,,,,,,,,,,,,,,,,,,,,,,,688.3996,689.0493,z,1,689.0493,689.0494,,0,273,273,278,1,279,sekon,,,,,5,notharmonic,1.85,nw,z,0.6355,,,,,,,,
,,,,,,,,,,,3579,001,2023-11-07_16h00.22.268,vowel_harmony,2023.2.3,Win32,59.95922773,689.0498,690.0491,,,,,,,,,,,,,,,,,,,,,,,,,,690.0491,690.6818,z,1,690.6819,690.682,,0,274,274,222,1,223,gelü,,,,,4,harmonic,1.75,nw,z,0.6231,,,,,,,,
,,,,,,,,,,,3579,001,2023-11-07_16h00.22.268,vowel_harmony,2023.2.3,Win32,59.95922773,690.6822,691.6816,,,,,,,,,,,,,,,,,,,,,,,,,,691.6817,692.2148,z,1,692.2148,692.2149,,0,275,275,227,1,228,zekö,,,,,4,harmonic,1.9,nw,z,0.5148,,,,,,,,
,,,,,,,,,,,3579,001,2023-11-07_16h00.22.268,vowel_harmony,2023.2.3,Win32,59.95922773,692.2152,693.214,,,,,,,,,,,,,,,,,,,,,,,,,,693.214,693.797,m,1,693.7971,693.7972,,0,276,276,40,1,41,tepki,1695,77.0141,1578,0.1725,5,harmonic,1.55,word,m,0.5646,,,,,,,,
,,,,,,,,,,,3579,001,2023-11-07_16h00.22.268,vowel_harmony,2023.2.3,Win32,59.95922773,693.7975,694.7967,,,,,,,,,,,,,,,,,,,,,,,,,,694.7968,695.5798,z,1,695.5799,695.58,,0,277,277,325,1,326,garit,,,,,5,notharmonic,1.85,nw,z,0.7646,,,,,,,,
,,,,,,,,,,,3579,001,2023-11-07_16h00.22.268,vowel_harmony,2023.2.3,Win32,59.95922773,695.5804,696.5796,,,,,,,,,,,,,,,,,,,,,,,,,,696.5796,697.0791,m,1,697.0791,697.0792,,0,278,278,153,1,154,inşaat,432,19.6284,376,0.0411,6,notharmonic,1.6,word,m,0.4845,,,,,,,,
,,,,,,,,,,,3579,001,2023-11-07_16h00.22.268,vowel_harmony,2023.2.3,Win32,59.95922773,697.0795,698.0788,,,,,,,,,,,,,,,,,,,,,,,,,,698.0789,698.7617,z,1,698.7617,698.7619,,0,279,279,202,1,203,güvin,,,,,5,harmonic,1.95,nw,z,0.6701,,,,,,,,
,,,,,,,,,,,3579,001,2023-11-07_16h00.22.268,vowel_harmony,2023.2.3,Win32,59.95922773,698.7621,699.7612,,,,,,,,,,,,,,,,,,,,,,,,,,699.7613,700.2445,m,1,700.2446,700.2447,,0,280,280,28,1,29,parlak,1142,51.888,1088,0.1189,6,harmonic,1.7,word,m,0.4711,,,,,,,,
,,,,,,,,,,,3579,001,2023-11-07_16h00.22.268,vowel_harmony,2023.2.3,Win32,59.95922773,700.2449,701.244,,,,,,,,,,,,,,,,,,,,,,,,,,701.2441,701.7938,m,1,701.7939,701.7939,,0,281,281,102,1,103,esas,1965,89.2818,1795,0.1962,4,notharmonic,1.75,word,m,0.529,,,,,,,,
,,,,,,,,,,,3579,001,2023-11-07_16h00.22.268,vowel_harmony,2023.2.3,Win32,59.95922773,701.7943,702.7935,,,,,,,,,,,,,,,,,,,,,,,,,,702.7935,703.3761,z,1,703.3762,703.3762,,0,282,282,298,1,299,yelsın,,,,,6,notharmonic,1.95,nw,z,0.5727,,,,,,,,
,,,,,,,,,,,3579,001,2023-11-07_16h00.22.268,vowel_harmony,2023.2.3,Win32,59.95922773,703.3765,704.376,,,,,,,,,,,,,,,,,,,,,,,,,,704.376,704.9256,m,1,704.9257,704.9258,,0,283,283,63,1,64,sultan,1756,79.7857,1368,0.1496,6,harmonic,1.55,word,m,0.5364,,,,,,,,
,,,,,,,,,,,3579,001,2023-11-07_16h00.22.268,vowel_harmony,2023.2.3,Win32,59.95922773,704.9261,705.9252,,,,,,,,,,,,,,,,,,,,,,,,,,705.9252,706.4248,m,1,706.4248,706.4248,,0,284,284,38,1,39,dönem,2820,128.1296,2437,0.2664,5,harmonic,1.4,word,m,0.4873,,,,,,,,
,,,,,,,,,,,3579,001,2023-11-07_16h00.22.268,vowel_harmony,2023.2.3,Win32,59.95922773,706.4251,707.4246,,,,,,,,,,,,,,,,,,,,,,,,,,707.4246,708.0741,z,1,708.0741,708.0742,,0,285,285,236,1,237,toklam,,,,,6,harmonic,1.85,nw,z,0.6401,,,,,,,,
,,,,,,,,,,,3579,001,2023-11-07_16h00.22.268,vowel_harmony,2023.2.3,Win32,59.95922773,708.0746,709.0738,,,,,,,,,,,,,,,,,,,,,,,,,,709.0739,709.5569,m,0,709.5569,709.5571,,0,286,286,344,1,345,barika,,,,,6,notharmonic,1.75,nw,z,0.4677,,,,,,,,
,,,,,,,,,,,3579,001,2023-11-07_16h00.22.268,vowel_harmony,2023.2.3,Win32,59.95922773,709.5574,710.5565,,,,,,,,,,,,,,,,,,,,,,,,,,710.5565,711.5061,z,1,711.5061,711.5062,,0,287,287,292,1,293,kinam,,,,,5,notharmonic,1.85,nw,z,0.9373,,,,,,,,
,,,,,,,,,,,3579,001,2023-11-07_16h00.22.268,vowel_harmony,2023.2.3,Win32,59.95922773,711.5064,712.5056,,,,,,,,,,,,,,,,,,,,,,,,,,712.5056,713.139,z,1,713.139,713.1391,,0,288,288,306,1,307,otet,,,,,4,notharmonic,1.95,nw,z,0.6245,,,,,,,,
,,,,,,,,,,,3579,001,2023-11-07_16h00.22.268,vowel_harmony,2023.2.3,Win32,59.95922773,713.1401,714.138,,,,,,,,,,,,,,,,,,,,,,,,,,714.138,714.6211,m,1,714.6211,714.6212,,0,289,289,133,1,134,taze,2268,103.0489,2062,0.2254,4,notharmonic,1.65,word,m,0.4651,,,,,,,,
,,,,,,,,,,,3579,001,2023-11-07_16h00.22.268,vowel_harmony,2023.2.3,Win32,59.95922773,714.6215,715.6208,,,,,,,,,,,,,,,,,,,,,,,,,,715.6208,716.4202,z,1,716.4202,716.4203,,0,290,290,263,1,264,duzur,,,,,5,harmonic,1.8,nw,z,0.7861,,,,,,,,
,,,,,,,,,,,3579,001,2023-11-07_16h00.22.268,vowel_harmony,2023.2.3,Win32,59.95922773,716.4205,717.4199,,,,,,,,,,,,,,,,,,,,,,,,,,717.4199,718.0528,z,1,718.0528,718.0529,,0,291,291,203,1,204,döves,,,,,5,harmonic,1.8,nw,z,0.6147,,,,,,,,
,,,,,,,,,,,3579,001,2023-11-07_16h00.22.268,vowel_harmony,2023.2.3,Win32,59.95922773,718.0534,719.0527,,,,,,,,,,,,,,,,,,,,,,,,,,719.0527,719.469,z,0,719.469,719.4692,,0,292,292,150,1,151,sabit,1046,47.5261,915,0.1,5,notharmonic,1.75,word,m,0.3992,,,,,,,,
,,,,,,,,,,,3579,001,2023-11-07_16h00.22.268,vowel_harmony,2023.2.3,Win32,59.95922773,719.4695,720.4684,,,,,,,,,,,,,,,,,,,,,,,,,,720.4685,721.0014,m,1,721.0015,721.0016,,0,293,293,118,1,119,meşhur,1092,49.6161,1057,0.1156,6,notharmonic,1.9,word,m,0.5143,,,,,,,,
,,,,,,,,,,,3579,001,2023-11-07_16h00.22.268,vowel_harmony,2023.2.3,Win32,59.95922773,721.0019,722.0011,,,,,,,,,,,,,,,,,,,,,,,,,,722.0011,722.551,m,1,722.5511,722.5512,,0,294,294,46,1,47,takım,4370,198.5555,3726,0.4073,5,harmonic,1.7,word,m,0.5389,,,,,,,,
,,,,,,,,,,,3579,001,2023-11-07_16h00.22.268,vowel_harmony,2023.2.3,Win32,59.95922773,722.5515,723.5504,,,,,,,,,,,,,,,,,,,,,,,,,,723.5505,724.1836,z,1,724.1836,724.1837,,0,295,295,231,1,232,norgun,,,,,6,harmonic,1.75,nw,z,0.6221,,,,,,,,
,,,,,,,,,,,3579,001,2023-11-07_16h00.22.268,vowel_harmony,2023.2.3,Win32,59.95922773,724.184,725.183,,,,,,,,,,,,,,,,,,,,,,,,,,725.183,725.6994,m,1,725.6994,725.6995,,0,296,296,76,1,77,ilişki,1675,76.1054,1524,0.1666,6,harmonic,1.8,word,m,0.5069,,,,,,,,
,,,,,,,,,,,3579,001,2023-11-07_16h00.22.268,vowel_harmony,2023.2.3,Win32,59.95922773,725.6999,726.6991,,,,,,,,,,,,,,,,,,,,,,,,,,726.6992,727.1653,m,1,727.1653,727.1654,,0,297,297,99,1,100,ilave,3173,144.1685,2619,0.2863,5,notharmonic,1.85,word,m,0.4505,,,,,,,,
,,,,,,,,,,,3579,001,2023-11-07_16h00.22.268,vowel_harmony,2023.2.3,Win32,59.95922773,727.1657,728.1652,,,,,,,,,,,,,,,,,,,,,,,,,,728.1652,728.7483,z,1,728.7483,728.7483,,0,298,298,353,1,354,ikno,,,,,4,notharmonic,1.95,nw,z,0.5676,,,,,,,,
,,,,,,,,,,,3579,001,2023-11-07_16h00.22.268,vowel_harmony,2023.2.3,Win32,59.95922773,728.7487,729.7478,,,,,,,,,,,,,,,,,,,,,,,,,,729.7478,730.4305,z,1,730.4306,730.4307,,0,299,299,192,1,193,vecö,,,,,4,harmonic,1.95,nw,z,0.671,,,,,,,,
,,,,,,,,,,,3579,001,2023-11-07_16h00.22.268,vowel_harmony,2023.2.3,Win32,59.95922773,730.4309,731.4301,,,,,,,,,,,,,,,,,,,,,,,,,,731.4301,731.9468,m,0,731.9468,731.947,,0,300,300,316,1,317,misaf,,,,,5,notharmonic,1.85,nw,z,0.4956,,,,,,,,
,,,,,,,,,,,3579,001,2023-11-07_16h00.22.268,vowel_harmony,2023.2.3,Win32,59.95922773,731.9473,732.9465,,,,,,,,,,,,,,,,,,,,,,,,,,732.9465,733.546,z,1,733.5461,733.5462,,0,301,301,197,1,198,ranar,,,,,5,harmonic,1.75,nw,z,0.5875,,,,,,,,
,,,,,,,,,,,3579,001,2023-11-07_16h00.22.268,vowel_harmony,2023.2.3,Win32,59.95922773,733.5466,734.5456,,,,,,,,,,,,,,,,,,,,,,,,,,734.5456,735.1953,m,1,735.1953,735.1954,,0,302,302,88,1,89,yalnız,5891,267.6637,5440,0.5947,6,harmonic,1.6,word,m,0.6293,,,,,,,,
,,,,,,,,,,,3579,001,2023-11-07_16h00.22.268,vowel_harmony,2023.2.3,Win32,59.95922773,735.1958,736.1948,,,,,,,,,,,,,,,,,,,,,,,,,,736.1949,736.7277,m,1,736.7278,736.7279,,0,303,303,148,1,149,selam,1868,84.8745,1764,0.1928,5,notharmonic,1.35,word,m,0.514,,,,,,,,
,,,,,,,,,,,3579,001,2023-11-07_16h00.22.268,vowel_harmony,2023.2.3,Win32,59.95922773,736.7282,737.7276,,,,,,,,,,,,,,,,,,,,,,,,,,737.7276,738.2939,z,1,738.2939,738.294,,0,304,304,223,1,224,kakon,,,,,5,harmonic,1.85,nw,z,0.5451,,,,,,,,
,,,,,,,,,,,3579,001,2023-11-07_16h00.22.268,vowel_harmony,2023.2.3,Win32,59.95922773,738.2945,739.2935,,,,,,,,,,,,,,,,,,,,,,,,,,739.2935,740.1763,z,1,740.1763,740.1765,,0,305,305,326,1,327,ailo,,,,,4,notharmonic,1.75,nw,z,0.8723,,,,,,,,
,,,,,,,,,,,3579,001,2023-11-07_16h00.22.268,vowel_harmony,2023.2.3,Win32,59.95922773,740.1767,741.1757,,,,,,,,,,,,,,,,,,,,,,,,,,741.1757,741.6587,m,1,741.6587,741.6588,,0,306,306,149,1,150,ceza,2611,118.6335,2169,0.2371,4,notharmonic,1.5,word,m,0.467,,,,,,,,
,,,,,,,,,,,3579,001,2023-11-07_16h00.22.268,vowel_harmony,2023.2.3,Win32,59.95922773,741.6591,742.6586,,,,,,,,,,,,,,,,,,,,,,,,,,742.6586,743.3913,m,1,743.3913,743.3914,,0,307,307,81,1,82,üretim,1593,72.3796,1283,0.1403,6,harmonic,1.6,word,m,0.7234,,,,,,,,
,,,,,,,,,,,3579,001,2023-11-07_16h00.22.268,vowel_harmony,2023.2.3,Win32,59.95922773,743.3916,744.3911,,,,,,,,,,,,,,,,,,,,,,,,,,744.3911,744.9907,z,1,744.9908,744.9909,,0,308,308,243,1,244,korguf,,,,,6,harmonic,2,nw,z,0.5865,,,,,,,,
,,,,,,,,,,,3579,001,2023-11-07_16h00.22.268,vowel_harmony,2023.2.3,Win32,59.95922773,744.9912,745.9901,,,,,,,,,,,,,,,,,,,,,,,,,,745.9901,746.8566,z,1,746.8566,746.8568,,0,309,309,327,1,328,parkeş,,,,,6,notharmonic,1.9,nw,z,0.8533,,,,,,,,
,,,,,,,,,,,3579,001,2023-11-07_16h00.22.268,vowel_harmony,2023.2.3,Win32,59.95922773,746.857,747.8563,,,,,,,,,,,,,,,,,,,,,,,,,,747.8563,748.4391,m,1,748.4391,748.4392,,0,310,310,117,1,118,nasip,1069,48.5711,1042,0.1139,5,notharmonic,1.8,word,m,0.5621,,,,,,,,
,,,,,,,,,,,3579,001,2023-11-07_16h00.22.268,vowel_harmony,2023.2.3,Win32,59.95922773,748.4396,749.4386,,,,,,,,,,,,,,,,,,,,,,,,,,749.4386,749.9053,m,1,749.9053,749.9055,,0,311,311,4,1,5,metre,1156,52.5241,1015,0.111,5,harmonic,1.7,word,m,0.4532,,,,,,,,
,,,,,,,,,,,3579,001,2023-11-07_16h00.22.268,vowel_harmony,2023.2.3,Win32,59.95922773,749.9057,750.9049,,,,,,,,,,,,,,,,,,,,,,,,,,750.9049,751.3712,m,1,751.3713,751.3714,,0,312,312,93,1,94,siyah,2944,133.7637,2527,0.2763,5,notharmonic,1.6,word,m,0.4469,,,,,,,,
,,,,,,,,,,,3579,001,2023-11-07_16h00.22.268,vowel_harmony,2023.2.3,Win32,59.95922773,751.3716,752.3708,,,,,,,,,,,,,,,,,,,,,,,,,,752.3708,752.9371,z,1,752.9372,752.9372,,0,313,313,186,1,187,habık,,,,,5,harmonic,1.9,nw,z,0.5564,,,,,,,,
,,,,,,,,,,,3579,001,2023-11-07_16h00.22.268,vowel_harmony,2023.2.3,Win32,59.95922773,752.9376,753.9365,,,,,,,,,,,,,,,,,,,,,,,,,,753.9365,754.47,z,1,754.47,754.4701,,0,314,314,324,1,325,pakeh,,,,,5,notharmonic,1.9,nw,z,0.5247,,,,,,,,
,,,,,,,,,,,3579,001,2023-11-07_16h00.22.268,vowel_harmony,2023.2.3,Win32,59.95922773,754.4704,755.4694,,,,,,,,,,,,,,,,,,,,,,,,,,755.4694,756.0689,m,1,756.069,756.0691,,0,315,315,69,1,70,forma,719,32.6685,597,0.0653,5,harmonic,1.8,word,m,0.5816,,,,,,,,
,,,,,,,,,,,3579,001,2023-11-07_16h00.22.268,vowel_harmony,2023.2.3,Win32,59.95922773,756.0693,757.0686,,,,,,,,,,,,,,,,,,,,,,,,,,757.0686,757.5852,m,1,757.5852,757.5853,,0,316,316,119,1,120,kulüp,649,29.488,467,0.0511,5,notharmonic,1.4,word,m,0.5053,,,,,,,,
,,,,,,,,,,,3579,001,2023-11-07_16h00.22.268,vowel_harmony,2023.2.3,Win32,59.95922773,757.5855,758.5844,,,,,,,,,,,,,,,,,,,,,,,,,,758.5845,759.0844,m,1,759.0845,759.0846,,0,317,317,44,1,45,kayıt,1234,56.0681,1058,0.1157,5,harmonic,1.35,word,m,0.4868,,,,,,,,
,,,,,,,,,,,3579,001,2023-11-07_16h00.22.268,vowel_harmony,2023.2.3,Win32,59.95922773,759.0848,760.0839,,,,,,,,,,,,,,,,,,,,,,,,,,760.0839,760.6171,m,1,760.6171,760.6173,,0,318,318,55,1,56,akıl,2208,100.3228,2004,0.2191,4,harmonic,1,word,m,0.5207,,,,,,,,
,,,,,,,,,,,3579,001,2023-11-07_16h00.22.268,vowel_harmony,2023.2.3,Win32,59.95922773,760.6176,761.6166,,,,,,,,,,,,,,,,,,,,,,,,,,761.6167,762.1661,m,1,762.1661,762.1662,,0,319,319,25,1,26,rapor,703,31.9415,617,0.0675,5,harmonic,1.8,word,m,0.5366,,,,,,,,
,,,,,,,,,,,3579,001,2023-11-07_16h00.22.268,vowel_harmony,2023.2.3,Win32,59.95922773,762.1665,763.166,,,,,,,,,,,,,,,,,,,,,,,,,,763.166,763.6158,m,1,763.6158,763.616,,0,320,320,140,1,141,sahil,481,21.8547,443,0.0484,5,notharmonic,1.45,word,m,0.4367,,,,,,,,
,,,,,,,,,,,3579,001,2023-11-07_16h00.22.268,vowel_harmony,2023.2.3,Win32,59.95922773,763.6162,764.6152,,,,,,,,,,,,,,,,,,,,,,,,,,764.6153,765.0317,m,1,765.0317,765.0318,,0,321,321,89,1,90,etki,1234,56.0681,1169,0.1278,4,harmonic,1.4,word,m,0.4025,,,,,,,,
,,,,,,,,,,,3579,001,2023-11-07_16h00.22.268,vowel_harmony,2023.2.3,Win32,59.95922773,765.0326,766.0311,,,,,,,,,,,,,,,,,,,,,,,,,,766.0311,766.7475,z,1,766.7476,766.7476,,0,322,322,182,1,183,orsın,,,,,5,harmonic,1.95,nw,z,0.695,,,,,,,,
,,,,,,,,,,,3579,001,2023-11-07_16h00.22.268,vowel_harmony,2023.2.3,Win32,59.95922773,766.7479,767.7472,,,,,,,,,,,,,,,,,,,,,,,,,,767.7472,768.3469,m,1,768.3469,768.347,,0,323,323,110,1,111,rüya,1062,48.2531,937,0.1024,4,notharmonic,1.75,word,m,0.589,,,,,,,,
,,,,,,,,,,,3579,001,2023-11-07_16h00.22.268,vowel_harmony,2023.2.3,Win32,59.95922773,768.3473,769.3465,,,,,,,,,,,,,,,,,,,,,,,,,,769.3465,769.8627,m,1,769.8628,769.8629,,0,324,324,139,1,140,lira,1253,56.9314,947,0.1035,4,notharmonic,1.4,word,m,0.4978,,,,,,,,
,,,,,,,,,,,3579,001,2023-11-07_16h00.22.268,vowel_harmony,2023.2.3,Win32,59.95922773,769.8631,770.8624,,,,,,,,,,,,,,,,,,,,,,,,,,770.8624,771.4121,m,1,771.4122,771.4123,,0,325,325,171,1,172,reklam,1565,71.1074,1244,0.136,6,notharmonic,1.9,word,m,0.5305,,,,,,,,
,,,,,,,,,,,3579,001,2023-11-07_16h00.22.268,vowel_harmony,2023.2.3,Win32,59.95922773,771.4125,772.4115,,,,,,,,,,,,,,,,,,,,,,,,,,772.4115,773.4109,z,1,773.411,773.4111,,0,326,326,239,1,240,şekik,,,,,5,harmonic,1.7,nw,z,0.9883,,,,,,,,
,,,,,,,,,,,3579,001,2023-11-07_16h00.22.268,vowel_harmony,2023.2.3,Win32,59.95922773,773.4114,774.4109,,,,,,,,,,,,,,,,,,,,,,,,,,774.4109,775.1438,z,1,775.1438,775.144,,0,327,327,266,1,267,düştön,,,,,6,harmonic,1.9,nw,z,0.7138,,,,,,,,
,,,,,,,,,,,3579,001,2023-11-07_16h00.22.268,vowel_harmony,2023.2.3,Win32,59.95922773,775.1443,776.1434,,,,,,,,,,,,,,,,,,,,,,,,,,776.1434,776.7264,m,1,776.7264,776.7266,,0,328,328,162,1,163,hariç,1267,57.5675,1233,0.1348,5,notharmonic,1.75,word,m,0.5703,,,,,,,,
,,,,,,,,,,,3579,001,2023-11-07_16h00.22.268,vowel_harmony,2023.2.3,Win32,59.95922773,776.7269,777.726,,,,,,,,,,,,,,,,,,,,,,,,,,777.7261,778.4254,z,1,778.4254,778.4255,,0,329,329,214,1,215,vecü,,,,,4,harmonic,1.95,nw,z,0.6811,,,,,,,,
,,,,,,,,,,,3579,001,2023-11-07_16h00.22.268,vowel_harmony,2023.2.3,Win32,59.95922773,778.4258,779.4251,,,,,,,,,,,,,,,,,,,,,,,,,,779.4251,779.9915,m,1,779.9915,779.9916,,0,330,330,86,1,87,gerçek,8983,408.1519,8058,0.8809,6,harmonic,1.7,word,m,0.5477,,,,,,,,
,,,,,,,,,,,3579,001,2023-11-07_16h00.22.268,vowel_harmony,2023.2.3,Win32,59.95922773,779.9918,780.991,,,,,,,,,,,,,,,,,,,,,,,,,,780.991,781.6244,z,1,781.6244,781.6245,,0,331,331,303,1,304,fisor,,,,,5,notharmonic,1.9,nw,z,0.6201,,,,,,,,
,,,,,,,,,,,3579,001,2023-11-07_16h00.22.268,vowel_harmony,2023.2.3,Win32,59.95922773,781.6248,782.6238,,,,,,,,,,,,,,,,,,,,,,,,,,782.624,783.1735,m,1,783.1735,783.1736,,0,332,332,83,1,84,küçük,14048,638.2854,12467,1.3629,5,harmonic,1.75,word,m,0.5282,,,,,,,,
,,,,,,,,,,,3579,001,2023-11-07_16h00.22.268,vowel_harmony,2023.2.3,Win32,59.95922773,783.1739,784.1731,,,,,,,,,,,,,,,,,,,,,,,,,,784.1732,784.6896,m,1,784.6896,784.6898,,0,333,333,84,1,85,ülke,3121,141.8059,2801,0.3062,4,harmonic,1.65,word,m,0.5008,,,,,,,,
,,,,,,,,,,,3579,001,2023-11-07_16h00.22.268,vowel_harmony,2023.2.3,Win32,59.95922773,784.6904,785.6891,,,,,,,,,,,,,,,,,,,,,,,,,,785.6891,786.1721,m,1,786.1721,786.1721,,0,334,334,68,1,69,ücret,734,33.35,634,0.0693,5,harmonic,1.85,word,m,0.4702,,,,,,,,
,,,,,,,,,,,3579,001,2023-11-07_16h00.22.268,vowel_harmony,2023.2.3,Win32,59.95922773,786.1725,787.1714,,,,,,,,,,,,,,,,,,,,,,,,,,787.1714,787.8878,z,1,787.8878,787.8879,,0,335,335,356,1,357,mergun,,,,,6,notharmonic,1.95,nw,z,0.6979,,,,,,,,
,,,,,,,,,,,3579,001,2023-11-07_16h00.22.268,vowel_harmony,2023.2.3,Win32,59.95922773,787.8882,788.8872,,,,,,,,,,,,,,,,,,,,,,,,,,788.8872,789.5703,m,1,789.5703,789.5704,,0,336,336,129,1,130,tahmin,2353,106.911,2273,0.2485,6,notharmonic,1.6,word,m,0.665,,,,,,,,
,,,,,,,,,,,3579,001,2023-11-07_16h00.22.268,vowel_harmony,2023.2.3,Win32,59.95922773,789.5707,790.5702,,,,,,,,,,,,,,,,,,,,,,,,,,790.5702,791.0531,m,1,791.0532,791.0533,,0,337,337,61,1,62,yıldız,1775,80.649,1532,0.1675,6,harmonic,1.6,word,m,0.4647,,,,,,,,
,,,,,,,,,,,3579,001,2023-11-07_16h00.22.268,vowel_harmony,2023.2.3,Win32,59.95922773,791.0536,792.0528,,,,,,,,,,,,,,,,,,,,,,,,,,792.0528,792.5193,m,1,792.5194,792.5195,,0,338,338,103,1,104,tane,5623,255.4868,5075,0.5548,4,notharmonic,1.3,word,m,0.4495,,,,,,,,
,,,,,,,,,,,3579,001,2023-11-07_16h00.22.268,vowel_harmony,2023.2.3,Win32,59.95922773,792.5197,793.5185,,,,,,,,,,,,,,,,,,,,,,,,,,793.5186,794.1018,m,1,794.1018,794.1019,,0,339,339,130,1,131,hamile,1075,48.8437,877,0.0959,6,notharmonic,1.5,word,m,0.5646,,,,,,,,
,,,,,,,,,,,3579,001,2023-11-07_16h00.22.268,vowel_harmony,2023.2.3,Win32,59.95922773,794.1022,795.1012,,,,,,,,,,,,,,,,,,,,,,,,,,795.1012,796.5507,z,1,796.5508,796.5509,,0,340,340,252,1,253,anlgı,,,,,5,harmonic,1.9,nw,z,1.4353,,,,,,,,
,,,,,,,,,,,3579,001,2023-11-07_16h00.22.268,vowel_harmony,2023.2.3,Win32,59.95922773,796.5511,797.5503,,,,,,,,,,,,,,,,,,,,,,,,,,797.5504,798.0997,m,0,798.0997,798.0998,,0,341,341,232,1,233,kanur,,,,,5,harmonic,1.7,nw,z,0.5309,,,,,,,,
,,,,,,,,,,,3579,001,2023-11-07_16h00.22.268,vowel_harmony,2023.2.3,Win32,59.95922773,798.1001,799.0994,,,,,,,,,,,,,,,,,,,,,,,,,,799.0994,799.8993,z,1,799.8993,799.8994,,0,342,342,297,1,298,sapet,,,,,5,notharmonic,1.85,nw,z,0.7887,,,,,,,,
,,,,,,,,,,,3579,001,2023-11-07_16h00.22.268,vowel_harmony,2023.2.3,Win32,59.95922773,799.8997,800.8989,,,,,,,,,,,,,,,,,,,,,,,,,,800.8989,801.5652,z,1,801.5652,801.5653,,0,343,343,279,1,280,tadde,,,,,5,notharmonic,1.8,nw,z,0.6525,,,,,,,,
,,,,,,,,,,,3579,001,2023-11-07_16h00.22.268,vowel_harmony,2023.2.3,Win32,59.95922773,801.5656,802.5648,,,,,,,,,,,,,,,,,,,,,,,,,,802.5648,803.1809,z,1,803.1809,803.1809,,0,344,344,208,1,209,yayram,,,,,6,harmonic,1.85,nw,z,0.6068,,,,,,,,
,,,,,,,,,,,3579,001,2023-11-07_16h00.22.268,vowel_harmony,2023.2.3,Win32,59.95922773,803.1812,804.1806,,,,,,,,,,,,,,,,,,,,,,,,,,804.1807,804.8303,m,1,804.8304,804.8305,,0,345,345,2,1,3,radyo,763,34.6677,636,0.0695,5,harmonic,1.85,word,m,0.6306,,,,,,,,
,,,,,,,,,,,3579,001,2023-11-07_16h00.22.268,vowel_harmony,2023.2.3,Win32,59.95922773,804.8308,805.8299,,,,,,,,,,,,,,,,,,,,,,,,,,805.8299,806.5628,z,1,806.5629,806.563,,0,346,346,288,1,289,molit,,,,,5,notharmonic,1.95,nw,z,0.7225,,,,,,,,
,,,,,,,,,,,3579,001,2023-11-07_16h00.22.268,vowel_harmony,2023.2.3,Win32,59.95922773,806.5633,807.5621,,,,,,,,,,,,,,,,,,,,,,,,,,807.5622,808.1955,m,1,808.1956,808.1957,,0,347,347,50,1,51,kanun,1198,54.4324,1010,0.1104,5,harmonic,1.6,word,m,0.6203,,,,,,,,
,,,,,,,,,,,3579,001,2023-11-07_16h00.22.268,vowel_harmony,2023.2.3,Win32,59.95922773,808.1959,809.1951,,,,,,,,,,,,,,,,,,,,,,,,,,809.1951,809.9281,z,1,809.9281,809.9282,,0,348,348,193,1,194,yokın,,,,,5,harmonic,1.85,nw,z,0.7154,,,,,,,,
,,,,,,,,,,,3579,001,2023-11-07_16h00.22.268,vowel_harmony,2023.2.3,Win32,59.95922773,809.9285,810.9274,,,,,,,,,,,,,,,,,,,,,,,,,,810.9274,811.477,m,1,811.4771,811.4772,,0,349,349,125,1,126,ikna,1276,57.9764,1173,0.1282,4,notharmonic,1.85,word,m,0.5287,,,,,,,,
,,,,,,,,,,,3579,001,2023-11-07_16h00.22.268,vowel_harmony,2023.2.3,Win32,59.95922773,811.4775,812.4769,,,,,,,,,,,,,,,,,,,,,,,,,,812.4769,813.1597,z,1,813.1597,813.1598,,0,350,350,191,1,192,doab,,,,,4,harmonic,2,nw,z,0.6649,,,,,,,,
,,,,,,,,,,,3579,001,2023-11-07_16h00.22.268,vowel_harmony,2023.2.3,Win32,59.95922773,813.1601,814.1595,,,,,,,,,,,,,,,,,,,,,,,,,,814.1595,814.7425,m,1,814.7425,814.7426,,0,351,351,90,1,91,tarif,2834,128.7657,2611,0.2854,5,notharmonic,1.5,word,m,0.5686,,,,,,,,
,,,,,,,,,,,3579,001,2023-11-07_16h00.22.268,vowel_harmony,2023.2.3,Win32,59.95922773,814.7429,815.742,,,,,,,,,,,,,,,,,,,,,,,,,,815.742,816.2084,m,1,816.2085,816.2086,,0,352,352,17,1,18,yakın,7990,363.0339,7595,0.8303,5,harmonic,1.8,word,m,0.452,,,,,,,,
,,,,,,,,,,,3579,001,2023-11-07_16h00.22.268,vowel_harmony,2023.2.3,Win32,59.95922773,816.209,817.2079,,,,,,,,,,,,,,,,,,,,,,,,,,817.2079,817.6411,m,1,817.6411,817.6412,,0,353,353,67,1,68,bayram,1948,88.5094,1648,0.1802,6,harmonic,1.85,word,m,0.42,,,,,,,,
,,,,,,,,,,,3579,001,2023-11-07_16h00.22.268,vowel_harmony,2023.2.3,Win32,59.95922773,817.6415,818.6404,,,,,,,,,,,,,,,,,,,,,,,,,,818.6404,819.3568,z,1,819.3568,819.357,,0,354,354,309,1,310,yorgen,,,,,6,notharmonic,1.9,nw,z,0.6989,,,,,,,,
,,,,,,,,,,,3579,001,2023-11-07_16h00.22.268,vowel_harmony,2023.2.3,Win32,59.95922773,819.3572,820.3565,,,,,,,,,,,,,,,,,,,,,,,,,,820.3566,820.9894,z,1,820.9894,820.9895,,0,355,355,189,1,190,düvre,,,,,5,harmonic,1.85,nw,z,0.6211,,,,,,,,
,,,,,,,,,,,3579,001,2023-11-07_16h00.22.268,vowel_harmony,2023.2.3,Win32,59.95922773,820.9898,821.9893,,,,,,,,,,,,,,,,,,,,,,,,,,821.9894,822.5723,m,1,822.5723,822.5724,,0,356,356,65,1,66,fikir,2552,115.9528,2413,0.2638,5,harmonic,1.9,word,m,0.5647,,,,,,,,
,,,,,,,,,,,3579,001,2023-11-07_16h00.22.268,vowel_harmony,2023.2.3,Win32,59.95922773,822.5727,823.5718,,,,,,,,,,,,,,,,,,,,,,,,,,823.5718,824.2714,z,1,824.2715,824.2715,,0,357,357,264,1,265,vepü,,,,,4,harmonic,2,nw,z,0.6786,,,,,,,,
,,,,,,,,,,,3579,001,2023-11-07_16h00.22.268,vowel_harmony,2023.2.3,Win32,59.95922773,824.2718,825.2709,,,,,,,,,,,,,,,,,,,,,,,,,,825.2709,825.8375,m,1,825.8375,825.8377,,0,358,358,18,1,19,normal,4154,188.7413,3788,0.4141,6,harmonic,1.75,word,m,0.5503,,,,,,,,
,,,,,,,,,,,3579,001,2023-11-07_16h00.22.268,vowel_harmony,2023.2.3,Win32,59.95922773,825.838,826.8369,,,,,,,,,,,,,,,,,,,,,,,,,,826.837,827.52,z,1,827.52,827.5201,,0,359,359,241,1,242,porlam,,,,,6,harmonic,2,nw,z,0.6726,,,,,,,,
,,,,,,,,,,,3579,001,2023-11-07_16h00.22.268,vowel_harmony,2023.2.3,Win32,59.95922773,,,,,,,,,,,,,,,,,,,,,,,,,,,,,,,,,,,,,,,,,,,,,,,,,,,,,,,827.5207,830.1524,space,2.6167,