Welcome_screen.started,Welcome_screen.stopped,key_respwelcome.keys,key_respwelcome.rt,key_respwelcome.duration,intro_x.thisRepN,intro_x.thisTrialN,intro_x.thisN,intro_x.thisIndex,intro_x.ran,Introduction,participant,session,date,expName,psychopyVersion,OS,frameRate,Fixation.started,Fixation.stopped,Studypractice.started,Studypractice.stopped,key_respstudy.keys,key_respstudy.corr,key_respstudy.rt,key_respstudy.duration,rt,corr,Feedback.started,Feedback.stopped,practice_loop.thisRepN,practice_loop.thisTrialN,practice_loop.thisN,practice_loop.thisIndex,practice_loop.ran,item_nr_p,target_p,isHarmonic_p,target_cond_p,CorrAns_p,Instraction.started,Instraction.stopped,key_respınstraction.keys,key_respınstraction.rt,key_respınstraction.duration,TestTrial.started,TestTrial.stopped,key_respTest.keys,key_respTest.corr,key_respTest.rt,key_respTest.duration,Pause.started,Pause.stopped,key_resp_xx.keys,test_loop.thisRepN,test_loop.thisTrialN,test_loop.thisN,test_loop.thisIndex,test_loop.ran,item_nr,target,BlogFreq_A1,BlogFreqpm_A1,BlogCD_A1,BlogCDPc_A1,WordLength_A1,isHarmonic_A1,old20,target_cond,CorrAns,key_resp_xx.rt,key_resp_xx.duration,Goodbye_screen.started,Goodbye_screen.stopped,key_respgoodbye.keys,key_respgoodbye.rt,key_respgoodbye.duration
0.0108,1.8518,space,1.8179,,0,0,0,0,1,"Deneye hoş geldiniz,

Devam etmek için BOŞLUK tuşuna basınız.",bahadir altun,001,2023-11-07_21h31.56.649,vowel_harmony,2023.2.3,MacIntel,60.0024001,,,,,,,,,,,,,,,,,,,,,,,,,,,,,,,,,,,,,,,,,,,,,,,,,,,,,,,,,,,
1.8525,14.299,space,12.4305,,0,1,1,1,1,"Bu çalışma Valencia Üniversitesi kapsamında yürütülmektedir. Deneydeki göreviniz, ekrana çıkacak Türkçe sözcüklerin kelime olup olmadığını belirlemenizdir. Eğer sözcük gerçek bir kelime ise ""m"" tuşuna, değil ise ""z"" tuşuna basınız.   

Devam etmek için BOŞLUK tuşuna basınız.",bahadir altun,001,2023-11-07_21h31.56.649,vowel_harmony,2023.2.3,MacIntel,60.0024001,,,,,,,,,,,,,,,,,,,,,,,,,,,,,,,,,,,,,,,,,,,,,,,,,,,,,,,,,,,
14.2993,20.6836,space,6.3717,,0,2,2,2,1,"Her sözcük için en fazla iki saniyede cevap vermeniz beklenmektedir. Aksi takdirde deney bir sonraki sözcük ile devam eder. 
Bu çalışmada oldukça hızlı ve doğru cevaplama yapmanız beklenmektedir.

Devam etmek için BOŞLUK tuşuna basınız.",bahadir altun,001,2023-11-07_21h31.56.649,vowel_harmony,2023.2.3,MacIntel,60.0024001,,,,,,,,,,,,,,,,,,,,,,,,,,,,,,,,,,,,,,,,,,,,,,,,,,,,,,,,,,,
20.6839,25.051,space,4.3502,,0,3,3,3,1,"Çalışmaya başlamadan önce ufak bir pratik yer almaktadır.
Kelimedir: ""m""
Kelime değildir: ""z""

Pratik teste başlamak için BOŞLUK tuşuna basınız. ",bahadir altun,001,2023-11-07_21h31.56.649,vowel_harmony,2023.2.3,MacIntel,60.0024001,,,,,,,,,,,,,,,,,,,,,,,,,,,,,,,,,,,,,,,,,,,,,,,,,,,,,,,,,,,
,,,,,,,,,,,bahadir altun,001,2023-11-07_21h31.56.649,vowel_harmony,2023.2.3,MacIntel,60.0024001,25.0581,26.0524,26.0526,27.0524,m,1,0.9845,,0.9845,1,27.0525,28.5521,0,0,0,2,1,3,memur,notharmonic,word,m,,,,,,,,,,,,,,,,,,,,,,,,,,,,,,,,,,,,,
,,,,,,,,,,,bahadir altun,001,2023-11-07_21h31.56.649,vowel_harmony,2023.2.3,MacIntel,60.0024001,28.5532,29.5502,29.5503,30.4328,m,1,0.8656,,0.8656,1,30.433,31.9323,0,1,1,7,1,8,oran,harmonic,word,m,,,,,,,,,,,,,,,,,,,,,,,,,,,,,,,,,,,,,
,,,,,,,,,,,bahadir altun,001,2023-11-07_21h31.56.649,vowel_harmony,2023.2.3,MacIntel,60.0024001,31.9332,32.9343,32.9343,33.7495,z,1,0.7997,,0.7997,1,33.7495,35.2513,0,2,2,11,1,12,geki,harmonic,nw,z,,,,,,,,,,,,,,,,,,,,,,,,,,,,,,,,,,,,,
,,,,,,,,,,,bahadir altun,001,2023-11-07_21h31.56.649,vowel_harmony,2023.2.3,MacIntel,60.0024001,35.2517,36.252,36.252,36.9681,z,1,0.7041,,0.7041,1,36.9681,38.467,0,3,3,13,1,14,pilar,notharmonic,nw,z,,,,,,,,,,,,,,,,,,,,,,,,,,,,,,,,,,,,,
,,,,,,,,,,,bahadir altun,001,2023-11-07_21h31.56.649,vowel_harmony,2023.2.3,MacIntel,60.0024001,38.4676,39.4684,39.4684,40.2832,z,1,0.8016,,0.8016,1,40.2833,41.7829,0,4,4,14,1,15,pimer,harmonic,nw,z,,,,,,,,,,,,,,,,,,,,,,,,,,,,,,,,,,,,,
,,,,,,,,,,,bahadir altun,001,2023-11-07_21h31.56.649,vowel_harmony,2023.2.3,MacIntel,60.0024001,41.7833,42.7842,42.7842,43.5655,z,1,0.7664,,0.7664,1,43.5656,45.0684,0,5,5,10,1,11,mahne,notharmonic,nw,z,,,,,,,,,,,,,,,,,,,,,,,,,,,,,,,,,,,,,
,,,,,,,,,,,bahadir altun,001,2023-11-07_21h31.56.649,vowel_harmony,2023.2.3,MacIntel,60.0024001,45.0691,46.0656,46.0657,46.6836,z,1,0.6021,,0.6021,1,46.6837,48.1851,0,6,6,12,1,13,ihlot,notharmonic,nw,z,,,,,,,,,,,,,,,,,,,,,,,,,,,,,,,,,,,,,
,,,,,,,,,,,bahadir altun,001,2023-11-07_21h31.56.649,vowel_harmony,2023.2.3,MacIntel,60.0024001,48.1866,49.1858,49.1858,49.8839,m,1,0.6823,,0.6823,1,49.8839,51.3857,0,7,7,1,1,2,veri,harmonic,word,m,,,,,,,,,,,,,,,,,,,,,,,,,,,,,,,,,,,,,
,,,,,,,,,,,bahadir altun,001,2023-11-07_21h31.56.649,vowel_harmony,2023.2.3,MacIntel,60.0024001,51.3864,52.385,52.385,53.0176,z,1,0.6143,,0.6143,1,53.0177,54.5169,0,8,8,8,1,9,tahip,notharmonic,nw,z,,,,,,,,,,,,,,,,,,,,,,,,,,,,,,,,,,,,,
,,,,,,,,,,,bahadir altun,001,2023-11-07_21h31.56.649,vowel_harmony,2023.2.3,MacIntel,60.0024001,54.5176,55.517,55.5171,56.1843,m,1,0.6429,,0.6429,1,56.1844,57.6848,0,9,9,0,1,1,ihale,notharmonic,word,m,,,,,,,,,,,,,,,,,,,,,,,,,,,,,,,,,,,,,
,,,,,,,,,,,bahadir altun,001,2023-11-07_21h31.56.649,vowel_harmony,2023.2.3,MacIntel,60.0024001,57.6855,58.6844,58.6844,59.3828,z,0,0.6816,,0.6816,0,59.3829,60.8822,0,10,10,6,1,7,pilot,notharmonic,word,m,,,,,,,,,,,,,,,,,,,,,,,,,,,,,,,,,,,,,
,,,,,,,,,,,bahadir altun,001,2023-11-07_21h31.56.649,vowel_harmony,2023.2.3,MacIntel,60.0024001,60.8828,61.8864,61.8864,62.4844,m,1,0.5849,,0.5849,1,62.4845,63.9852,0,11,11,4,1,5,mimar,notharmonic,word,m,,,,,,,,,,,,,,,,,,,,,,,,,,,,,,,,,,,,,
,,,,,,,,,,,bahadir altun,001,2023-11-07_21h31.56.649,vowel_harmony,2023.2.3,MacIntel,60.0024001,63.9859,64.9836,64.9837,65.7673,z,1,0.7692,,0.7692,1,65.7674,67.2674,0,12,12,15,1,16,mımal,harmonic,nw,z,,,,,,,,,,,,,,,,,,,,,,,,,,,,,,,,,,,,,
,,,,,,,,,,,bahadir altun,001,2023-11-07_21h31.56.649,vowel_harmony,2023.2.3,MacIntel,60.0024001,67.2681,68.2676,68.2677,69.1182,m,1,0.8286,,0.8286,1,69.1182,70.6178,0,13,13,3,1,4,ihlal,notharmonic,word,m,,,,,,,,,,,,,,,,,,,,,,,,,,,,,,,,,,,,,
,,,,,,,,,,,bahadir altun,001,2023-11-07_21h31.56.649,vowel_harmony,2023.2.3,MacIntel,60.0024001,70.6183,71.6181,71.6182,72.3841,z,1,0.7527,,0.7527,1,72.3842,73.8836,0,14,14,9,1,10,orat,harmonic,nw,z,,,,,,,,,,,,,,,,,,,,,,,,,,,,,,,,,,,,,
,,,,,,,,,,,bahadir altun,001,2023-11-07_21h31.56.649,vowel_harmony,2023.2.3,MacIntel,60.0024001,73.8842,74.8832,74.8833,75.5499,m,1,0.653,,0.653,1,75.55,77.0489,0,15,15,5,1,6,bahçe,notharmonic,word,m,,,,,,,,,,,,,,,,,,,,,,,,,,,,,,,,,,,,,
,,,,,,,,,,,bahadir altun,001,2023-11-07_21h31.56.649,vowel_harmony,2023.2.3,MacIntel,60.0024001,,,,,,,,,,,,,,,,,,,,,,,77.05,82.369,space,5.2995,,,,,,,,,,,,,,,,,,,,,,,,,,,,,,,,,
,,,,,,,,,,,bahadir altun,001,2023-11-07_21h31.56.649,vowel_harmony,2023.2.3,MacIntel,60.0024001,82.4182,83.384,,,,,,,,,,,,,,,,,,,,,,,,,,83.3842,84.0675,z,1,0.6634,,84.0677,84.0693,,0,0,0,199,1,200,movu,,,,,4,harmonic,1.9,nw,z,,,,,,,
,,,,,,,,,,,bahadir altun,001,2023-11-07_21h31.56.649,vowel_harmony,2023.2.3,MacIntel,60.0024001,84.0699,85.0683,,,,,,,,,,,,,,,,,,,,,,,,,,85.0683,85.6678,m,1,0.5854,,85.668,85.668,,0,1,1,127,1,128,şahane,1153,52.3877,1108,0.1211,6,notharmonic,1.8,word,m,,,,,,,
,,,,,,,,,,,bahadir altun,001,2023-11-07_21h31.56.649,vowel_harmony,2023.2.3,MacIntel,60.0024001,85.6686,86.6672,,,,,,,,,,,,,,,,,,,,,,,,,,86.6673,87.2682,m,1,0.5806,,87.2683,87.2684,,0,2,2,98,1,99,paket,1532,69.608,1392,0.1522,5,notharmonic,1.55,word,m,,,,,,,
,,,,,,,,,,,bahadir altun,001,2023-11-07_21h31.56.649,vowel_harmony,2023.2.3,MacIntel,60.0024001,87.2686,88.2656,,,,,,,,,,,,,,,,,,,,,,,,,,88.2657,89.1846,z,1,0.9031,,89.1846,89.1847,,0,3,3,208,1,209,yayram,,,,,6,harmonic,1.85,nw,z,,,,,,,
,,,,,,,,,,,bahadir altun,001,2023-11-07_21h31.56.649,vowel_harmony,2023.2.3,MacIntel,60.0024001,89.1854,90.1857,,,,,,,,,,,,,,,,,,,,,,,,,,90.1858,90.8847,m,1,0.6797,,90.8847,90.8848,,0,4,4,31,1,32,fazla,18293,831.1614,16694,1.825,5,harmonic,1,word,m,,,,,,,
,,,,,,,,,,,bahadir altun,001,2023-11-07_21h31.56.649,vowel_harmony,2023.2.3,MacIntel,60.0024001,90.8851,91.884,,,,,,,,,,,,,,,,,,,,,,,,,,91.884,92.5179,m,1,0.6216,,92.518,92.5183,,0,5,5,132,1,133,modern,2326,105.6842,2031,0.222,6,notharmonic,1.85,word,m,,,,,,,
,,,,,,,,,,,bahadir altun,001,2023-11-07_21h31.56.649,vowel_harmony,2023.2.3,MacIntel,60.0024001,92.5188,93.5182,,,,,,,,,,,,,,,,,,,,,,,,,,93.5183,94.052,z,1,0.5174,,94.052,94.0521,,0,6,6,194,1,195,rayna,,,,,5,harmonic,1.7,nw,z,,,,,,,
,,,,,,,,,,,bahadir altun,001,2023-11-07_21h31.56.649,vowel_harmony,2023.2.3,MacIntel,60.0024001,94.0525,95.0517,,,,,,,,,,,,,,,,,,,,,,,,,,95.0518,95.6663,z,1,0.5984,,95.6664,95.6664,,0,7,7,356,1,357,mergun,,,,,6,notharmonic,1.95,nw,z,,,,,,,
,,,,,,,,,,,bahadir altun,001,2023-11-07_21h31.56.649,vowel_harmony,2023.2.3,MacIntel,60.0024001,95.6667,96.6653,,,,,,,,,,,,,,,,,,,,,,,,,,96.6653,97.3351,z,1,0.6464,,97.3351,97.3352,,0,8,8,211,1,212,yarum,,,,,5,harmonic,1.75,nw,z,,,,,,,
,,,,,,,,,,,bahadir altun,001,2023-11-07_21h31.56.649,vowel_harmony,2023.2.3,MacIntel,60.0024001,97.3355,98.3316,,,,,,,,,,,,,,,,,,,,,,,,,,98.3316,99.0668,z,1,0.716,,99.0668,99.0669,,0,9,9,335,1,336,lilo,,,,,4,notharmonic,1.8,nw,z,,,,,,,
,,,,,,,,,,,bahadir altun,001,2023-11-07_21h31.56.649,vowel_harmony,2023.2.3,MacIntel,60.0024001,99.0672,100.0669,,,,,,,,,,,,,,,,,,,,,,,,,,100.067,100.6009,m,1,0.5259,,100.6009,100.6009,,0,10,10,170,1,171,basit,3385,153.801,3177,0.3473,5,notharmonic,1.65,word,m,,,,,,,
,,,,,,,,,,,bahadir altun,001,2023-11-07_21h31.56.649,vowel_harmony,2023.2.3,MacIntel,60.0024001,100.6012,101.5997,,,,,,,,,,,,,,,,,,,,,,,,,,101.5997,102.118,m,1,0.5023,,102.118,102.1181,,0,11,11,18,1,19,normal,4154,188.7413,3788,0.4141,6,harmonic,1.75,word,m,,,,,,,
,,,,,,,,,,,bahadir altun,001,2023-11-07_21h31.56.649,vowel_harmony,2023.2.3,MacIntel,60.0024001,102.1185,103.1184,,,,,,,,,,,,,,,,,,,,,,,,,,103.1185,103.632,z,0,0.4995,,103.632,103.6322,,0,12,12,39,1,40,yaygın,1061,48.2076,1019,0.1114,6,harmonic,1.35,word,m,,,,,,,
,,,,,,,,,,,bahadir altun,001,2023-11-07_21h31.56.649,vowel_harmony,2023.2.3,MacIntel,60.0024001,103.6324,104.6321,,,,,,,,,,,,,,,,,,,,,,,,,,104.6321,105.5354,z,1,0.8844,,105.5355,105.5356,,0,13,13,210,1,211,şevci,,,,,5,harmonic,1.75,nw,z,,,,,,,
,,,,,,,,,,,bahadir altun,001,2023-11-07_21h31.56.649,vowel_harmony,2023.2.3,MacIntel,60.0024001,105.5367,106.5341,,,,,,,,,,,,,,,,,,,,,,,,,,106.5341,107.2321,z,1,0.6806,,107.2322,107.2324,,0,14,14,303,1,304,fisor,,,,,5,notharmonic,1.9,nw,z,,,,,,,
,,,,,,,,,,,bahadir altun,001,2023-11-07_21h31.56.649,vowel_harmony,2023.2.3,MacIntel,60.0024001,107.2327,108.2328,,,,,,,,,,,,,,,,,,,,,,,,,,108.2329,109.0513,z,1,0.793,,109.0514,109.0515,,0,15,15,209,1,210,sapor,,,,,5,harmonic,1.8,nw,z,,,,,,,
,,,,,,,,,,,bahadir altun,001,2023-11-07_21h31.56.649,vowel_harmony,2023.2.3,MacIntel,60.0024001,109.0517,110.0486,,,,,,,,,,,,,,,,,,,,,,,,,,110.0487,110.6501,m,1,0.5903,,110.6501,110.6502,,0,16,16,91,1,92,ifade,6177,280.6584,5726,0.626,5,notharmonic,1.7,word,m,,,,,,,
,,,,,,,,,,,bahadir altun,001,2023-11-07_21h31.56.649,vowel_harmony,2023.2.3,MacIntel,60.0024001,110.6505,111.652,,,,,,,,,,,,,,,,,,,,,,,,,,111.6521,112.3857,z,1,0.7111,,112.3857,112.3858,,0,17,17,271,1,272,mimal,,,,,5,notharmonic,1.8,nw,z,,,,,,,
,,,,,,,,,,,bahadir altun,001,2023-11-07_21h31.56.649,vowel_harmony,2023.2.3,MacIntel,60.0024001,112.3861,113.3857,,,,,,,,,,,,,,,,,,,,,,,,,,113.3857,114.0512,z,1,0.6499,,114.0512,114.0513,,0,18,18,262,1,263,sauk,,,,,4,harmonic,1.85,nw,z,,,,,,,
,,,,,,,,,,,bahadir altun,001,2023-11-07_21h31.56.649,vowel_harmony,2023.2.3,MacIntel,60.0024001,114.0516,115.0511,,,,,,,,,,,,,,,,,,,,,,,,,,115.0511,115.635,m,1,0.5731,,115.635,115.6351,,0,19,19,37,1,38,hayvan,2363,107.3653,1894,0.2071,6,harmonic,1.5,word,m,,,,,,,
,,,,,,,,,,,bahadir altun,001,2023-11-07_21h31.56.649,vowel_harmony,2023.2.3,MacIntel,60.0024001,115.6355,116.6339,,,,,,,,,,,,,,,,,,,,,,,,,,116.6341,117.2668,m,1,0.6145,,117.2669,117.2669,,0,20,20,171,1,172,reklam,1565,71.1074,1244,0.136,6,notharmonic,1.9,word,m,,,,,,,
,,,,,,,,,,,bahadir altun,001,2023-11-07_21h31.56.649,vowel_harmony,2023.2.3,MacIntel,60.0024001,117.2672,118.2674,,,,,,,,,,,,,,,,,,,,,,,,,,118.2674,118.8177,m,1,0.5358,,118.8178,118.8178,,0,21,21,30,1,31,çevre,1662,75.5147,1409,0.154,5,harmonic,1.55,word,m,,,,,,,
,,,,,,,,,,,bahadir altun,001,2023-11-07_21h31.56.649,vowel_harmony,2023.2.3,MacIntel,60.0024001,118.8181,119.8179,,,,,,,,,,,,,,,,,,,,,,,,,,119.818,120.332,m,1,0.499,,120.332,120.3321,,0,22,22,125,1,126,ikna,1276,57.9764,1173,0.1282,4,notharmonic,1.85,word,m,,,,,,,
,,,,,,,,,,,bahadir altun,001,2023-11-07_21h31.56.649,vowel_harmony,2023.2.3,MacIntel,60.0024001,120.3324,121.3339,,,,,,,,,,,,,,,,,,,,,,,,,,121.3339,121.8821,m,1,0.5379,,121.8822,121.8822,,0,23,23,108,1,109,tarih,2806,127.4935,2483,0.2714,5,notharmonic,1.55,word,m,,,,,,,
,,,,,,,,,,,bahadir altun,001,2023-11-07_21h31.56.649,vowel_harmony,2023.2.3,MacIntel,60.0024001,121.8826,122.8837,,,,,,,,,,,,,,,,,,,,,,,,,,122.8837,123.4657,m,1,0.5638,,123.4657,123.4659,,0,24,24,178,1,179,dikkat,6230,283.0665,5888,0.6437,6,notharmonic,2.05,word,m,,,,,,,
,,,,,,,,,,,bahadir altun,001,2023-11-07_21h31.56.649,vowel_harmony,2023.2.3,MacIntel,60.0024001,123.4661,124.4675,,,,,,,,,,,,,,,,,,,,,,,,,,124.4676,124.9989,m,1,0.5224,,124.999,124.9991,,0,25,25,1,1,2,erkek,6188,281.1582,5195,0.5679,5,harmonic,1.65,word,m,,,,,,,
,,,,,,,,,,,bahadir altun,001,2023-11-07_21h31.56.649,vowel_harmony,2023.2.3,MacIntel,60.0024001,124.9997,126.0007,,,,,,,,,,,,,,,,,,,,,,,,,,126.0008,126.4838,m,1,0.4649,,126.4838,126.4839,,0,26,26,62,1,63,cümle,1911,86.8283,1765,0.193,5,harmonic,1.85,word,m,,,,,,,
,,,,,,,,,,,bahadir altun,001,2023-11-07_21h31.56.649,vowel_harmony,2023.2.3,MacIntel,60.0024001,126.4844,127.4853,,,,,,,,,,,,,,,,,,,,,,,,,,127.4853,127.9485,m,0,0.4492,,127.9485,127.9486,,0,27,27,325,1,326,garit,,,,,5,notharmonic,1.85,nw,z,,,,,,,
,,,,,,,,,,,bahadir altun,001,2023-11-07_21h31.56.649,vowel_harmony,2023.2.3,MacIntel,60.0024001,127.949,128.9487,,,,,,,,,,,,,,,,,,,,,,,,,,128.9488,130.9507,,0,,,130.9508,130.951,,0,28,28,329,1,330,taif,,,,,4,notharmonic,1.8,nw,z,,,,,,,
,,,,,,,,,,,bahadir altun,001,2023-11-07_21h31.56.649,vowel_harmony,2023.2.3,MacIntel,60.0024001,130.9517,131.9511,,,,,,,,,,,,,,,,,,,,,,,,,,131.9512,133.3022,m,1,1.3368,,133.3022,133.3023,,0,29,29,166,1,167,maden,402,18.2653,339,0.0371,5,notharmonic,1.45,word,m,,,,,,,
,,,,,,,,,,,bahadir altun,001,2023-11-07_21h31.56.649,vowel_harmony,2023.2.3,MacIntel,60.0024001,133.3027,134.2995,,,,,,,,,,,,,,,,,,,,,,,,,,134.2995,135.0668,m,1,0.7513,,135.0669,135.0669,,0,30,30,36,1,37,meslek,1082,49.1618,976,0.1067,6,harmonic,1.9,word,m,,,,,,,
,,,,,,,,,,,bahadir altun,001,2023-11-07_21h31.56.649,vowel_harmony,2023.2.3,MacIntel,60.0024001,135.0672,136.0662,,,,,,,,,,,,,,,,,,,,,,,,,,136.0662,136.6334,m,1,0.5555,,136.6334,136.6335,,0,31,31,121,1,122,mesaj,1604,72.8794,1386,0.1515,5,notharmonic,1.8,word,m,,,,,,,
,,,,,,,,,,,bahadir altun,001,2023-11-07_21h31.56.649,vowel_harmony,2023.2.3,MacIntel,60.0024001,136.6339,137.6343,,,,,,,,,,,,,,,,,,,,,,,,,,137.6343,138.3516,z,1,0.701,,138.3516,138.3517,,0,32,32,229,1,230,tonam,,,,,5,harmonic,1.8,nw,z,,,,,,,
,,,,,,,,,,,bahadir altun,001,2023-11-07_21h31.56.649,vowel_harmony,2023.2.3,MacIntel,60.0024001,138.3521,139.3506,,,,,,,,,,,,,,,,,,,,,,,,,,139.3506,140.0846,z,1,0.7215,,140.0846,140.0849,,0,33,33,273,1,274,nimal,,,,,5,notharmonic,1.9,nw,z,,,,,,,
,,,,,,,,,,,bahadir altun,001,2023-11-07_21h31.56.649,vowel_harmony,2023.2.3,MacIntel,60.0024001,140.0853,141.0852,,,,,,,,,,,,,,,,,,,,,,,,,,141.0853,141.7661,z,1,0.6636,,141.7661,141.7662,,0,34,34,359,1,360,kardez,,,,,6,notharmonic,1.95,nw,z,,,,,,,
,,,,,,,,,,,bahadir altun,001,2023-11-07_21h31.56.649,vowel_harmony,2023.2.3,MacIntel,60.0024001,141.7663,142.7683,,,,,,,,,,,,,,,,,,,,,,,,,,142.7684,143.4164,m,1,0.633,,143.4164,143.4165,,0,35,35,105,1,106,sahip,10887,494.6621,9847,1.0765,5,notharmonic,1.25,word,m,,,,,,,
,,,,,,,,,,,bahadir altun,001,2023-11-07_21h31.56.649,vowel_harmony,2023.2.3,MacIntel,60.0024001,143.4168,144.4178,,,,,,,,,,,,,,,,,,,,,,,,,,144.4179,145.0843,m,1,0.6467,,145.0843,145.0844,,0,36,36,68,1,69,ücret,734,33.35,634,0.0693,5,harmonic,1.85,word,m,,,,,,,
,,,,,,,,,,,bahadir altun,001,2023-11-07_21h31.56.649,vowel_harmony,2023.2.3,MacIntel,60.0024001,145.0849,146.0851,,,,,,,,,,,,,,,,,,,,,,,,,,146.0851,146.6505,m,1,0.5462,,146.6506,146.6506,,0,37,37,80,1,81,merkez,1445,65.6551,1255,0.1372,6,harmonic,1.8,word,m,,,,,,,
,,,,,,,,,,,bahadir altun,001,2023-11-07_21h31.56.649,vowel_harmony,2023.2.3,MacIntel,60.0024001,146.6511,147.65,,,,,,,,,,,,,,,,,,,,,,,,,,147.6501,148.385,z,1,0.717,,148.385,148.3851,,0,38,38,255,1,256,yokın,,,,,5,harmonic,1.85,nw,z,,,,,,,
,,,,,,,,,,,bahadir altun,001,2023-11-07_21h31.56.649,vowel_harmony,2023.2.3,MacIntel,60.0024001,148.3854,149.3823,,,,,,,,,,,,,,,,,,,,,,,,,,149.3823,150.1181,m,1,0.7199,,150.1181,150.1182,,0,39,39,155,1,156,ilaç,1366,62.0656,1215,0.1328,4,notharmonic,1.75,word,m,,,,,,,
,,,,,,,,,,,bahadir altun,001,2023-11-07_21h31.56.649,vowel_harmony,2023.2.3,MacIntel,60.0024001,150.1186,151.1157,,,,,,,,,,,,,,,,,,,,,,,,,,151.1157,152.0521,z,1,0.9179,,152.0522,152.0523,,0,40,40,277,1,278,balsin,,,,,6,notharmonic,1.85,nw,z,,,,,,,
,,,,,,,,,,,bahadir altun,001,2023-11-07_21h31.56.649,vowel_harmony,2023.2.3,MacIntel,60.0024001,152.0526,153.052,,,,,,,,,,,,,,,,,,,,,,,,,,153.052,153.8843,z,1,0.8156,,153.8843,153.8844,,0,41,41,332,1,333,tahane,,,,,6,notharmonic,1.85,nw,z,,,,,,,
,,,,,,,,,,,bahadir altun,001,2023-11-07_21h31.56.649,vowel_harmony,2023.2.3,MacIntel,60.0024001,153.8848,154.8853,,,,,,,,,,,,,,,,,,,,,,,,,,154.8853,155.783,m,1,0.8807,,155.783,155.7832,,0,42,42,89,1,90,etki,1234,56.0681,1169,0.1278,4,harmonic,1.4,word,m,,,,,,,
,,,,,,,,,,,bahadir altun,001,2023-11-07_21h31.56.649,vowel_harmony,2023.2.3,MacIntel,60.0024001,155.7836,156.7846,,,,,,,,,,,,,,,,,,,,,,,,,,156.7847,157.4523,m,1,0.6489,,157.4523,157.4526,,0,43,43,54,1,55,yedek,825,37.4847,732,0.08,5,harmonic,1.65,word,m,,,,,,,
,,,,,,,,,,,bahadir altun,001,2023-11-07_21h31.56.649,vowel_harmony,2023.2.3,MacIntel,60.0024001,157.453,158.45,,,,,,,,,,,,,,,,,,,,,,,,,,158.4501,159.2669,z,1,0.8011,,159.267,159.267,,0,44,44,183,1,184,orkın,,,,,5,harmonic,1.9,nw,z,,,,,,,
,,,,,,,,,,,bahadir altun,001,2023-11-07_21h31.56.649,vowel_harmony,2023.2.3,MacIntel,60.0024001,159.2674,160.2674,,,,,,,,,,,,,,,,,,,,,,,,,,160.2675,161.0173,z,1,0.7391,,161.0174,161.0175,,0,45,45,308,1,309,hafer,,,,,5,notharmonic,1.85,nw,z,,,,,,,
,,,,,,,,,,,bahadir altun,001,2023-11-07_21h31.56.649,vowel_harmony,2023.2.3,MacIntel,60.0024001,161.0178,162.0175,,,,,,,,,,,,,,,,,,,,,,,,,,162.0176,162.6346,z,1,0.6019,,162.6347,162.6348,,0,46,46,268,1,269,haldum,,,,,6,harmonic,2,nw,z,,,,,,,
,,,,,,,,,,,bahadir altun,001,2023-11-07_21h31.56.649,vowel_harmony,2023.2.3,MacIntel,60.0024001,162.6352,163.6347,,,,,,,,,,,,,,,,,,,,,,,,,,163.6348,164.2684,m,1,0.6184,,164.2685,164.2686,,0,47,47,15,1,16,hayat,7922,359.9443,7314,0.7996,5,harmonic,1.9,word,m,,,,,,,
,,,,,,,,,,,bahadir altun,001,2023-11-07_21h31.56.649,vowel_harmony,2023.2.3,MacIntel,60.0024001,164.2689,165.2672,,,,,,,,,,,,,,,,,,,,,,,,,,165.2672,165.8845,m,1,0.5939,,165.8846,165.8846,,0,48,48,99,1,100,ilave,3173,144.1685,2619,0.2863,5,notharmonic,1.85,word,m,,,,,,,
,,,,,,,,,,,bahadir altun,001,2023-11-07_21h31.56.649,vowel_harmony,2023.2.3,MacIntel,60.0024001,165.885,166.8846,,,,,,,,,,,,,,,,,,,,,,,,,,166.8847,167.5004,m,1,0.6021,,167.5004,167.5005,,0,49,49,109,1,110,milyon,3936,178.8362,2958,0.3234,6,notharmonic,1.75,word,m,,,,,,,
,,,,,,,,,,,bahadir altun,001,2023-11-07_21h31.56.649,vowel_harmony,2023.2.3,MacIntel,60.0024001,167.5007,168.4991,,,,,,,,,,,,,,,,,,,,,,,,,,168.4992,170.0007,z,1,1.4867,,170.0007,170.0007,,0,50,50,347,1,348,tekram,,,,,6,notharmonic,1.95,nw,z,,,,,,,
,,,,,,,,,,,bahadir altun,001,2023-11-07_21h31.56.649,vowel_harmony,2023.2.3,MacIntel,60.0024001,170.0009,171.0003,,,,,,,,,,,,,,,,,,,,,,,,,,171.0003,171.6353,z,1,0.6125,,171.6354,171.6354,,0,51,51,288,1,289,molit,,,,,5,notharmonic,1.95,nw,z,,,,,,,
,,,,,,,,,,,bahadir altun,001,2023-11-07_21h31.56.649,vowel_harmony,2023.2.3,MacIntel,60.0024001,171.6356,172.6336,,,,,,,,,,,,,,,,,,,,,,,,,,172.6337,173.3018,m,1,0.6567,,173.3018,173.3019,,0,52,52,7,1,8,hizmet,3023,137.3531,2689,0.294,6,harmonic,1.75,word,m,,,,,,,
,,,,,,,,,,,bahadir altun,001,2023-11-07_21h31.56.649,vowel_harmony,2023.2.3,MacIntel,60.0024001,173.3022,174.2984,,,,,,,,,,,,,,,,,,,,,,,,,,174.2985,174.8679,m,1,0.5504,,174.8679,174.868,,0,53,53,2,1,3,radyo,763,34.6677,636,0.0695,5,harmonic,1.85,word,m,,,,,,,
,,,,,,,,,,,bahadir altun,001,2023-11-07_21h31.56.649,vowel_harmony,2023.2.3,MacIntel,60.0024001,174.8684,175.8655,,,,,,,,,,,,,,,,,,,,,,,,,,175.8656,176.6655,m,1,0.7867,,176.6655,176.6658,,0,54,54,172,1,173,milyar,1496,67.9723,1078,0.1178,6,notharmonic,1.85,word,m,,,,,,,
,,,,,,,,,,,bahadir altun,001,2023-11-07_21h31.56.649,vowel_harmony,2023.2.3,MacIntel,60.0024001,176.6663,177.6671,,,,,,,,,,,,,,,,,,,,,,,,,,177.6671,178.5833,z,1,0.902,,178.5833,178.5835,,0,55,55,321,1,322,makih,,,,,5,notharmonic,1.8,nw,z,,,,,,,
,,,,,,,,,,,bahadir altun,001,2023-11-07_21h31.56.649,vowel_harmony,2023.2.3,MacIntel,60.0024001,178.5838,179.5843,,,,,,,,,,,,,,,,,,,,,,,,,,179.5843,180.2351,z,1,0.6322,,180.2351,180.2352,,0,56,56,278,1,279,sekon,,,,,5,notharmonic,1.85,nw,z,,,,,,,
,,,,,,,,,,,bahadir altun,001,2023-11-07_21h31.56.649,vowel_harmony,2023.2.3,MacIntel,60.0024001,180.2356,181.2322,,,,,,,,,,,,,,,,,,,,,,,,,,181.2323,181.9316,m,1,0.6832,,181.9317,181.9318,,0,57,57,146,1,147,mavi,2206,100.2319,1934,0.2114,4,notharmonic,1.45,word,m,,,,,,,
,,,,,,,,,,,bahadir altun,001,2023-11-07_21h31.56.649,vowel_harmony,2023.2.3,MacIntel,60.0024001,181.9321,182.9337,,,,,,,,,,,,,,,,,,,,,,,,,,182.9338,183.5353,z,1,0.5849,,183.5354,183.5355,,0,58,58,191,1,192,doab,,,,,4,harmonic,2,nw,z,,,,,,,
,,,,,,,,,,,bahadir altun,001,2023-11-07_21h31.56.649,vowel_harmony,2023.2.3,MacIntel,60.0024001,183.5358,184.5343,,,,,,,,,,,,,,,,,,,,,,,,,,184.5344,185.1859,m,1,0.6359,,185.186,185.186,,0,59,59,141,1,142,madde,3793,172.3389,3389,0.3705,5,notharmonic,1.7,word,m,,,,,,,
,,,,,,,,,,,bahadir altun,001,2023-11-07_21h31.56.649,vowel_harmony,2023.2.3,MacIntel,60.0024001,185.1864,186.1831,,,,,,,,,,,,,,,,,,,,,,,,,,186.1832,187.8357,m,1,1.6313,,187.8357,187.8358,,0,60,60,69,1,70,forma,719,32.6685,597,0.0653,5,harmonic,1.8,word,m,,,,,,,
,,,,,,,,,,,bahadir altun,001,2023-11-07_21h31.56.649,vowel_harmony,2023.2.3,MacIntel,60.0024001,187.8471,188.8349,,,,,,,,,,,,,,,,,,,,,,,,,,188.835,189.5338,z,1,0.6828,,189.5338,189.5339,,0,61,61,225,1,226,düvem,,,,,5,harmonic,1.7,nw,z,,,,,,,
,,,,,,,,,,,bahadir altun,001,2023-11-07_21h31.56.649,vowel_harmony,2023.2.3,MacIntel,60.0024001,189.5342,190.5342,,,,,,,,,,,,,,,,,,,,,,,,,,190.5343,191.1485,z,1,0.5927,,191.1486,191.1488,,0,62,62,244,1,245,kaof,,,,,4,harmonic,1.9,nw,z,,,,,,,
,,,,,,,,,,,bahadir altun,001,2023-11-07_21h31.56.649,vowel_harmony,2023.2.3,MacIntel,60.0024001,191.1492,192.1376,,,,,,,,,,,,,,,,,,,,,,,,,,192.1376,192.7852,z,1,0.6288,,192.7853,192.7853,,0,63,63,206,1,207,bevek,,,,,5,harmonic,1.75,nw,z,,,,,,,
,,,,,,,,,,,bahadir altun,001,2023-11-07_21h31.56.649,vowel_harmony,2023.2.3,MacIntel,60.0024001,192.7859,193.7851,,,,,,,,,,,,,,,,,,,,,,,,,,193.7852,194.6006,m,1,0.8,,194.6007,194.6007,,0,64,64,23,1,24,kurum,986,44.7999,882,0.0964,5,harmonic,1.75,word,m,,,,,,,
,,,,,,,,,,,bahadir altun,001,2023-11-07_21h31.56.649,vowel_harmony,2023.2.3,MacIntel,60.0024001,194.601,195.5995,,,,,,,,,,,,,,,,,,,,,,,,,,195.5996,196.3187,m,1,0.7081,,196.3187,196.3188,,0,65,65,81,1,82,üretim,1593,72.3796,1283,0.1403,6,harmonic,1.6,word,m,,,,,,,
,,,,,,,,,,,bahadir altun,001,2023-11-07_21h31.56.649,vowel_harmony,2023.2.3,MacIntel,60.0024001,196.3196,197.3182,,,,,,,,,,,,,,,,,,,,,,,,,,197.3183,197.8682,m,1,0.5328,,197.8682,197.8683,,0,66,66,71,1,72,örnek,3463,157.345,3266,0.357,5,harmonic,1.85,word,m,,,,,,,
,,,,,,,,,,,bahadir altun,001,2023-11-07_21h31.56.649,vowel_harmony,2023.2.3,MacIntel,60.0024001,197.8685,198.8684,,,,,,,,,,,,,,,,,,,,,,,,,,198.8685,199.3988,m,1,0.5144,,199.3989,199.399,,0,67,67,161,1,162,komik,1617,73.4701,1506,0.1646,5,notharmonic,1.75,word,m,,,,,,,
,,,,,,,,,,,bahadir altun,001,2023-11-07_21h31.56.649,vowel_harmony,2023.2.3,MacIntel,60.0024001,199.3994,200.4028,,,,,,,,,,,,,,,,,,,,,,,,,,200.4029,200.9856,m,0,0.565,,200.9857,200.9858,,0,68,68,297,1,298,sapet,,,,,5,notharmonic,1.85,nw,z,,,,,,,
,,,,,,,,,,,bahadir altun,001,2023-11-07_21h31.56.649,vowel_harmony,2023.2.3,MacIntel,60.0024001,200.9862,201.9854,,,,,,,,,,,,,,,,,,,,,,,,,,201.9855,203.7687,m,1,1.7692,,203.7688,203.7688,,0,69,69,150,1,151,sabit,1046,47.5261,915,0.1,5,notharmonic,1.75,word,m,,,,,,,
,,,,,,,,,,,bahadir altun,001,2023-11-07_21h31.56.649,vowel_harmony,2023.2.3,MacIntel,60.0024001,203.7816,204.786,,,,,,,,,,,,,,,,,,,,,,,,,,204.786,205.518,z,1,0.7125,,205.5181,205.5182,,0,70,70,272,1,273,daken,,,,,5,notharmonic,1.8,nw,z,,,,,,,
,,,,,,,,,,,bahadir altun,001,2023-11-07_21h31.56.649,vowel_harmony,2023.2.3,MacIntel,60.0024001,205.5185,206.5185,,,,,,,,,,,,,,,,,,,,,,,,,,206.5186,207.6653,z,1,1.1258,,207.6654,207.6655,,0,71,71,261,1,262,kardok,,,,,6,harmonic,1.95,nw,z,,,,,,,
,,,,,,,,,,,bahadir altun,001,2023-11-07_21h31.56.649,vowel_harmony,2023.2.3,MacIntel,60.0024001,207.6658,208.6683,,,,,,,,,,,,,,,,,,,,,,,,,,208.6684,209.3338,z,1,0.6531,,209.3338,209.3338,,0,72,72,306,1,307,otet,,,,,4,notharmonic,1.95,nw,z,,,,,,,
,,,,,,,,,,,bahadir altun,001,2023-11-07_21h31.56.649,vowel_harmony,2023.2.3,MacIntel,60.0024001,209.3342,210.3341,,,,,,,,,,,,,,,,,,,,,,,,,,210.3341,211.1165,z,1,0.7692,,211.1166,211.1166,,0,73,73,260,1,261,yarlam,,,,,6,harmonic,1.75,nw,z,,,,,,,
,,,,,,,,,,,bahadir altun,001,2023-11-07_21h31.56.649,vowel_harmony,2023.2.3,MacIntel,60.0024001,211.117,212.1157,,,,,,,,,,,,,,,,,,,,,,,,,,212.1157,212.9673,m,1,0.8344,,212.9673,212.9673,,0,74,74,159,1,160,vakit,3476,157.9357,3298,0.3605,5,notharmonic,1.65,word,m,,,,,,,
,,,,,,,,,,,bahadir altun,001,2023-11-07_21h31.56.649,vowel_harmony,2023.2.3,MacIntel,60.0024001,212.9677,213.9699,,,,,,,,,,,,,,,,,,,,,,,,,,213.9699,214.6831,z,1,0.6969,,214.6831,214.6832,,0,75,75,263,1,264,duzur,,,,,5,harmonic,1.8,nw,z,,,,,,,
,,,,,,,,,,,bahadir altun,001,2023-11-07_21h31.56.649,vowel_harmony,2023.2.3,MacIntel,60.0024001,214.6836,215.6856,,,,,,,,,,,,,,,,,,,,,,,,,,215.6857,216.7677,m,1,1.0672,,216.7677,216.7678,,0,76,76,147,1,148,işaret,1888,85.7832,1787,0.1954,6,notharmonic,1,word,m,,,,,,,
,,,,,,,,,,,bahadir altun,001,2023-11-07_21h31.56.649,vowel_harmony,2023.2.3,MacIntel,60.0024001,216.768,217.7683,,,,,,,,,,,,,,,,,,,,,,,,,,217.7683,218.4352,m,1,0.656,,218.4353,218.4356,,0,77,77,165,1,166,gazete,1402,63.7013,1270,0.1388,6,notharmonic,1.8,word,m,,,,,,,
,,,,,,,,,,,bahadir altun,001,2023-11-07_21h31.56.649,vowel_harmony,2023.2.3,MacIntel,60.0024001,218.4364,219.4341,,,,,,,,,,,,,,,,,,,,,,,,,,219.4342,220.1354,m,1,0.6853,,220.1354,220.1357,,0,78,78,9,1,10,karar,8108,368.3954,7436,0.8129,5,harmonic,1.6,word,m,,,,,,,
,,,,,,,,,,,bahadir altun,001,2023-11-07_21h31.56.649,vowel_harmony,2023.2.3,MacIntel,60.0024001,220.1364,221.1357,,,,,,,,,,,,,,,,,,,,,,,,,,221.1358,222.1327,z,1,0.9796,,222.1327,222.1328,,0,79,79,357,1,358,işarek,,,,,6,notharmonic,1.95,nw,z,,,,,,,
,,,,,,,,,,,bahadir altun,001,2023-11-07_21h31.56.649,vowel_harmony,2023.2.3,MacIntel,60.0024001,222.1332,223.1359,,,,,,,,,,,,,,,,,,,,,,,,,,223.1359,223.9018,z,1,0.7518,,223.9019,223.902,,0,80,80,182,1,183,orsın,,,,,5,harmonic,1.95,nw,z,,,,,,,
,,,,,,,,,,,bahadir altun,001,2023-11-07_21h31.56.649,vowel_harmony,2023.2.3,MacIntel,60.0024001,223.9024,224.9021,,,,,,,,,,,,,,,,,,,,,,,,,,224.9022,225.5677,z,1,0.6516,,225.5678,225.5678,,0,81,81,180,1,181,ayaro,,,,,5,harmonic,1.8,nw,z,,,,,,,
,,,,,,,,,,,bahadir altun,001,2023-11-07_21h31.56.649,vowel_harmony,2023.2.3,MacIntel,60.0024001,225.5685,226.5682,,,,,,,,,,,,,,,,,,,,,,,,,,226.5683,227.3849,z,1,0.7987,,227.3849,227.3851,,0,82,82,293,1,294,esnan,,,,,5,notharmonic,1.85,nw,z,,,,,,,
,,,,,,,,,,,bahadir altun,001,2023-11-07_21h31.56.649,vowel_harmony,2023.2.3,MacIntel,60.0024001,227.3853,228.3827,,,,,,,,,,,,,,,,,,,,,,,,,,228.3828,229.0017,z,1,0.603,,229.0018,229.002,,0,83,83,291,1,292,mepan,,,,,5,notharmonic,1.75,nw,z,,,,,,,
,,,,,,,,,,,bahadir altun,001,2023-11-07_21h31.56.649,vowel_harmony,2023.2.3,MacIntel,60.0024001,229.0025,230.0004,,,,,,,,,,,,,,,,,,,,,,,,,,230.0004,230.8507,m,1,0.8333,,230.8507,230.8508,,0,84,84,101,1,102,imza,1358,61.7021,1253,0.137,4,notharmonic,1.65,word,m,,,,,,,
,,,,,,,,,,,bahadir altun,001,2023-11-07_21h31.56.649,vowel_harmony,2023.2.3,MacIntel,60.0024001,230.8511,231.8524,,,,,,,,,,,,,,,,,,,,,,,,,,231.8524,232.4682,z,1,0.6019,,232.4684,232.4686,,0,85,85,264,1,265,vepü,,,,,4,harmonic,2,nw,z,,,,,,,
,,,,,,,,,,,bahadir altun,001,2023-11-07_21h31.56.649,vowel_harmony,2023.2.3,MacIntel,60.0024001,232.4693,233.4692,,,,,,,,,,,,,,,,,,,,,,,,,,233.4693,234.0325,z,1,0.5494,,234.0326,234.0327,,0,86,86,235,1,236,oşup,,,,,4,harmonic,1.75,nw,z,,,,,,,
,,,,,,,,,,,bahadir altun,001,2023-11-07_21h31.56.649,vowel_harmony,2023.2.3,MacIntel,60.0024001,234.033,235.0342,,,,,,,,,,,,,,,,,,,,,,,,,,235.0344,235.636,m,1,0.5854,,235.6362,235.6363,,0,87,87,164,1,165,sinema,1575,71.5618,1304,0.1426,6,notharmonic,1.8,word,m,,,,,,,
,,,,,,,,,,,bahadir altun,001,2023-11-07_21h31.56.649,vowel_harmony,2023.2.3,MacIntel,60.0024001,235.6369,236.6357,,,,,,,,,,,,,,,,,,,,,,,,,,236.6357,237.3499,z,1,0.6954,,237.35,237.3501,,0,88,88,185,1,186,örtin,,,,,5,harmonic,1.9,nw,z,,,,,,,
,,,,,,,,,,,bahadir altun,001,2023-11-07_21h31.56.649,vowel_harmony,2023.2.3,MacIntel,60.0024001,237.3504,238.3515,,,,,,,,,,,,,,,,,,,,,,,,,,238.3515,239.0351,m,1,0.6652,,239.0351,239.0352,,0,89,89,48,1,49,teşvik,932,42.3464,867,0.0948,6,harmonic,1.8,word,m,,,,,,,
,,,,,,,,,,,bahadir altun,001,2023-11-07_21h31.56.649,vowel_harmony,2023.2.3,MacIntel,60.0024001,239.0355,240.036,,,,,,,,,,,,,,,,,,,,,,,,,,240.036,240.8684,z,1,0.8128,,240.8685,240.8685,,0,90,90,320,1,321,finak,,,,,5,notharmonic,1.85,nw,z,,,,,,,
,,,,,,,,,,,bahadir altun,001,2023-11-07_21h31.56.649,vowel_harmony,2023.2.3,MacIntel,60.0024001,240.8689,241.8692,,,,,,,,,,,,,,,,,,,,,,,,,,241.8693,242.5177,m,1,0.6317,,242.5178,242.5178,,0,91,91,12,1,13,konu,5400,245.3546,5110,0.5586,4,harmonic,1,word,m,,,,,,,
,,,,,,,,,,,bahadir altun,001,2023-11-07_21h31.56.649,vowel_harmony,2023.2.3,MacIntel,60.0024001,242.5182,243.5183,,,,,,,,,,,,,,,,,,,,,,,,,,243.5183,244.1171,m,1,0.5822,,244.1171,244.1172,,0,92,92,112,1,113,sezon,2315,105.1844,1917,0.2096,5,notharmonic,1.8,word,m,,,,,,,
,,,,,,,,,,,bahadir altun,001,2023-11-07_21h31.56.649,vowel_harmony,2023.2.3,MacIntel,60.0024001,244.1175,245.1156,,,,,,,,,,,,,,,,,,,,,,,,,,245.1158,245.8194,z,1,0.6895,,245.8196,245.8197,,0,93,93,212,1,213,ortat,,,,,5,harmonic,1.7,nw,z,,,,,,,
,,,,,,,,,,,bahadir altun,001,2023-11-07_21h31.56.649,vowel_harmony,2023.2.3,MacIntel,60.0024001,245.8203,246.8183,,,,,,,,,,,,,,,,,,,,,,,,,,246.8185,247.3819,z,1,0.5475,,247.3819,247.382,,0,94,94,214,1,215,vecü,,,,,4,harmonic,1.95,nw,z,,,,,,,
,,,,,,,,,,,bahadir altun,001,2023-11-07_21h31.56.649,vowel_harmony,2023.2.3,MacIntel,60.0024001,247.3824,248.3845,,,,,,,,,,,,,,,,,,,,,,,,,,248.3846,248.9681,z,1,0.5649,,248.9681,248.9681,,0,95,95,344,1,345,barika,,,,,6,notharmonic,1.75,nw,z,,,,,,,
,,,,,,,,,,,bahadir altun,001,2023-11-07_21h31.56.649,vowel_harmony,2023.2.3,MacIntel,60.0024001,248.9684,249.9672,,,,,,,,,,,,,,,,,,,,,,,,,,249.9672,250.6182,m,1,0.6376,,250.6183,250.6184,,0,96,96,163,1,164,limon,1658,75.3329,1481,0.1619,5,notharmonic,1.75,word,m,,,,,,,
,,,,,,,,,,,bahadir altun,001,2023-11-07_21h31.56.649,vowel_harmony,2023.2.3,MacIntel,60.0024001,250.6187,251.6158,,,,,,,,,,,,,,,,,,,,,,,,,,251.6159,252.232,z,1,0.6024,,252.2321,252.2321,,0,97,97,257,1,258,zerü,,,,,4,harmonic,1.8,nw,z,,,,,,,
,,,,,,,,,,,bahadir altun,001,2023-11-07_21h31.56.649,vowel_harmony,2023.2.3,MacIntel,60.0024001,252.2325,253.235,,,,,,,,,,,,,,,,,,,,,,,,,,253.235,253.8653,m,1,0.6163,,253.8653,253.8654,,0,98,98,51,1,52,ilginç,2803,127.3572,2690,0.2941,6,harmonic,1.8,word,m,,,,,,,
,,,,,,,,,,,bahadir altun,001,2023-11-07_21h31.56.649,vowel_harmony,2023.2.3,MacIntel,60.0024001,253.8658,254.8669,,,,,,,,,,,,,,,,,,,,,,,,,,254.867,255.5494,m,1,0.6683,,255.5495,255.5496,,0,99,99,63,1,64,sultan,1756,79.7857,1368,0.1496,6,harmonic,1.55,word,m,,,,,,,
,,,,,,,,,,,bahadir altun,001,2023-11-07_21h31.56.649,vowel_harmony,2023.2.3,MacIntel,60.0024001,255.55,256.5522,,,,,,,,,,,,,,,,,,,,,,,,,,256.5522,257.1349,z,1,0.5637,,257.1349,257.135,,0,100,100,234,1,235,düzöt,,,,,5,harmonic,2.05,nw,z,,,,,,,
,,,,,,,,,,,bahadir altun,001,2023-11-07_21h31.56.649,vowel_harmony,2023.2.3,MacIntel,60.0024001,257.1355,258.1347,,,,,,,,,,,,,,,,,,,,,,,,,,258.1348,258.7508,z,1,0.5985,,258.7509,258.751,,0,101,101,311,1,312,dedya,,,,,5,notharmonic,1.9,nw,z,,,,,,,
,,,,,,,,,,,bahadir altun,001,2023-11-07_21h31.56.649,vowel_harmony,2023.2.3,MacIntel,60.0024001,258.7513,259.7494,,,,,,,,,,,,,,,,,,,,,,,,,,259.7495,260.349,z,1,0.584,,260.3491,260.3492,,0,102,102,243,1,244,korguf,,,,,6,harmonic,2,nw,z,,,,,,,
,,,,,,,,,,,bahadir altun,001,2023-11-07_21h31.56.649,vowel_harmony,2023.2.3,MacIntel,60.0024001,260.3496,261.3522,,,,,,,,,,,,,,,,,,,,,,,,,,261.3524,262.0342,m,1,0.6659,,262.0343,262.0343,,0,103,103,156,1,157,medya,1784,81.0579,1495,0.1634,5,notharmonic,1.35,word,m,,,,,,,
,,,,,,,,,,,bahadir altun,001,2023-11-07_21h31.56.649,vowel_harmony,2023.2.3,MacIntel,60.0024001,262.0346,263.0336,,,,,,,,,,,,,,,,,,,,,,,,,,263.0336,263.6012,m,1,0.5538,,263.6012,263.6015,,0,104,104,52,1,53,resim,2506,113.8627,2188,0.2392,5,harmonic,1.4,word,m,,,,,,,
,,,,,,,,,,,bahadir altun,001,2023-11-07_21h31.56.649,vowel_harmony,2023.2.3,MacIntel,60.0024001,263.6019,264.6017,,,,,,,,,,,,,,,,,,,,,,,,,,264.6018,265.2654,z,1,0.6494,,265.2654,265.2655,,0,105,105,222,1,223,gelü,,,,,4,harmonic,1.75,nw,z,,,,,,,
,,,,,,,,,,,bahadir altun,001,2023-11-07_21h31.56.649,vowel_harmony,2023.2.3,MacIntel,60.0024001,265.2659,266.269,,,,,,,,,,,,,,,,,,,,,,,,,,266.2691,266.9861,m,1,0.7049,,266.9862,266.9862,,0,106,106,8,1,9,güven,1433,65.1098,1300,0.1421,5,harmonic,1.35,word,m,,,,,,,
,,,,,,,,,,,bahadir altun,001,2023-11-07_21h31.56.649,vowel_harmony,2023.2.3,MacIntel,60.0024001,266.9868,267.9843,,,,,,,,,,,,,,,,,,,,,,,,,,267.9844,268.6339,z,1,0.638,,268.634,268.6341,,0,107,107,254,1,255,millek,,,,,6,harmonic,1.8,nw,z,,,,,,,
,,,,,,,,,,,bahadir altun,001,2023-11-07_21h31.56.649,vowel_harmony,2023.2.3,MacIntel,60.0024001,268.6345,269.6322,,,,,,,,,,,,,,,,,,,,,,,,,,269.6322,270.301,z,1,0.6534,,270.3011,270.3011,,0,108,108,192,1,193,vecö,,,,,4,harmonic,1.95,nw,z,,,,,,,
,,,,,,,,,,,bahadir altun,001,2023-11-07_21h31.56.649,vowel_harmony,2023.2.3,MacIntel,60.0024001,270.3017,271.3009,,,,,,,,,,,,,,,,,,,,,,,,,,271.3009,272.0529,m,1,0.7422,,272.053,272.0531,,0,109,109,34,1,35,hoca,1893,86.0104,1526,0.1668,4,harmonic,1.45,word,m,,,,,,,
,,,,,,,,,,,bahadir altun,001,2023-11-07_21h31.56.649,vowel_harmony,2023.2.3,MacIntel,60.0024001,272.0537,273.0517,,,,,,,,,,,,,,,,,,,,,,,,,,273.0519,273.8685,z,1,0.7951,,273.8687,273.8687,,0,110,110,350,1,351,resun,,,,,5,notharmonic,1.85,nw,z,,,,,,,
,,,,,,,,,,,bahadir altun,001,2023-11-07_21h31.56.649,vowel_harmony,2023.2.3,MacIntel,60.0024001,273.869,274.8684,,,,,,,,,,,,,,,,,,,,,,,,,,274.8684,275.9687,m,1,1.0807,,275.9688,275.9688,,0,111,111,107,1,108,merak,5806,263.8016,5524,0.6039,5,notharmonic,1.65,word,m,,,,,,,
,,,,,,,,,,,bahadir altun,001,2023-11-07_21h31.56.649,vowel_harmony,2023.2.3,MacIntel,60.0024001,275.9695,276.9659,,,,,,,,,,,,,,,,,,,,,,,,,,276.9659,277.8519,m,1,0.8661,,277.8519,277.852,,0,112,112,154,1,155,sakin,1855,84.2838,1635,0.1787,5,notharmonic,1.05,word,m,,,,,,,
,,,,,,,,,,,bahadir altun,001,2023-11-07_21h31.56.649,vowel_harmony,2023.2.3,MacIntel,60.0024001,277.8523,278.8527,,,,,,,,,,,,,,,,,,,,,,,,,,278.8528,279.5193,z,1,0.6557,,279.5196,279.52,,0,113,113,327,1,328,parkeş,,,,,6,notharmonic,1.9,nw,z,,,,,,,
,,,,,,,,,,,bahadir altun,001,2023-11-07_21h31.56.649,vowel_harmony,2023.2.3,MacIntel,60.0024001,279.5205,280.5179,,,,,,,,,,,,,,,,,,,,,,,,,,280.5181,281.1351,z,1,0.5977,,281.1352,281.1353,,0,114,114,283,1,284,fahe,,,,,4,notharmonic,1.95,nw,z,,,,,,,
,,,,,,,,,,,bahadir altun,001,2023-11-07_21h31.56.649,vowel_harmony,2023.2.3,MacIntel,60.0024001,281.1357,282.1355,,,,,,,,,,,,,,,,,,,,,,,,,,282.1356,282.7358,m,1,0.5807,,282.7358,282.7359,,0,115,115,100,1,101,düşman,1065,48.3894,962,0.1052,6,notharmonic,1.85,word,m,,,,,,,
,,,,,,,,,,,bahadir altun,001,2023-11-07_21h31.56.649,vowel_harmony,2023.2.3,MacIntel,60.0024001,282.7365,283.7332,,,,,,,,,,,,,,,,,,,,,,,,,,283.7332,284.6183,z,1,0.8723,,284.6184,284.6186,,0,116,116,292,1,293,kinam,,,,,5,notharmonic,1.85,nw,z,,,,,,,
,,,,,,,,,,,bahadir altun,001,2023-11-07_21h31.56.649,vowel_harmony,2023.2.3,MacIntel,60.0024001,284.6189,285.618,,,,,,,,,,,,,,,,,,,,,,,,,,285.6182,286.2502,z,1,0.6182,,286.2503,286.2504,,0,117,117,355,1,356,adül,,,,,4,notharmonic,1.85,nw,z,,,,,,,
,,,,,,,,,,,bahadir altun,001,2023-11-07_21h31.56.649,vowel_harmony,2023.2.3,MacIntel,60.0024001,286.2507,287.2512,,,,,,,,,,,,,,,,,,,,,,,,,,287.2513,287.835,m,1,0.5669,,287.8351,287.8352,,0,118,118,138,1,139,kardeş,1270,57.7038,1174,0.1283,6,notharmonic,1.9,word,m,,,,,,,
,,,,,,,,,,,bahadir altun,001,2023-11-07_21h31.56.649,vowel_harmony,2023.2.3,MacIntel,60.0024001,287.8358,288.8346,,,,,,,,,,,,,,,,,,,,,,,,,,288.8347,289.5645,m,1,0.716,,289.5645,289.5646,,0,119,119,29,1,30,huzur,1911,86.8283,1799,0.1967,5,harmonic,1.8,word,m,,,,,,,
,,,,,,,,,,,bahadir altun,001,2023-11-07_21h31.56.649,vowel_harmony,2023.2.3,MacIntel,60.0024001,289.565,290.5676,,,,,,,,,,,,,,,,,,,,,,,,,,290.5677,291.6689,m,1,1.0821,,291.669,299.922,space,0,120,120,66,1,67,sanık,768,34.8949,699,0.0764,5,harmonic,1.85,word,m,8.2317,,,,,,
,,,,,,,,,,,bahadir altun,001,2023-11-07_21h31.56.649,vowel_harmony,2023.2.3,MacIntel,60.0024001,299.9339,300.9357,,,,,,,,,,,,,,,,,,,,,,,,,,300.9358,301.7018,z,1,0.7498,,301.702,301.702,,0,121,121,295,1,296,haylin,,,,,6,notharmonic,1.8,nw,z,,,,,,,
,,,,,,,,,,,bahadir altun,001,2023-11-07_21h31.56.649,vowel_harmony,2023.2.3,MacIntel,60.0024001,301.7026,302.7008,,,,,,,,,,,,,,,,,,,,,,,,,,302.7009,304.1517,m,1,1.4335,,304.1517,304.1517,,0,122,122,24,1,25,yorgun,1153,52.3877,1108,0.1211,6,harmonic,1.55,word,m,,,,,,,
,,,,,,,,,,,bahadir altun,001,2023-11-07_21h31.56.649,vowel_harmony,2023.2.3,MacIntel,60.0024001,304.1647,305.1689,,,,,,,,,,,,,,,,,,,,,,,,,,305.1689,305.8514,z,1,0.6652,,305.8514,305.8515,,0,123,123,326,1,327,ailo,,,,,4,notharmonic,1.75,nw,z,,,,,,,
,,,,,,,,,,,bahadir altun,001,2023-11-07_21h31.56.649,vowel_harmony,2023.2.3,MacIntel,60.0024001,305.8519,306.8517,,,,,,,,,,,,,,,,,,,,,,,,,,306.8519,307.4502,z,1,0.5837,,307.4502,307.4504,,0,124,124,213,1,214,kaun,,,,,4,harmonic,1.7,nw,z,,,,,,,
,,,,,,,,,,,bahadir altun,001,2023-11-07_21h31.56.649,vowel_harmony,2023.2.3,MacIntel,60.0024001,307.4508,308.4523,,,,,,,,,,,,,,,,,,,,,,,,,,308.4523,309.218,m,1,0.7521,,309.2181,309.2182,,0,125,125,116,1,117,daire,621,28.2158,503,0.055,5,notharmonic,1,word,m,,,,,,,
,,,,,,,,,,,bahadir altun,001,2023-11-07_21h31.56.649,vowel_harmony,2023.2.3,MacIntel,60.0024001,309.2185,310.2177,,,,,,,,,,,,,,,,,,,,,,,,,,310.2177,310.8492,z,1,0.6205,,310.8493,310.8493,,0,126,126,313,1,314,ikas,,,,,4,notharmonic,1.85,nw,z,,,,,,,
,,,,,,,,,,,bahadir altun,001,2023-11-07_21h31.56.649,vowel_harmony,2023.2.3,MacIntel,60.0024001,310.8496,311.852,,,,,,,,,,,,,,,,,,,,,,,,,,311.8521,312.5502,m,1,0.6798,,312.5503,312.5503,,0,127,127,104,1,105,cevap,5232,237.7213,4822,0.5271,5,notharmonic,1.85,word,m,,,,,,,
,,,,,,,,,,,bahadir altun,001,2023-11-07_21h31.56.649,vowel_harmony,2023.2.3,MacIntel,60.0024001,312.5506,313.5529,,,,,,,,,,,,,,,,,,,,,,,,,,313.553,314.2515,z,1,0.6806,,314.2516,314.2517,,0,128,128,343,1,344,tarne,,,,,5,notharmonic,1.85,nw,z,,,,,,,
,,,,,,,,,,,bahadir altun,001,2023-11-07_21h31.56.649,vowel_harmony,2023.2.3,MacIntel,60.0024001,314.252,315.2515,,,,,,,,,,,,,,,,,,,,,,,,,,315.2516,315.8508,z,1,0.5809,,315.8508,315.8508,,0,129,129,282,1,283,taöz,,,,,4,notharmonic,1.9,nw,z,,,,,,,
,,,,,,,,,,,bahadir altun,001,2023-11-07_21h31.56.649,vowel_harmony,2023.2.3,MacIntel,60.0024001,315.8512,316.8524,,,,,,,,,,,,,,,,,,,,,,,,,,316.8525,317.8358,z,1,0.9658,,317.8358,317.8359,,0,130,130,186,1,187,habık,,,,,5,harmonic,1.9,nw,z,,,,,,,
,,,,,,,,,,,bahadir altun,001,2023-11-07_21h31.56.649,vowel_harmony,2023.2.3,MacIntel,60.0024001,317.8363,318.8346,,,,,,,,,,,,,,,,,,,,,,,,,,318.8346,319.6498,z,1,0.798,,319.6498,319.6499,,0,131,131,340,1,341,minya,,,,,5,notharmonic,1.95,nw,z,,,,,,,
,,,,,,,,,,,bahadir altun,001,2023-11-07_21h31.56.649,vowel_harmony,2023.2.3,MacIntel,60.0024001,319.6503,320.6525,,,,,,,,,,,,,,,,,,,,,,,,,,320.6527,321.3345,z,1,0.6695,,321.3346,321.3346,,0,132,132,230,1,231,bikir,,,,,5,harmonic,1.75,nw,z,,,,,,,
,,,,,,,,,,,bahadir altun,001,2023-11-07_21h31.56.649,vowel_harmony,2023.2.3,MacIntel,60.0024001,321.3353,322.3353,,,,,,,,,,,,,,,,,,,,,,,,,,322.3354,323.2165,m,1,0.8688,,323.2166,323.2167,,0,133,133,60,1,61,doğu,2105,95.6429,1823,0.1993,4,harmonic,1.05,word,m,,,,,,,
,,,,,,,,,,,bahadir altun,001,2023-11-07_21h31.56.649,vowel_harmony,2023.2.3,MacIntel,60.0024001,323.217,324.2187,,,,,,,,,,,,,,,,,,,,,,,,,,324.2189,324.8992,m,1,0.6665,,324.8993,324.8993,,0,134,134,114,1,115,nisan,2321,105.457,2044,0.2235,5,notharmonic,1.6,word,m,,,,,,,
,,,,,,,,,,,bahadir altun,001,2023-11-07_21h31.56.649,vowel_harmony,2023.2.3,MacIntel,60.0024001,324.8996,325.9023,,,,,,,,,,,,,,,,,,,,,,,,,,325.9024,326.5501,m,1,0.627,,326.5501,326.5501,,0,135,135,168,1,169,kilo,3389,153.9827,2646,0.2893,4,notharmonic,1.65,word,m,,,,,,,
,,,,,,,,,,,bahadir altun,001,2023-11-07_21h31.56.649,vowel_harmony,2023.2.3,MacIntel,60.0024001,326.5505,327.552,,,,,,,,,,,,,,,,,,,,,,,,,,327.5521,328.2356,m,1,0.668,,328.2357,328.2358,,0,136,136,160,1,161,hakem,603,27.3979,473,0.0517,5,notharmonic,1.3,word,m,,,,,,,
,,,,,,,,,,,bahadir altun,001,2023-11-07_21h31.56.649,vowel_harmony,2023.2.3,MacIntel,60.0024001,328.2363,329.2348,,,,,,,,,,,,,,,,,,,,,,,,,,329.2349,329.7675,m,1,0.5177,,329.7676,329.7677,,0,137,137,149,1,150,ceza,2611,118.6335,2169,0.2371,4,notharmonic,1.5,word,m,,,,,,,
,,,,,,,,,,,bahadir altun,001,2023-11-07_21h31.56.649,vowel_harmony,2023.2.3,MacIntel,60.0024001,329.7681,330.7656,,,,,,,,,,,,,,,,,,,,,,,,,,330.7657,331.4512,z,1,0.6699,,331.4513,331.4513,,0,138,138,232,1,233,kanur,,,,,5,harmonic,1.7,nw,z,,,,,,,
,,,,,,,,,,,bahadir altun,001,2023-11-07_21h31.56.649,vowel_harmony,2023.2.3,MacIntel,60.0024001,331.4516,332.4524,,,,,,,,,,,,,,,,,,,,,,,,,,332.4524,333.0856,m,1,0.615,,333.0857,333.0857,,0,139,139,67,1,68,bayram,1948,88.5094,1648,0.1802,6,harmonic,1.85,word,m,,,,,,,
,,,,,,,,,,,bahadir altun,001,2023-11-07_21h31.56.649,vowel_harmony,2023.2.3,MacIntel,60.0024001,333.0861,334.0852,,,,,,,,,,,,,,,,,,,,,,,,,,334.0853,334.8022,m,1,0.7067,,334.8024,334.8025,,0,140,140,131,1,132,hakim,1677,76.1962,1559,0.1704,5,notharmonic,1,word,m,,,,,,,
,,,,,,,,,,,bahadir altun,001,2023-11-07_21h31.56.649,vowel_harmony,2023.2.3,MacIntel,60.0024001,334.8027,335.802,,,,,,,,,,,,,,,,,,,,,,,,,,335.8021,336.4994,z,1,0.6835,,336.4995,336.4996,,0,141,141,319,1,320,biho,,,,,4,notharmonic,2,nw,z,,,,,,,
,,,,,,,,,,,bahadir altun,001,2023-11-07_21h31.56.649,vowel_harmony,2023.2.3,MacIntel,60.0024001,336.4999,337.5003,,,,,,,,,,,,,,,,,,,,,,,,,,337.5003,338.1173,m,1,0.6074,,338.1173,338.1173,,0,142,142,135,1,136,hafif,3355,152.4379,3101,0.339,5,notharmonic,1.75,word,m,,,,,,,
,,,,,,,,,,,bahadir altun,001,2023-11-07_21h31.56.649,vowel_harmony,2023.2.3,MacIntel,60.0024001,338.1176,339.1192,,,,,,,,,,,,,,,,,,,,,,,,,,339.1192,339.7013,m,1,0.5631,,339.7013,339.7013,,0,143,143,113,1,114,model,1200,54.5232,1082,0.1183,5,notharmonic,1.75,word,m,,,,,,,
,,,,,,,,,,,bahadir altun,001,2023-11-07_21h31.56.649,vowel_harmony,2023.2.3,MacIntel,60.0024001,339.7017,340.7008,,,,,,,,,,,,,,,,,,,,,,,,,,340.7009,341.2511,z,1,0.5344,,341.2513,341.2514,,0,144,144,339,1,340,asmel,,,,,5,notharmonic,1.95,nw,z,,,,,,,
,,,,,,,,,,,bahadir altun,001,2023-11-07_21h31.56.649,vowel_harmony,2023.2.3,MacIntel,60.0024001,341.2519,342.2525,,,,,,,,,,,,,,,,,,,,,,,,,,342.2525,342.9348,z,1,0.6628,,342.9348,342.9348,,0,145,145,348,1,349,aife,,,,,4,notharmonic,1.75,nw,z,,,,,,,
,,,,,,,,,,,bahadir altun,001,2023-11-07_21h31.56.649,vowel_harmony,2023.2.3,MacIntel,60.0024001,342.9351,343.9354,,,,,,,,,,,,,,,,,,,,,,,,,,343.9355,344.5509,z,1,0.5988,,344.5509,344.551,,0,146,146,250,1,251,kakuk,,,,,5,harmonic,1.9,nw,z,,,,,,,
,,,,,,,,,,,bahadir altun,001,2023-11-07_21h31.56.649,vowel_harmony,2023.2.3,MacIntel,60.0024001,344.5513,345.553,,,,,,,,,,,,,,,,,,,,,,,,,,345.5531,346.2656,m,1,0.6988,,346.2658,346.2658,,0,147,147,144,1,145,garip,2567,116.6343,2355,0.2574,5,notharmonic,1.65,word,m,,,,,,,
,,,,,,,,,,,bahadir altun,001,2023-11-07_21h31.56.649,vowel_harmony,2023.2.3,MacIntel,60.0024001,346.2662,347.2672,,,,,,,,,,,,,,,,,,,,,,,,,,347.2672,347.8682,m,1,0.58,,347.8682,347.8684,,0,148,148,25,1,26,rapor,703,31.9415,617,0.0675,5,harmonic,1.8,word,m,,,,,,,
,,,,,,,,,,,bahadir altun,001,2023-11-07_21h31.56.649,vowel_harmony,2023.2.3,MacIntel,60.0024001,347.8688,348.8676,,,,,,,,,,,,,,,,,,,,,,,,,,348.8677,349.4326,m,1,0.5509,,349.4326,349.4327,,0,149,149,53,1,54,gelir,7578,344.3143,7014,0.7668,5,harmonic,1.4,word,m,,,,,,,
,,,,,,,,,,,bahadir altun,001,2023-11-07_21h31.56.649,vowel_harmony,2023.2.3,MacIntel,60.0024001,349.433,350.4332,,,,,,,,,,,,,,,,,,,,,,,,,,350.4332,351.002,z,1,0.5532,,351.002,351.0021,,0,150,150,318,1,319,yorgün,,,,,6,notharmonic,1.9,nw,z,,,,,,,
,,,,,,,,,,,bahadir altun,001,2023-11-07_21h31.56.649,vowel_harmony,2023.2.3,MacIntel,60.0024001,351.0026,352.0008,,,,,,,,,,,,,,,,,,,,,,,,,,352.0009,352.6671,z,1,0.6498,,352.6672,352.6673,,0,151,151,181,1,182,rapkı,,,,,5,harmonic,1.85,nw,z,,,,,,,
,,,,,,,,,,,bahadir altun,001,2023-11-07_21h31.56.649,vowel_harmony,2023.2.3,MacIntel,60.0024001,352.6675,353.6659,,,,,,,,,,,,,,,,,,,,,,,,,,353.666,354.3988,m,1,0.7191,,354.3989,354.399,,0,152,152,95,1,96,takip,4996,226.9984,4651,0.5084,5,notharmonic,1.55,word,m,,,,,,,
,,,,,,,,,,,bahadir altun,001,2023-11-07_21h31.56.649,vowel_harmony,2023.2.3,MacIntel,60.0024001,354.3992,355.3989,,,,,,,,,,,,,,,,,,,,,,,,,,355.3989,355.966,m,1,0.5466,,355.9661,355.9662,,0,153,153,45,1,46,bilgi,5981,271.7529,5353,0.5852,5,harmonic,1.5,word,m,,,,,,,
,,,,,,,,,,,bahadir altun,001,2023-11-07_21h31.56.649,vowel_harmony,2023.2.3,MacIntel,60.0024001,355.9663,356.9685,,,,,,,,,,,,,,,,,,,,,,,,,,356.9686,357.6523,z,1,0.6697,,357.6523,357.6523,,0,154,154,301,1,302,mezak,,,,,5,notharmonic,1.8,nw,z,,,,,,,
,,,,,,,,,,,bahadir altun,001,2023-11-07_21h31.56.649,vowel_harmony,2023.2.3,MacIntel,60.0024001,357.6527,358.6505,,,,,,,,,,,,,,,,,,,,,,,,,,358.6505,359.3187,m,1,0.6513,,359.3187,359.3189,,0,155,155,152,1,153,tedavi,1865,84.7382,1597,0.1746,6,notharmonic,1.8,word,m,,,,,,,
,,,,,,,,,,,bahadir altun,001,2023-11-07_21h31.56.649,vowel_harmony,2023.2.3,MacIntel,60.0024001,359.3193,360.3167,,,,,,,,,,,,,,,,,,,,,,,,,,360.3167,360.8523,m,1,0.5254,,360.8523,360.8524,,0,156,156,76,1,77,ilişki,1675,76.1054,1524,0.1666,6,harmonic,1.8,word,m,,,,,,,
,,,,,,,,,,,bahadir altun,001,2023-11-07_21h31.56.649,vowel_harmony,2023.2.3,MacIntel,60.0024001,360.8529,361.8515,,,,,,,,,,,,,,,,,,,,,,,,,,361.8516,362.4512,m,1,0.5809,,362.4512,362.4514,,0,157,157,65,1,66,fikir,2552,115.9528,2413,0.2638,5,harmonic,1.9,word,m,,,,,,,
,,,,,,,,,,,bahadir altun,001,2023-11-07_21h31.56.649,vowel_harmony,2023.2.3,MacIntel,60.0024001,362.4516,363.4513,,,,,,,,,,,,,,,,,,,,,,,,,,363.4514,364.0177,z,1,0.5522,,364.0178,364.0179,,0,158,158,247,1,248,hafgın,,,,,6,harmonic,2,nw,z,,,,,,,
,,,,,,,,,,,bahadir altun,001,2023-11-07_21h31.56.649,vowel_harmony,2023.2.3,MacIntel,60.0024001,364.0183,365.0155,,,,,,,,,,,,,,,,,,,,,,,,,,365.0155,365.6347,z,1,0.6056,,365.6347,365.6347,,0,159,159,290,1,291,aipa,,,,,4,notharmonic,1.95,nw,z,,,,,,,
,,,,,,,,,,,bahadir altun,001,2023-11-07_21h31.56.649,vowel_harmony,2023.2.3,MacIntel,60.0024001,365.6351,366.6351,,,,,,,,,,,,,,,,,,,,,,,,,,366.6352,367.6507,z,1,1.0039,,367.6508,367.6509,,0,160,160,358,1,359,yangin,,,,,6,notharmonic,1.9,nw,z,,,,,,,
,,,,,,,,,,,bahadir altun,001,2023-11-07_21h31.56.649,vowel_harmony,2023.2.3,MacIntel,60.0024001,367.6512,368.6513,,,,,,,,,,,,,,,,,,,,,,,,,,368.6514,369.368,m,1,0.6966,,369.3681,369.3681,,0,161,161,123,1,124,haber,4559,207.1429,4151,0.4538,5,notharmonic,1.85,word,m,,,,,,,
,,,,,,,,,,,bahadir altun,001,2023-11-07_21h31.56.649,vowel_harmony,2023.2.3,MacIntel,60.0024001,369.3686,370.3688,,,,,,,,,,,,,,,,,,,,,,,,,,370.3689,371.0017,z,1,0.6139,,371.0018,371.0019,,0,162,162,258,1,259,karıha,,,,,6,harmonic,1.75,nw,z,,,,,,,
,,,,,,,,,,,bahadir altun,001,2023-11-07_21h31.56.649,vowel_harmony,2023.2.3,MacIntel,60.0024001,371.0022,372.0001,,,,,,,,,,,,,,,,,,,,,,,,,,372.0001,372.8987,z,1,0.884,,372.8987,372.8988,,0,163,163,195,1,196,netüm,,,,,5,harmonic,1.95,nw,z,,,,,,,
,,,,,,,,,,,bahadir altun,001,2023-11-07_21h31.56.649,vowel_harmony,2023.2.3,MacIntel,60.0024001,372.8991,373.9031,,,,,,,,,,,,,,,,,,,,,,,,,,373.9031,374.6358,z,1,0.7149,,374.6361,374.6362,,0,164,164,266,1,267,düştön,,,,,6,harmonic,1.9,nw,z,,,,,,,
,,,,,,,,,,,bahadir altun,001,2023-11-07_21h31.56.649,vowel_harmony,2023.2.3,MacIntel,60.0024001,374.6368,375.6328,,,,,,,,,,,,,,,,,,,,,,,,,,375.6329,377.0821,m,1,1.4363,,377.0821,377.0822,,0,165,165,137,1,138,parti,2613,118.7244,2059,0.2251,5,notharmonic,1.8,word,m,,,,,,,
,,,,,,,,,,,bahadir altun,001,2023-11-07_21h31.56.649,vowel_harmony,2023.2.3,MacIntel,60.0024001,377.0826,378.0854,,,,,,,,,,,,,,,,,,,,,,,,,,378.0855,378.718,z,1,0.6178,,378.7182,378.7183,,0,166,166,323,1,324,devak,,,,,5,notharmonic,1.75,nw,z,,,,,,,
,,,,,,,,,,,bahadir altun,001,2023-11-07_21h31.56.649,vowel_harmony,2023.2.3,MacIntel,60.0024001,378.7187,379.7189,,,,,,,,,,,,,,,,,,,,,,,,,,379.7189,380.3853,z,1,0.649,,380.3853,380.3855,,0,167,167,253,1,254,meslet,,,,,6,harmonic,1.85,nw,z,,,,,,,
,,,,,,,,,,,bahadir altun,001,2023-11-07_21h31.56.649,vowel_harmony,2023.2.3,MacIntel,60.0024001,380.3859,381.3856,,,,,,,,,,,,,,,,,,,,,,,,,,381.3856,382.0855,m,1,0.6875,,382.0855,382.0856,,0,168,168,73,1,74,millet,1658,75.3329,1508,0.1649,6,harmonic,1.7,word,m,,,,,,,
,,,,,,,,,,,bahadir altun,001,2023-11-07_21h31.56.649,vowel_harmony,2023.2.3,MacIntel,60.0024001,382.0862,383.0849,,,,,,,,,,,,,,,,,,,,,,,,,,383.085,383.768,m,1,0.6669,,383.7681,383.7683,,0,169,169,59,1,60,köpek,1044,47.4352,901,0.0985,5,harmonic,1.75,word,m,,,,,,,
,,,,,,,,,,,bahadir altun,001,2023-11-07_21h31.56.649,vowel_harmony,2023.2.3,MacIntel,60.0024001,383.7688,384.7684,,,,,,,,,,,,,,,,,,,,,,,,,,384.7684,385.3989,m,1,0.6201,,385.3989,385.3992,,0,170,170,158,1,159,klasik,1871,85.0108,1734,0.1896,6,notharmonic,2,word,m,,,,,,,
,,,,,,,,,,,bahadir altun,001,2023-11-07_21h31.56.649,vowel_harmony,2023.2.3,MacIntel,60.0024001,385.3996,386.4012,,,,,,,,,,,,,,,,,,,,,,,,,,386.4012,386.9984,m,1,0.5885,,386.9985,386.9986,,0,171,171,57,1,58,bölüm,1910,86.7828,1605,0.1755,5,harmonic,1.45,word,m,,,,,,,
,,,,,,,,,,,bahadir altun,001,2023-11-07_21h31.56.649,vowel_harmony,2023.2.3,MacIntel,60.0024001,386.9992,388.001,,,,,,,,,,,,,,,,,,,,,,,,,,388.001,388.651,m,1,0.6343,,388.651,388.6511,,0,172,172,140,1,141,sahil,481,21.8547,443,0.0484,5,notharmonic,1.45,word,m,,,,,,,
,,,,,,,,,,,bahadir altun,001,2023-11-07_21h31.56.649,vowel_harmony,2023.2.3,MacIntel,60.0024001,388.6514,389.6515,,,,,,,,,,,,,,,,,,,,,,,,,,389.6516,390.2508,m,1,0.5813,,390.251,390.2512,,0,173,173,177,1,178,tekrar,10788,490.1639,9352,1.0224,6,notharmonic,1.85,word,m,,,,,,,
,,,,,,,,,,,bahadir altun,001,2023-11-07_21h31.56.649,vowel_harmony,2023.2.3,MacIntel,60.0024001,390.2516,391.2511,,,,,,,,,,,,,,,,,,,,,,,,,,391.2512,392.2673,z,1,0.9996,,392.2673,392.2674,,0,174,174,241,1,242,porlam,,,,,6,harmonic,2,nw,z,,,,,,,
,,,,,,,,,,,bahadir altun,001,2023-11-07_21h31.56.649,vowel_harmony,2023.2.3,MacIntel,60.0024001,392.2677,393.2656,,,,,,,,,,,,,,,,,,,,,,,,,,393.2657,394.9512,m,1,1.6763,,394.9512,394.9514,,0,175,175,139,1,140,lira,1253,56.9314,947,0.1035,4,notharmonic,1.4,word,m,,,,,,,
,,,,,,,,,,,bahadir altun,001,2023-11-07_21h31.56.649,vowel_harmony,2023.2.3,MacIntel,60.0024001,394.9518,395.9492,,,,,,,,,,,,,,,,,,,,,,,,,,395.9493,396.8338,z,1,0.8719,,396.8339,396.834,,0,176,176,196,1,197,bilön,,,,,5,harmonic,1.9,nw,z,,,,,,,
,,,,,,,,,,,bahadir altun,001,2023-11-07_21h31.56.649,vowel_harmony,2023.2.3,MacIntel,60.0024001,396.8343,397.8355,,,,,,,,,,,,,,,,,,,,,,,,,,397.8355,398.4485,z,1,0.6011,,398.4486,398.4486,,0,177,177,324,1,325,pakeh,,,,,5,notharmonic,1.9,nw,z,,,,,,,
,,,,,,,,,,,bahadir altun,001,2023-11-07_21h31.56.649,vowel_harmony,2023.2.3,MacIntel,60.0024001,398.4487,399.4527,,,,,,,,,,,,,,,,,,,,,,,,,,399.4528,400.1492,m,1,0.6852,,400.1492,400.1493,,0,178,178,49,1,50,şeker,4708,213.9128,4170,0.4559,5,harmonic,1.6,word,m,,,,,,,
,,,,,,,,,,,bahadir altun,001,2023-11-07_21h31.56.649,vowel_harmony,2023.2.3,MacIntel,60.0024001,400.1496,401.1522,,,,,,,,,,,,,,,,,,,,,,,,,,401.1524,401.782,m,1,0.6158,,401.7821,401.7821,,0,179,179,157,1,158,aktif,1062,48.2531,986,0.1078,5,notharmonic,1.9,word,m,,,,,,,
,,,,,,,,,,,bahadir altun,001,2023-11-07_21h31.56.649,vowel_harmony,2023.2.3,MacIntel,60.0024001,401.7826,402.7863,,,,,,,,,,,,,,,,,,,,,,,,,,402.7865,403.632,z,1,0.8316,,403.632,403.6321,,0,180,180,300,1,301,nilgi,,,,,5,notharmonic,1.85,nw,z,,,,,,,
,,,,,,,,,,,bahadir altun,001,2023-11-07_21h31.56.649,vowel_harmony,2023.2.3,MacIntel,60.0024001,403.6325,404.6341,,,,,,,,,,,,,,,,,,,,,,,,,,404.6342,405.2985,m,1,0.6486,,405.2986,405.2988,,0,181,181,86,1,87,gerçek,8983,408.1519,8058,0.8809,6,harmonic,1.7,word,m,,,,,,,
,,,,,,,,,,,bahadir altun,001,2023-11-07_21h31.56.649,vowel_harmony,2023.2.3,MacIntel,60.0024001,405.2992,406.3016,,,,,,,,,,,,,,,,,,,,,,,,,,406.3016,406.8185,m,1,0.4987,,406.8185,406.8185,,0,182,182,128,1,129,tatil,2152,97.7783,1865,0.2039,5,notharmonic,1.7,word,m,,,,,,,
,,,,,,,,,,,bahadir altun,001,2023-11-07_21h31.56.649,vowel_harmony,2023.2.3,MacIntel,60.0024001,406.8189,407.8167,,,,,,,,,,,,,,,,,,,,,,,,,,407.8168,408.3489,m,1,0.5194,,408.3489,408.349,,0,183,183,0,1,1,sanat,3121,141.8059,2485,0.2717,5,harmonic,1.4,word,m,,,,,,,
,,,,,,,,,,,bahadir altun,001,2023-11-07_21h31.56.649,vowel_harmony,2023.2.3,MacIntel,60.0024001,408.3495,409.3494,,,,,,,,,,,,,,,,,,,,,,,,,,409.3494,410.0021,z,1,0.6282,,410.0021,410.0022,,0,184,184,341,1,342,işgan,,,,,5,notharmonic,1.95,nw,z,,,,,,,
,,,,,,,,,,,bahadir altun,001,2023-11-07_21h31.56.649,vowel_harmony,2023.2.3,MacIntel,60.0024001,410.0025,410.999,,,,,,,,,,,,,,,,,,,,,,,,,,410.9993,411.5653,z,1,0.5537,,411.5654,411.5655,,0,185,185,202,1,203,güvin,,,,,5,harmonic,1.95,nw,z,,,,,,,
,,,,,,,,,,,bahadir altun,001,2023-11-07_21h31.56.649,vowel_harmony,2023.2.3,MacIntel,60.0024001,411.5657,412.5659,,,,,,,,,,,,,,,,,,,,,,,,,,412.566,413.2357,m,1,0.6534,,413.2357,413.2358,,0,186,186,167,1,168,adalet,1611,73.1975,1388,0.1517,6,notharmonic,1.65,word,m,,,,,,,
,,,,,,,,,,,bahadir altun,001,2023-11-07_21h31.56.649,vowel_harmony,2023.2.3,MacIntel,60.0024001,413.2361,414.2354,,,,,,,,,,,,,,,,,,,,,,,,,,414.2354,415.0343,z,1,0.7872,,415.0348,415.0349,,0,187,187,280,1,281,adalek,,,,,6,notharmonic,1.85,nw,z,,,,,,,
,,,,,,,,,,,bahadir altun,001,2023-11-07_21h31.56.649,vowel_harmony,2023.2.3,MacIntel,60.0024001,415.0355,416.0344,,,,,,,,,,,,,,,,,,,,,,,,,,416.0345,416.768,m,1,0.7155,,416.768,416.7681,,0,188,188,106,1,107,esnaf,315,14.3124,284,0.031,5,notharmonic,1.55,word,m,,,,,,,
,,,,,,,,,,,bahadir altun,001,2023-11-07_21h31.56.649,vowel_harmony,2023.2.3,MacIntel,60.0024001,416.7687,417.7687,,,,,,,,,,,,,,,,,,,,,,,,,,417.7688,418.5176,m,1,0.7355,,418.5177,418.5177,,0,189,189,58,1,59,ayak,2143,97.3694,1931,0.2111,4,harmonic,1,word,m,,,,,,,
,,,,,,,,,,,bahadir altun,001,2023-11-07_21h31.56.649,vowel_harmony,2023.2.3,MacIntel,60.0024001,418.518,419.5182,,,,,,,,,,,,,,,,,,,,,,,,,,419.5183,420.1346,z,1,0.5994,,420.1346,420.1348,,0,190,190,224,1,225,ertre,,,,,5,harmonic,1.95,nw,z,,,,,,,
,,,,,,,,,,,bahadir altun,001,2023-11-07_21h31.56.649,vowel_harmony,2023.2.3,MacIntel,60.0024001,420.1353,421.1354,,,,,,,,,,,,,,,,,,,,,,,,,,421.1354,422.4173,m,1,1.2685,,422.4173,422.4173,,0,191,191,126,1,127,adet,4367,198.4192,3768,0.4119,4,notharmonic,1.4,word,m,,,,,,,
,,,,,,,,,,,bahadir altun,001,2023-11-07_21h31.56.649,vowel_harmony,2023.2.3,MacIntel,60.0024001,422.4251,423.4154,,,,,,,,,,,,,,,,,,,,,,,,,,423.4154,424.366,m,1,0.9422,,424.366,424.3661,,0,192,192,174,1,175,bugün,13879,630.6067,12842,1.4039,5,notharmonic,1.85,word,m,,,,,,,
,,,,,,,,,,,bahadir altun,001,2023-11-07_21h31.56.649,vowel_harmony,2023.2.3,MacIntel,60.0024001,424.3664,425.3669,,,,,,,,,,,,,,,,,,,,,,,,,,425.3669,425.9176,m,1,0.5358,,425.9176,425.9177,,0,193,193,40,1,41,tepki,1695,77.0141,1578,0.1725,5,harmonic,1.55,word,m,,,,,,,
,,,,,,,,,,,bahadir altun,001,2023-11-07_21h31.56.649,vowel_harmony,2023.2.3,MacIntel,60.0024001,425.9181,426.919,,,,,,,,,,,,,,,,,,,,,,,,,,426.919,427.5679,m,1,0.6318,,427.568,427.568,,0,194,194,79,1,80,durum,6783,308.1926,6431,0.703,5,harmonic,1.7,word,m,,,,,,,
,,,,,,,,,,,bahadir altun,001,2023-11-07_21h31.56.649,vowel_harmony,2023.2.3,MacIntel,60.0024001,427.5684,428.5673,,,,,,,,,,,,,,,,,,,,,,,,,,428.5674,429.1484,z,1,0.5668,,429.1484,429.1485,,0,195,195,248,1,249,şegim,,,,,5,harmonic,1.9,nw,z,,,,,,,
,,,,,,,,,,,bahadir altun,001,2023-11-07_21h31.56.649,vowel_harmony,2023.2.3,MacIntel,60.0024001,429.1486,430.1517,,,,,,,,,,,,,,,,,,,,,,,,,,430.1518,430.967,z,1,0.7948,,430.967,430.967,,0,196,196,354,1,355,taden,,,,,5,notharmonic,1.7,nw,z,,,,,,,
,,,,,,,,,,,bahadir altun,001,2023-11-07_21h31.56.649,vowel_harmony,2023.2.3,MacIntel,60.0024001,430.9674,431.9691,,,,,,,,,,,,,,,,,,,,,,,,,,431.9692,433.4511,m,1,1.4659,,433.4511,433.4513,,0,197,197,119,1,120,kulüp,649,29.488,467,0.0511,5,notharmonic,1.4,word,m,,,,,,,
,,,,,,,,,,,bahadir altun,001,2023-11-07_21h31.56.649,vowel_harmony,2023.2.3,MacIntel,60.0024001,433.4515,434.4502,,,,,,,,,,,,,,,,,,,,,,,,,,434.4502,435.2496,z,1,0.7872,,435.2496,435.2496,,0,198,198,223,1,224,kakon,,,,,5,harmonic,1.85,nw,z,,,,,,,
,,,,,,,,,,,bahadir altun,001,2023-11-07_21h31.56.649,vowel_harmony,2023.2.3,MacIntel,60.0024001,435.25,436.2521,,,,,,,,,,,,,,,,,,,,,,,,,,436.2522,436.9346,m,1,0.6659,,436.9346,436.9347,,0,199,199,136,1,137,beyaz,5517,250.6706,4788,0.5234,5,notharmonic,1.85,word,m,,,,,,,
,,,,,,,,,,,bahadir altun,001,2023-11-07_21h31.56.649,vowel_harmony,2023.2.3,MacIntel,60.0024001,436.9352,437.9343,,,,,,,,,,,,,,,,,,,,,,,,,,437.9343,438.7164,m,1,0.7668,,438.7164,438.7164,,0,200,200,175,1,176,aile,3655,166.0687,3126,0.3417,4,notharmonic,1,word,m,,,,,,,
,,,,,,,,,,,bahadir altun,001,2023-11-07_21h31.56.649,vowel_harmony,2023.2.3,MacIntel,60.0024001,438.7168,439.7157,,,,,,,,,,,,,,,,,,,,,,,,,,439.7157,440.4654,z,1,0.7346,,440.4654,440.4656,,0,201,201,205,1,206,kahay,,,,,5,harmonic,1.9,nw,z,,,,,,,
,,,,,,,,,,,bahadir altun,001,2023-11-07_21h31.56.649,vowel_harmony,2023.2.3,MacIntel,60.0024001,440.4658,441.4657,,,,,,,,,,,,,,,,,,,,,,,,,,441.4657,442.0339,m,1,0.5579,,442.0339,442.0343,,0,202,202,4,1,5,metre,1156,52.5241,1015,0.111,5,harmonic,1.7,word,m,,,,,,,
,,,,,,,,,,,bahadir altun,001,2023-11-07_21h31.56.649,vowel_harmony,2023.2.3,MacIntel,60.0024001,442.0349,443.0354,,,,,,,,,,,,,,,,,,,,,,,,,,443.0355,443.7673,z,1,0.713,,443.7673,443.7675,,0,203,203,289,1,290,karmen,,,,,6,notharmonic,1.75,nw,z,,,,,,,
,,,,,,,,,,,bahadir altun,001,2023-11-07_21h31.56.649,vowel_harmony,2023.2.3,MacIntel,60.0024001,443.768,444.7658,,,,,,,,,,,,,,,,,,,,,,,,,,444.766,445.6351,z,1,0.8503,,445.6351,445.6352,,0,204,204,296,1,297,işban,,,,,5,notharmonic,1.95,nw,z,,,,,,,
,,,,,,,,,,,bahadir altun,001,2023-11-07_21h31.56.649,vowel_harmony,2023.2.3,MacIntel,60.0024001,445.6356,446.636,,,,,,,,,,,,,,,,,,,,,,,,,,446.6361,447.4843,m,1,0.8318,,447.4846,447.4848,,0,205,205,72,1,73,çorba,1674,76.0599,1513,0.1654,5,harmonic,1.75,word,m,,,,,,,
,,,,,,,,,,,bahadir altun,001,2023-11-07_21h31.56.649,vowel_harmony,2023.2.3,MacIntel,60.0024001,447.4852,448.4847,,,,,,,,,,,,,,,,,,,,,,,,,,448.4847,449.1659,z,1,0.6654,,449.1659,449.166,,0,206,206,279,1,280,tadde,,,,,5,notharmonic,1.8,nw,z,,,,,,,
,,,,,,,,,,,bahadir altun,001,2023-11-07_21h31.56.649,vowel_harmony,2023.2.3,MacIntel,60.0024001,449.1664,450.1687,,,,,,,,,,,,,,,,,,,,,,,,,,450.1687,450.7505,z,1,0.5712,,450.7507,450.7509,,0,207,207,227,1,228,zekö,,,,,4,harmonic,1.9,nw,z,,,,,,,
,,,,,,,,,,,bahadir altun,001,2023-11-07_21h31.56.649,vowel_harmony,2023.2.3,MacIntel,60.0024001,450.7515,451.7514,,,,,,,,,,,,,,,,,,,,,,,,,,451.7516,452.4987,m,1,0.7326,,452.4988,452.4988,,0,208,208,145,1,146,iddia,2430,110.4096,2295,0.2509,5,notharmonic,1.85,word,m,,,,,,,
,,,,,,,,,,,bahadir altun,001,2023-11-07_21h31.56.649,vowel_harmony,2023.2.3,MacIntel,60.0024001,452.4991,453.4993,,,,,,,,,,,,,,,,,,,,,,,,,,453.4994,454.1158,z,1,0.6007,,454.1158,454.1159,,0,209,209,226,1,227,tefem,,,,,5,harmonic,1.75,nw,z,,,,,,,
,,,,,,,,,,,bahadir altun,001,2023-11-07_21h31.56.649,vowel_harmony,2023.2.3,MacIntel,60.0024001,454.1162,455.1157,,,,,,,,,,,,,,,,,,,,,,,,,,455.1157,455.8188,z,1,0.6845,,455.8189,455.8191,,0,210,210,233,1,234,devpi,,,,,5,harmonic,1.8,nw,z,,,,,,,
,,,,,,,,,,,bahadir altun,001,2023-11-07_21h31.56.649,vowel_harmony,2023.2.3,MacIntel,60.0024001,455.8194,456.8181,,,,,,,,,,,,,,,,,,,,,,,,,,456.8182,457.4349,z,1,0.6024,,457.435,457.435,,0,211,211,219,1,220,barlum,,,,,6,harmonic,1.9,nw,z,,,,,,,
,,,,,,,,,,,bahadir altun,001,2023-11-07_21h31.56.649,vowel_harmony,2023.2.3,MacIntel,60.0024001,457.4354,458.4341,,,,,,,,,,,,,,,,,,,,,,,,,,458.4342,458.999,z,1,0.5521,,458.999,458.9991,,0,212,212,237,1,238,taşal,,,,,5,harmonic,1.8,nw,z,,,,,,,
,,,,,,,,,,,bahadir altun,001,2023-11-07_21h31.56.649,vowel_harmony,2023.2.3,MacIntel,60.0024001,458.9993,460.002,,,,,,,,,,,,,,,,,,,,,,,,,,460.0021,460.6182,m,1,0.5947,,460.6183,460.6184,,0,213,213,27,1,28,bölge,1283,58.2944,1123,0.1228,5,harmonic,1.65,word,m,,,,,,,
,,,,,,,,,,,bahadir altun,001,2023-11-07_21h31.56.649,vowel_harmony,2023.2.3,MacIntel,60.0024001,460.6189,461.6183,,,,,,,,,,,,,,,,,,,,,,,,,,461.6184,462.1511,m,1,0.5197,,462.1512,462.1513,,0,214,214,33,1,34,moda,1381,62.7472,1231,0.1346,4,harmonic,1.55,word,m,,,,,,,
,,,,,,,,,,,bahadir altun,001,2023-11-07_21h31.56.649,vowel_harmony,2023.2.3,MacIntel,60.0024001,462.1517,463.1522,,,,,,,,,,,,,,,,,,,,,,,,,,463.1523,463.818,z,1,0.6553,,463.8181,463.8182,,0,215,215,334,1,335,işgan,,,,,5,notharmonic,1.95,nw,z,,,,,,,
,,,,,,,,,,,bahadir altun,001,2023-11-07_21h31.56.649,vowel_harmony,2023.2.3,MacIntel,60.0024001,463.8187,464.8185,,,,,,,,,,,,,,,,,,,,,,,,,,464.8185,465.3842,z,1,0.5535,,465.3842,465.3843,,0,216,216,236,1,237,toklam,,,,,6,harmonic,1.85,nw,z,,,,,,,
,,,,,,,,,,,bahadir altun,001,2023-11-07_21h31.56.649,vowel_harmony,2023.2.3,MacIntel,60.0024001,465.3847,466.3824,,,,,,,,,,,,,,,,,,,,,,,,,,466.3824,467.035,z,1,0.6367,,467.035,467.0351,,0,217,217,285,1,286,iklon,,,,,5,notharmonic,1.85,nw,z,,,,,,,
,,,,,,,,,,,bahadir altun,001,2023-11-07_21h31.56.649,vowel_harmony,2023.2.3,MacIntel,60.0024001,467.0356,468.0351,,,,,,,,,,,,,,,,,,,,,,,,,,468.0351,468.6653,m,1,0.6104,,468.6653,468.6653,,0,218,218,176,1,177,harika,4682,212.7315,4422,0.4834,6,notharmonic,1.9,word,m,,,,,,,
,,,,,,,,,,,bahadir altun,001,2023-11-07_21h31.56.649,vowel_harmony,2023.2.3,MacIntel,60.0024001,468.6657,469.6683,,,,,,,,,,,,,,,,,,,,,,,,,,469.6683,470.2488,m,1,0.5662,,470.2488,470.2489,,0,219,219,90,1,91,tarif,2834,128.7657,2611,0.2854,5,notharmonic,1.5,word,m,,,,,,,
,,,,,,,,,,,bahadir altun,001,2023-11-07_21h31.56.649,vowel_harmony,2023.2.3,MacIntel,60.0024001,470.2493,471.2511,,,,,,,,,,,,,,,,,,,,,,,,,,471.2512,471.8524,z,1,0.583,,471.8524,471.8524,,0,220,220,189,1,190,düvre,,,,,5,harmonic,1.85,nw,z,,,,,,,
,,,,,,,,,,,bahadir altun,001,2023-11-07_21h31.56.649,vowel_harmony,2023.2.3,MacIntel,60.0024001,471.8528,472.8524,,,,,,,,,,,,,,,,,,,,,,,,,,472.8525,473.4685,z,1,0.5982,,473.4685,473.4686,,0,221,221,302,1,303,işgar,,,,,5,notharmonic,1.9,nw,z,,,,,,,
,,,,,,,,,,,bahadir altun,001,2023-11-07_21h31.56.649,vowel_harmony,2023.2.3,MacIntel,60.0024001,473.4689,474.4692,,,,,,,,,,,,,,,,,,,,,,,,,,474.4693,475.1321,m,1,0.6503,,475.1322,475.1322,,0,222,222,96,1,97,dahil,3189,144.8955,3060,0.3345,5,notharmonic,1.7,word,m,,,,,,,
,,,,,,,,,,,bahadir altun,001,2023-11-07_21h31.56.649,vowel_harmony,2023.2.3,MacIntel,60.0024001,475.1326,476.1324,,,,,,,,,,,,,,,,,,,,,,,,,,476.1325,476.7352,m,1,0.5863,,476.7352,476.7353,,0,223,223,92,1,93,sahne,1380,62.7017,1238,0.1353,5,notharmonic,1.65,word,m,,,,,,,
,,,,,,,,,,,bahadir altun,001,2023-11-07_21h31.56.649,vowel_harmony,2023.2.3,MacIntel,60.0024001,476.7356,477.7358,,,,,,,,,,,,,,,,,,,,,,,,,,477.7359,478.3328,z,1,0.5813,,478.3329,478.333,,0,224,224,269,1,270,vekü,,,,,4,harmonic,2,nw,z,,,,,,,
,,,,,,,,,,,bahadir altun,001,2023-11-07_21h31.56.649,vowel_harmony,2023.2.3,MacIntel,60.0024001,478.3334,479.3325,,,,,,,,,,,,,,,,,,,,,,,,,,479.3326,479.983,z,1,0.6349,,479.983,479.9832,,0,225,225,242,1,243,kahon,,,,,5,harmonic,1.85,nw,z,,,,,,,
,,,,,,,,,,,bahadir altun,001,2023-11-07_21h31.56.649,vowel_harmony,2023.2.3,MacIntel,60.0024001,479.9836,480.9849,,,,,,,,,,,,,,,,,,,,,,,,,,480.9849,481.9684,m,1,0.9617,,481.9684,481.9685,,0,226,226,153,1,154,inşaat,432,19.6284,376,0.0411,6,notharmonic,1.6,word,m,,,,,,,
,,,,,,,,,,,bahadir altun,001,2023-11-07_21h31.56.649,vowel_harmony,2023.2.3,MacIntel,60.0024001,481.9692,482.9689,,,,,,,,,,,,,,,,,,,,,,,,,,482.969,483.6018,m,1,0.6171,,483.6018,483.6019,,0,227,227,41,1,42,zengin,2193,99.6412,2015,0.2203,6,harmonic,1.65,word,m,,,,,,,
,,,,,,,,,,,bahadir altun,001,2023-11-07_21h31.56.649,vowel_harmony,2023.2.3,MacIntel,60.0024001,483.6025,484.6016,,,,,,,,,,,,,,,,,,,,,,,,,,484.6016,485.234,m,1,0.6116,,485.234,485.234,,0,228,228,14,1,15,yaşam,4348,197.5559,3918,0.4283,5,harmonic,1.4,word,m,,,,,,,
,,,,,,,,,,,bahadir altun,001,2023-11-07_21h31.56.649,vowel_harmony,2023.2.3,MacIntel,60.0024001,485.2344,486.2348,,,,,,,,,,,,,,,,,,,,,,,,,,486.2349,487.3002,m,1,1.051,,487.3003,487.3004,,0,229,229,26,1,27,sebze,1094,49.707,961,0.1051,5,harmonic,1.9,word,m,,,,,,,
,,,,,,,,,,,bahadir altun,001,2023-11-07_21h31.56.649,vowel_harmony,2023.2.3,MacIntel,60.0024001,487.3007,488.3008,,,,,,,,,,,,,,,,,,,,,,,,,,488.301,488.8981,z,1,0.5819,,488.8982,488.8983,,0,230,230,304,1,305,annö,,,,,4,notharmonic,1.95,nw,z,,,,,,,
,,,,,,,,,,,bahadir altun,001,2023-11-07_21h31.56.649,vowel_harmony,2023.2.3,MacIntel,60.0024001,488.8986,489.9007,,,,,,,,,,,,,,,,,,,,,,,,,,489.9008,491.3343,m,1,1.4157,,491.3344,491.3344,,0,231,231,55,1,56,akıl,2208,100.3228,2004,0.2191,4,harmonic,1,word,m,,,,,,,
,,,,,,,,,,,bahadir altun,001,2023-11-07_21h31.56.649,vowel_harmony,2023.2.3,MacIntel,60.0024001,491.3347,492.3359,,,,,,,,,,,,,,,,,,,,,,,,,,492.336,493.0679,z,1,0.7139,,493.0679,493.068,,0,232,232,337,1,338,bakem,,,,,5,notharmonic,1.7,nw,z,,,,,,,
,,,,,,,,,,,bahadir altun,001,2023-11-07_21h31.56.649,vowel_harmony,2023.2.3,MacIntel,60.0024001,493.0683,494.0657,,,,,,,,,,,,,,,,,,,,,,,,,,494.0657,494.9357,z,1,0.855,,494.9358,494.9359,,0,233,233,251,1,252,oştay,,,,,5,harmonic,1.95,nw,z,,,,,,,
,,,,,,,,,,,bahadir altun,001,2023-11-07_21h31.56.649,vowel_harmony,2023.2.3,MacIntel,60.0024001,494.9363,495.9355,,,,,,,,,,,,,,,,,,,,,,,,,,495.9356,496.8177,z,1,0.8641,,496.8178,496.8179,,0,234,234,217,1,218,sanfız,,,,,6,harmonic,1.85,nw,z,,,,,,,
,,,,,,,,,,,bahadir altun,001,2023-11-07_21h31.56.649,vowel_harmony,2023.2.3,MacIntel,60.0024001,496.8183,497.816,,,,,,,,,,,,,,,,,,,,,,,,,,497.8161,498.9016,z,1,1.0667,,498.9016,498.9017,,0,235,235,307,1,308,merbat,,,,,6,notharmonic,1.95,nw,z,,,,,,,
,,,,,,,,,,,bahadir altun,001,2023-11-07_21h31.56.649,vowel_harmony,2023.2.3,MacIntel,60.0024001,498.902,499.9006,,,,,,,,,,,,,,,,,,,,,,,,,,499.9007,500.6687,m,1,0.7541,,500.6688,500.669,,0,236,236,78,1,79,ulusal,1551,70.4713,1355,0.1481,6,harmonic,1.75,word,m,,,,,,,
,,,,,,,,,,,bahadir altun,001,2023-11-07_21h31.56.649,vowel_harmony,2023.2.3,MacIntel,60.0024001,500.6696,501.6655,,,,,,,,,,,,,,,,,,,,,,,,,,501.6656,502.285,m,1,0.6043,,502.2851,502.2851,,0,237,237,77,1,78,ufak,3252,147.758,2980,0.3258,4,harmonic,1.5,word,m,,,,,,,
,,,,,,,,,,,bahadir altun,001,2023-11-07_21h31.56.649,vowel_harmony,2023.2.3,MacIntel,60.0024001,502.2857,503.2831,,,,,,,,,,,,,,,,,,,,,,,,,,503.2832,504.3656,z,1,1.072,,504.3657,504.3658,,0,238,238,198,1,199,yarbız,,,,,6,harmonic,1.95,nw,z,,,,,,,
,,,,,,,,,,,bahadir altun,001,2023-11-07_21h31.56.649,vowel_harmony,2023.2.3,MacIntel,60.0024001,504.3786,505.3859,,,,,,,,,,,,,,,,,,,,,,,,,,505.3859,506.0821,m,1,0.6796,,506.0822,506.0822,,0,239,239,56,1,57,sağlam,1818,82.6027,1720,0.188,6,harmonic,1.6,word,m,,,,,,,
,,,,,,,,,,,bahadir altun,001,2023-11-07_21h31.56.649,vowel_harmony,2023.2.3,MacIntel,60.0024001,506.0827,507.0852,,,,,,,,,,,,,,,,,,,,,,,,,,507.0852,507.9676,z,1,0.8685,,507.9677,539.0677,space,0,240,240,342,1,343,kulön,,,,,5,notharmonic,1.9,nw,z,31.0849,,,,,,
,,,,,,,,,,,bahadir altun,001,2023-11-07_21h31.56.649,vowel_harmony,2023.2.3,MacIntel,60.0024001,539.0759,540.0683,,,,,,,,,,,,,,,,,,,,,,,,,,540.0685,540.8997,m,1,0.8129,,540.8997,540.8999,,0,241,241,85,1,86,geçmiş,4195,190.6042,4039,0.4415,6,harmonic,1.55,word,m,,,,,,,
,,,,,,,,,,,bahadir altun,001,2023-11-07_21h31.56.649,vowel_harmony,2023.2.3,MacIntel,60.0024001,540.9003,541.9019,,,,,,,,,,,,,,,,,,,,,,,,,,541.9019,542.5192,z,1,0.5974,,542.5193,542.5193,,0,242,242,330,1,331,vahçe,,,,,5,notharmonic,1.9,nw,z,,,,,,,
,,,,,,,,,,,bahadir altun,001,2023-11-07_21h31.56.649,vowel_harmony,2023.2.3,MacIntel,60.0024001,542.5197,543.5161,,,,,,,,,,,,,,,,,,,,,,,,,,543.5162,544.6516,m,1,1.1242,,544.6516,544.6516,,0,243,243,117,1,118,nasip,1069,48.5711,1042,0.1139,5,notharmonic,1.8,word,m,,,,,,,
,,,,,,,,,,,bahadir altun,001,2023-11-07_21h31.56.649,vowel_harmony,2023.2.3,MacIntel,60.0024001,544.6518,545.6496,,,,,,,,,,,,,,,,,,,,,,,,,,545.6496,546.2016,m,1,0.5332,,546.2016,546.2017,,0,244,244,173,1,174,sade,1193,54.2052,1114,0.1218,4,notharmonic,1.55,word,m,,,,,,,
,,,,,,,,,,,bahadir altun,001,2023-11-07_21h31.56.649,vowel_harmony,2023.2.3,MacIntel,60.0024001,546.2019,547.1993,,,,,,,,,,,,,,,,,,,,,,,,,,547.1993,548.3506,z,1,1.1389,,548.3506,548.3507,,0,245,245,317,1,318,mevul,,,,,5,notharmonic,1.95,nw,z,,,,,,,
,,,,,,,,,,,bahadir altun,001,2023-11-07_21h31.56.649,vowel_harmony,2023.2.3,MacIntel,60.0024001,548.3509,549.3491,,,,,,,,,,,,,,,,,,,,,,,,,,549.3491,550.0484,m,1,0.6881,,550.0485,550.0486,,0,246,246,35,1,36,hava,4975,226.0443,4398,0.4808,4,harmonic,1,word,m,,,,,,,
,,,,,,,,,,,bahadir altun,001,2023-11-07_21h31.56.649,vowel_harmony,2023.2.3,MacIntel,60.0024001,550.0494,551.0496,,,,,,,,,,,,,,,,,,,,,,,,,,551.0497,551.8691,m,1,0.8084,,551.8691,551.8691,,0,247,247,20,1,21,nefes,2871,130.4469,2553,0.2791,5,harmonic,1.8,word,m,,,,,,,
,,,,,,,,,,,bahadir altun,001,2023-11-07_21h31.56.649,vowel_harmony,2023.2.3,MacIntel,60.0024001,551.8696,552.8666,,,,,,,,,,,,,,,,,,,,,,,,,,552.8667,553.5191,m,1,0.6322,,553.5192,553.5194,,0,248,248,143,1,144,kitap,8359,379.7998,6786,0.7418,5,notharmonic,1.9,word,m,,,,,,,
,,,,,,,,,,,bahadir altun,001,2023-11-07_21h31.56.649,vowel_harmony,2023.2.3,MacIntel,60.0024001,553.5199,554.516,,,,,,,,,,,,,,,,,,,,,,,,,,554.5161,555.4341,z,1,0.9058,,555.4342,555.4344,,0,249,249,316,1,317,misaf,,,,,5,notharmonic,1.85,nw,z,,,,,,,
,,,,,,,,,,,bahadir altun,001,2023-11-07_21h31.56.649,vowel_harmony,2023.2.3,MacIntel,60.0024001,555.4348,556.4359,,,,,,,,,,,,,,,,,,,,,,,,,,556.4359,557.1663,z,1,0.7176,,557.1663,557.1663,,0,250,250,287,1,288,haköm,,,,,5,notharmonic,1.9,nw,z,,,,,,,
,,,,,,,,,,,bahadir altun,001,2023-11-07_21h31.56.649,vowel_harmony,2023.2.3,MacIntel,60.0024001,557.1666,558.1684,,,,,,,,,,,,,,,,,,,,,,,,,,558.1684,559.034,m,1,0.8502,,559.0341,559.0341,,0,251,251,38,1,39,dönem,2820,128.1296,2437,0.2664,5,harmonic,1.4,word,m,,,,,,,
,,,,,,,,,,,bahadir altun,001,2023-11-07_21h31.56.649,vowel_harmony,2023.2.3,MacIntel,60.0024001,559.0347,560.0354,,,,,,,,,,,,,,,,,,,,,,,,,,560.0354,560.8176,z,1,0.7677,,560.8176,560.8177,,0,252,252,201,1,202,ergiy,,,,,5,harmonic,1.85,nw,z,,,,,,,
,,,,,,,,,,,bahadir altun,001,2023-11-07_21h31.56.649,vowel_harmony,2023.2.3,MacIntel,60.0024001,560.8179,561.8182,,,,,,,,,,,,,,,,,,,,,,,,,,561.8182,562.5999,z,1,0.767,,562.6,562.6001,,0,253,253,231,1,232,norgun,,,,,6,harmonic,1.75,nw,z,,,,,,,
,,,,,,,,,,,bahadir altun,001,2023-11-07_21h31.56.649,vowel_harmony,2023.2.3,MacIntel,60.0024001,562.6006,563.6012,,,,,,,,,,,,,,,,,,,,,,,,,,563.6014,564.2013,z,1,0.5809,,564.2013,564.2013,,0,254,254,349,1,350,harten,,,,,6,notharmonic,1.85,nw,z,,,,,,,
,,,,,,,,,,,bahadir altun,001,2023-11-07_21h31.56.649,vowel_harmony,2023.2.3,MacIntel,60.0024001,564.2016,565.2014,,,,,,,,,,,,,,,,,,,,,,,,,,565.2014,566.2488,m,1,1.0315,,566.2488,566.2489,,0,255,255,124,1,125,ilan,1579,71.7435,1499,0.1639,4,notharmonic,1,word,m,,,,,,,
,,,,,,,,,,,bahadir altun,001,2023-11-07_21h31.56.649,vowel_harmony,2023.2.3,MacIntel,60.0024001,566.2495,567.2518,,,,,,,,,,,,,,,,,,,,,,,,,,567.2518,567.8847,z,1,0.6121,,567.8848,567.8849,,0,256,256,239,1,240,şekik,,,,,5,harmonic,1.7,nw,z,,,,,,,
,,,,,,,,,,,bahadir altun,001,2023-11-07_21h31.56.649,vowel_harmony,2023.2.3,MacIntel,60.0024001,567.8854,568.8853,,,,,,,,,,,,,,,,,,,,,,,,,,568.8853,569.8679,m,1,0.9689,,569.8681,569.8682,,0,257,257,130,1,131,hamile,1075,48.8437,877,0.0959,6,notharmonic,1.5,word,m,,,,,,,
,,,,,,,,,,,bahadir altun,001,2023-11-07_21h31.56.649,vowel_harmony,2023.2.3,MacIntel,60.0024001,569.8687,570.8681,,,,,,,,,,,,,,,,,,,,,,,,,,570.8682,571.4837,z,1,0.5996,,571.4838,571.4839,,0,258,258,312,1,313,şahmin,,,,,6,notharmonic,1.8,nw,z,,,,,,,
,,,,,,,,,,,bahadir altun,001,2023-11-07_21h31.56.649,vowel_harmony,2023.2.3,MacIntel,60.0024001,571.4843,572.4858,,,,,,,,,,,,,,,,,,,,,,,,,,572.4859,573.1016,m,1,0.5985,,573.1018,573.1018,,0,259,259,122,1,123,devam,17666,802.673,16284,1.7802,5,notharmonic,1.55,word,m,,,,,,,
,,,,,,,,,,,bahadir altun,001,2023-11-07_21h31.56.649,vowel_harmony,2023.2.3,MacIntel,60.0024001,573.1023,574.1017,,,,,,,,,,,,,,,,,,,,,,,,,,574.1017,574.8848,m,1,0.7659,,574.8849,574.8849,,0,260,260,102,1,103,esas,1965,89.2818,1795,0.1962,4,notharmonic,1.75,word,m,,,,,,,
,,,,,,,,,,,bahadir altun,001,2023-11-07_21h31.56.649,vowel_harmony,2023.2.3,MacIntel,60.0024001,574.8855,575.8846,,,,,,,,,,,,,,,,,,,,,,,,,,575.8847,576.5024,z,1,0.6047,,576.5027,576.5028,,0,261,261,188,1,189,tonık,,,,,5,harmonic,1.85,nw,z,,,,,,,
,,,,,,,,,,,bahadir altun,001,2023-11-07_21h31.56.649,vowel_harmony,2023.2.3,MacIntel,60.0024001,576.5033,577.5021,,,,,,,,,,,,,,,,,,,,,,,,,,577.5022,578.1026,z,1,0.5865,,578.1027,578.1027,,0,262,262,267,1,268,nokuma,,,,,6,harmonic,1.75,nw,z,,,,,,,
,,,,,,,,,,,bahadir altun,001,2023-11-07_21h31.56.649,vowel_harmony,2023.2.3,MacIntel,60.0024001,578.1032,579.1018,,,,,,,,,,,,,,,,,,,,,,,,,,579.1018,579.7848,z,1,0.6649,,579.7849,579.785,,0,263,263,203,1,204,döves,,,,,5,harmonic,1.8,nw,z,,,,,,,
,,,,,,,,,,,bahadir altun,001,2023-11-07_21h31.56.649,vowel_harmony,2023.2.3,MacIntel,60.0024001,579.7854,580.7855,,,,,,,,,,,,,,,,,,,,,,,,,,580.7855,581.6012,z,1,0.8018,,581.6013,581.6013,,0,264,264,346,1,347,kidan,,,,,5,notharmonic,1.8,nw,z,,,,,,,
,,,,,,,,,,,bahadir altun,001,2023-11-07_21h31.56.649,vowel_harmony,2023.2.3,MacIntel,60.0024001,581.6017,582.6017,,,,,,,,,,,,,,,,,,,,,,,,,,582.6018,583.4163,m,1,0.7996,,583.4164,583.4165,,0,265,265,61,1,62,yıldız,1775,80.649,1532,0.1675,6,harmonic,1.6,word,m,,,,,,,
,,,,,,,,,,,bahadir altun,001,2023-11-07_21h31.56.649,vowel_harmony,2023.2.3,MacIntel,60.0024001,583.4168,584.418,,,,,,,,,,,,,,,,,,,,,,,,,,584.4181,585.052,z,1,0.6201,,585.052,585.0522,,0,266,266,240,1,241,hoga,,,,,4,harmonic,1.75,nw,z,,,,,,,
,,,,,,,,,,,bahadir altun,001,2023-11-07_21h31.56.649,vowel_harmony,2023.2.3,MacIntel,60.0024001,585.0525,586.0512,,,,,,,,,,,,,,,,,,,,,,,,,,586.0512,586.6657,z,1,0.6002,,586.6657,586.6658,,0,267,267,190,1,191,reklen,,,,,6,harmonic,1.8,nw,z,,,,,,,
,,,,,,,,,,,bahadir altun,001,2023-11-07_21h31.56.649,vowel_harmony,2023.2.3,MacIntel,60.0024001,586.6661,587.6687,,,,,,,,,,,,,,,,,,,,,,,,,,587.6689,588.2853,z,1,0.5969,,588.2855,588.2855,,0,268,268,338,1,339,pardön,,,,,6,notharmonic,1.95,nw,z,,,,,,,
,,,,,,,,,,,bahadir altun,001,2023-11-07_21h31.56.649,vowel_harmony,2023.2.3,MacIntel,60.0024001,588.286,589.2844,,,,,,,,,,,,,,,,,,,,,,,,,,589.2845,590.1682,m,1,0.8649,,590.1682,590.1684,,0,269,269,11,1,12,umut,1988,90.3268,1818,0.1987,4,harmonic,1.55,word,m,,,,,,,
,,,,,,,,,,,bahadir altun,001,2023-11-07_21h31.56.649,vowel_harmony,2023.2.3,MacIntel,60.0024001,590.1688,591.1681,,,,,,,,,,,,,,,,,,,,,,,,,,591.1681,591.8848,m,1,0.7035,,591.8849,591.885,,0,270,270,111,1,112,kahve,2634,119.6785,2283,0.2496,5,notharmonic,1.85,word,m,,,,,,,
,,,,,,,,,,,bahadir altun,001,2023-11-07_21h31.56.649,vowel_harmony,2023.2.3,MacIntel,60.0024001,591.8855,592.8859,,,,,,,,,,,,,,,,,,,,,,,,,,592.8859,593.6502,m,1,0.7397,,593.6502,593.6503,,0,271,271,118,1,119,meşhur,1092,49.6161,1057,0.1156,6,notharmonic,1.9,word,m,,,,,,,
,,,,,,,,,,,bahadir altun,001,2023-11-07_21h31.56.649,vowel_harmony,2023.2.3,MacIntel,60.0024001,593.6506,594.651,,,,,,,,,,,,,,,,,,,,,,,,,,594.6511,595.3009,z,1,0.6351,,595.3009,595.301,,0,272,272,220,1,221,denbi,,,,,5,harmonic,1.75,nw,z,,,,,,,
,,,,,,,,,,,bahadir altun,001,2023-11-07_21h31.56.649,vowel_harmony,2023.2.3,MacIntel,60.0024001,595.3013,596.3008,,,,,,,,,,,,,,,,,,,,,,,,,,596.3009,596.9846,z,1,0.6661,,596.9847,596.9848,,0,273,273,305,1,306,tamü,,,,,4,notharmonic,1.75,nw,z,,,,,,,
,,,,,,,,,,,bahadir altun,001,2023-11-07_21h31.56.649,vowel_harmony,2023.2.3,MacIntel,60.0024001,596.985,597.9822,,,,,,,,,,,,,,,,,,,,,,,,,,597.9823,598.7513,z,1,0.7497,,598.7514,598.7515,,0,274,274,184,1,185,yapor,,,,,5,harmonic,1.9,nw,z,,,,,,,
,,,,,,,,,,,bahadir altun,001,2023-11-07_21h31.56.649,vowel_harmony,2023.2.3,MacIntel,60.0024001,598.752,599.7513,,,,,,,,,,,,,,,,,,,,,,,,,,599.7514,600.6518,m,1,0.8833,,600.6518,600.652,,0,275,275,64,1,65,lise,888,40.3472,816,0.0892,4,harmonic,1.5,word,m,,,,,,,
,,,,,,,,,,,bahadir altun,001,2023-11-07_21h31.56.649,vowel_harmony,2023.2.3,MacIntel,60.0024001,600.6523,601.649,,,,,,,,,,,,,,,,,,,,,,,,,,601.649,602.4181,m,1,0.7539,,602.4181,602.4182,,0,276,276,16,1,17,yavaş,5087,231.1331,2886,0.3155,5,harmonic,1.6,word,m,,,,,,,
,,,,,,,,,,,bahadir altun,001,2023-11-07_21h31.56.649,vowel_harmony,2023.2.3,MacIntel,60.0024001,602.4186,603.4167,,,,,,,,,,,,,,,,,,,,,,,,,,603.4167,604.2176,m,1,0.7849,,604.2177,604.2178,,0,277,277,74,1,75,başarı,1398,63.5196,1300,0.1421,6,harmonic,1.2,word,m,,,,,,,
,,,,,,,,,,,bahadir altun,001,2023-11-07_21h31.56.649,vowel_harmony,2023.2.3,MacIntel,60.0024001,604.2182,605.2187,,,,,,,,,,,,,,,,,,,,,,,,,,605.2187,605.8827,m,1,0.6473,,605.8827,605.8829,,0,278,278,93,1,94,siyah,2944,133.7637,2527,0.2763,5,notharmonic,1.6,word,m,,,,,,,
,,,,,,,,,,,bahadir altun,001,2023-11-07_21h31.56.649,vowel_harmony,2023.2.3,MacIntel,60.0024001,605.8831,606.885,,,,,,,,,,,,,,,,,,,,,,,,,,606.885,607.8011,m,1,0.9036,,607.8012,607.8015,,0,279,279,84,1,85,ülke,3121,141.8059,2801,0.3062,4,harmonic,1.65,word,m,,,,,,,
,,,,,,,,,,,bahadir altun,001,2023-11-07_21h31.56.649,vowel_harmony,2023.2.3,MacIntel,60.0024001,607.8019,608.7996,,,,,,,,,,,,,,,,,,,,,,,,,,608.7996,609.7021,z,1,0.887,,609.7021,609.7022,,0,280,280,281,1,282,afel,,,,,4,notharmonic,1.8,nw,z,,,,,,,
,,,,,,,,,,,bahadir altun,001,2023-11-07_21h31.56.649,vowel_harmony,2023.2.3,MacIntel,60.0024001,609.7027,610.701,,,,,,,,,,,,,,,,,,,,,,,,,,610.7011,611.4009,m,1,0.6879,,611.4009,611.4009,,0,281,281,87,1,88,mümkün,6604,300.0596,6264,0.6848,6,harmonic,1.9,word,m,,,,,,,
,,,,,,,,,,,bahadir altun,001,2023-11-07_21h31.56.649,vowel_harmony,2023.2.3,MacIntel,60.0024001,611.4012,612.3994,,,,,,,,,,,,,,,,,,,,,,,,,,612.3995,613.1348,m,1,0.719,,613.1348,613.1348,,0,282,282,82,1,83,aday,1028,46.7082,873,0.0954,4,harmonic,1.45,word,m,,,,,,,
,,,,,,,,,,,bahadir altun,001,2023-11-07_21h31.56.649,vowel_harmony,2023.2.3,MacIntel,60.0024001,613.1352,614.1349,,,,,,,,,,,,,,,,,,,,,,,,,,614.135,614.833,z,1,0.6844,,614.833,614.8331,,0,283,283,265,1,266,parula,,,,,6,harmonic,1.75,nw,z,,,,,,,
,,,,,,,,,,,bahadir altun,001,2023-11-07_21h31.56.649,vowel_harmony,2023.2.3,MacIntel,60.0024001,614.8333,615.8339,,,,,,,,,,,,,,,,,,,,,,,,,,615.8339,616.6527,z,1,0.801,,616.6528,616.6529,,0,284,284,353,1,354,ikno,,,,,4,notharmonic,1.95,nw,z,,,,,,,
,,,,,,,,,,,bahadir altun,001,2023-11-07_21h31.56.649,vowel_harmony,2023.2.3,MacIntel,60.0024001,616.6534,617.6498,,,,,,,,,,,,,,,,,,,,,,,,,,617.6498,618.634,m,1,0.9681,,618.6341,618.6342,,0,285,285,133,1,134,taze,2268,103.0489,2062,0.2254,4,notharmonic,1.65,word,m,,,,,,,
,,,,,,,,,,,bahadir altun,001,2023-11-07_21h31.56.649,vowel_harmony,2023.2.3,MacIntel,60.0024001,618.6346,619.6353,,,,,,,,,,,,,,,,,,,,,,,,,,619.6353,620.2495,m,1,0.5992,,620.2496,620.2497,,0,286,286,169,1,170,hikaye,1555,70.653,1405,0.1536,6,notharmonic,1.8,word,m,,,,,,,
,,,,,,,,,,,bahadir altun,001,2023-11-07_21h31.56.649,vowel_harmony,2023.2.3,MacIntel,60.0024001,620.25,621.2496,,,,,,,,,,,,,,,,,,,,,,,,,,621.2496,621.8657,m,1,0.6006,,621.8657,621.8658,,0,287,287,70,1,71,yarın,3440,156.3,3222,0.3522,5,harmonic,1.85,word,m,,,,,,,
,,,,,,,,,,,bahadir altun,001,2023-11-07_21h31.56.649,vowel_harmony,2023.2.3,MacIntel,60.0024001,621.8661,622.8674,,,,,,,,,,,,,,,,,,,,,,,,,,622.8674,623.4848,m,1,0.5982,,623.4848,623.4848,,0,288,288,28,1,29,parlak,1142,51.888,1088,0.1189,6,harmonic,1.7,word,m,,,,,,,
,,,,,,,,,,,bahadir altun,001,2023-11-07_21h31.56.649,vowel_harmony,2023.2.3,MacIntel,60.0024001,623.4851,624.4851,,,,,,,,,,,,,,,,,,,,,,,,,,624.4851,625.3854,m,1,0.8908,,625.3855,625.3856,,0,289,289,142,1,143,siyasi,2909,132.1734,2445,0.2673,6,notharmonic,1.8,word,m,,,,,,,
,,,,,,,,,,,bahadir altun,001,2023-11-07_21h31.56.649,vowel_harmony,2023.2.3,MacIntel,60.0024001,625.3863,626.3845,,,,,,,,,,,,,,,,,,,,,,,,,,626.3846,627.099,z,1,0.7,,627.099,627.0991,,0,290,290,322,1,323,normin,,,,,6,notharmonic,1.95,nw,z,,,,,,,
,,,,,,,,,,,bahadir altun,001,2023-11-07_21h31.56.649,vowel_harmony,2023.2.3,MacIntel,60.0024001,627.0994,628.102,,,,,,,,,,,,,,,,,,,,,,,,,,628.1021,628.8184,z,1,0.7064,,628.8184,628.8185,,0,291,291,246,1,247,orkın,,,,,5,harmonic,1.9,nw,z,,,,,,,
,,,,,,,,,,,bahadir altun,001,2023-11-07_21h31.56.649,vowel_harmony,2023.2.3,MacIntel,60.0024001,628.8189,629.8155,,,,,,,,,,,,,,,,,,,,,,,,,,629.8156,630.5165,m,1,0.6874,,630.5166,630.5166,,0,292,292,46,1,47,takım,4370,198.5555,3726,0.4073,5,harmonic,1.7,word,m,,,,,,,
,,,,,,,,,,,bahadir altun,001,2023-11-07_21h31.56.649,vowel_harmony,2023.2.3,MacIntel,60.0024001,630.5171,631.5176,,,,,,,,,,,,,,,,,,,,,,,,,,631.5176,632.2015,z,1,0.6693,,632.2016,632.2017,,0,293,293,309,1,310,yorgen,,,,,6,notharmonic,1.9,nw,z,,,,,,,
,,,,,,,,,,,bahadir altun,001,2023-11-07_21h31.56.649,vowel_harmony,2023.2.3,MacIntel,60.0024001,632.2023,633.2025,,,,,,,,,,,,,,,,,,,,,,,,,,633.2026,633.8357,z,1,0.6135,,633.8357,633.8358,,0,294,294,218,1,219,tezöl,,,,,5,harmonic,2,nw,z,,,,,,,
,,,,,,,,,,,bahadir altun,001,2023-11-07_21h31.56.649,vowel_harmony,2023.2.3,MacIntel,60.0024001,633.8362,634.8357,,,,,,,,,,,,,,,,,,,,,,,,,,634.8357,635.6181,z,1,0.7666,,635.6182,635.6183,,0,295,295,274,1,275,pisan,,,,,5,notharmonic,1.75,nw,z,,,,,,,
,,,,,,,,,,,bahadir altun,001,2023-11-07_21h31.56.649,vowel_harmony,2023.2.3,MacIntel,60.0024001,635.6188,636.6188,,,,,,,,,,,,,,,,,,,,,,,,,,636.6189,637.3994,m,1,0.7659,,637.3995,637.3996,,0,296,296,47,1,48,kaza,740,33.6227,679,0.0742,4,harmonic,1.85,word,m,,,,,,,
,,,,,,,,,,,bahadir altun,001,2023-11-07_21h31.56.649,vowel_harmony,2023.2.3,MacIntel,60.0024001,637.4001,638.4021,,,,,,,,,,,,,,,,,,,,,,,,,,638.4022,639.0346,m,1,0.6228,,639.0347,639.035,,0,297,297,50,1,51,kanun,1198,54.4324,1010,0.1104,5,harmonic,1.6,word,m,,,,,,,
,,,,,,,,,,,bahadir altun,001,2023-11-07_21h31.56.649,vowel_harmony,2023.2.3,MacIntel,60.0024001,639.0355,640.0346,,,,,,,,,,,,,,,,,,,,,,,,,,640.0347,640.6018,m,1,0.552,,640.6019,640.602,,0,298,298,179,1,180,dakika,5891,267.6637,5207,0.5692,6,notharmonic,1.75,word,m,,,,,,,
,,,,,,,,,,,bahadir altun,001,2023-11-07_21h31.56.649,vowel_harmony,2023.2.3,MacIntel,60.0024001,640.6025,641.6019,,,,,,,,,,,,,,,,,,,,,,,,,,641.602,642.2006,m,1,0.5833,,642.2007,642.2008,,0,299,299,148,1,149,selam,1868,84.8745,1764,0.1928,5,notharmonic,1.35,word,m,,,,,,,
,,,,,,,,,,,bahadir altun,001,2023-11-07_21h31.56.649,vowel_harmony,2023.2.3,MacIntel,60.0024001,642.2011,643.202,,,,,,,,,,,,,,,,,,,,,,,,,,643.2021,643.9179,z,1,0.6993,,643.9179,643.918,,0,300,300,314,1,315,seral,,,,,5,notharmonic,1.7,nw,z,,,,,,,
,,,,,,,,,,,bahadir altun,001,2023-11-07_21h31.56.649,vowel_harmony,2023.2.3,MacIntel,60.0024001,643.9183,644.9212,,,,,,,,,,,,,,,,,,,,,,,,,,644.9213,645.8493,z,1,0.9157,,645.8493,645.8494,,0,301,301,216,1,217,çeyret,,,,,6,harmonic,1.9,nw,z,,,,,,,
,,,,,,,,,,,bahadir altun,001,2023-11-07_21h31.56.649,vowel_harmony,2023.2.3,MacIntel,60.0024001,645.8498,646.8511,,,,,,,,,,,,,,,,,,,,,,,,,,646.8511,647.6351,z,1,0.7698,,647.6352,647.6352,,0,302,302,193,1,194,yokın,,,,,5,harmonic,1.85,nw,z,,,,,,,
,,,,,,,,,,,bahadir altun,001,2023-11-07_21h31.56.649,vowel_harmony,2023.2.3,MacIntel,60.0024001,647.6354,648.6345,,,,,,,,,,,,,,,,,,,,,,,,,,648.6345,649.4356,m,1,0.7862,,649.4356,649.4358,,0,303,303,162,1,163,hariç,1267,57.5675,1233,0.1348,5,notharmonic,1.75,word,m,,,,,,,
,,,,,,,,,,,bahadir altun,001,2023-11-07_21h31.56.649,vowel_harmony,2023.2.3,MacIntel,60.0024001,649.4359,650.4343,,,,,,,,,,,,,,,,,,,,,,,,,,650.4344,651.0673,z,1,0.6177,,651.0674,651.0674,,0,304,304,197,1,198,ranar,,,,,5,harmonic,1.75,nw,z,,,,,,,
,,,,,,,,,,,bahadir altun,001,2023-11-07_21h31.56.649,vowel_harmony,2023.2.3,MacIntel,60.0024001,651.0678,652.0655,,,,,,,,,,,,,,,,,,,,,,,,,,652.0656,652.6843,z,1,0.6028,,652.6843,652.6844,,0,305,305,286,1,287,cedan,,,,,5,notharmonic,1.8,nw,z,,,,,,,
,,,,,,,,,,,bahadir altun,001,2023-11-07_21h31.56.649,vowel_harmony,2023.2.3,MacIntel,60.0024001,652.6847,653.6853,,,,,,,,,,,,,,,,,,,,,,,,,,653.6854,654.4673,z,1,0.7655,,654.4674,654.4674,,0,306,306,200,1,201,duşın,,,,,5,harmonic,1.9,nw,z,,,,,,,
,,,,,,,,,,,bahadir altun,001,2023-11-07_21h31.56.649,vowel_harmony,2023.2.3,MacIntel,60.0024001,654.4677,655.4689,,,,,,,,,,,,,,,,,,,,,,,,,,655.4689,656.1152,m,1,0.6281,,656.1152,656.1152,,0,307,307,94,1,95,final,876,39.802,778,0.0851,5,notharmonic,1,word,m,,,,,,,
,,,,,,,,,,,bahadir altun,001,2023-11-07_21h31.56.649,vowel_harmony,2023.2.3,MacIntel,60.0024001,656.1154,657.1195,,,,,,,,,,,,,,,,,,,,,,,,,,657.1195,657.7684,m,1,0.6265,,657.7685,657.7685,,0,308,308,97,1,98,mevcut,3007,136.6262,2842,0.3107,6,notharmonic,1.95,word,m,,,,,,,
,,,,,,,,,,,bahadir altun,001,2023-11-07_21h31.56.649,vowel_harmony,2023.2.3,MacIntel,60.0024001,657.7689,658.7657,,,,,,,,,,,,,,,,,,,,,,,,,,658.7657,659.4488,m,1,0.6691,,659.4488,659.4489,,0,309,309,42,1,43,ürün,2268,103.0489,1954,0.2136,4,harmonic,1.1,word,m,,,,,,,
,,,,,,,,,,,bahadir altun,001,2023-11-07_21h31.56.649,vowel_harmony,2023.2.3,MacIntel,60.0024001,659.4491,660.4515,,,,,,,,,,,,,,,,,,,,,,,,,,660.4516,661.1159,m,1,0.6493,,661.1159,661.116,,0,310,310,134,1,135,iptal,793,36.0308,725,0.0793,5,notharmonic,1.35,word,m,,,,,,,
,,,,,,,,,,,bahadir altun,001,2023-11-07_21h31.56.649,vowel_harmony,2023.2.3,MacIntel,60.0024001,661.1163,662.1189,,,,,,,,,,,,,,,,,,,,,,,,,,662.119,662.951,z,1,0.8197,,662.951,662.9512,,0,311,311,245,1,246,bıyan,,,,,5,harmonic,1.7,nw,z,,,,,,,
,,,,,,,,,,,bahadir altun,001,2023-11-07_21h31.56.649,vowel_harmony,2023.2.3,MacIntel,60.0024001,662.9515,663.9521,,,,,,,,,,,,,,,,,,,,,,,,,,663.9521,664.5657,z,1,0.5966,,664.5657,664.5658,,0,312,312,328,1,329,kirul,,,,,5,notharmonic,1.95,nw,z,,,,,,,
,,,,,,,,,,,bahadir altun,001,2023-11-07_21h31.56.649,vowel_harmony,2023.2.3,MacIntel,60.0024001,664.5661,665.5691,,,,,,,,,,,,,,,,,,,,,,,,,,665.5691,666.1692,z,1,0.5832,,666.1692,666.1695,,0,313,313,256,1,257,yaruza,,,,,6,harmonic,1.9,nw,z,,,,,,,
,,,,,,,,,,,bahadir altun,001,2023-11-07_21h31.56.649,vowel_harmony,2023.2.3,MacIntel,60.0024001,666.1698,667.1655,,,,,,,,,,,,,,,,,,,,,,,,,,667.1656,667.6841,z,1,0.4997,,667.6842,667.6842,,0,314,314,238,1,239,kocı,,,,,4,harmonic,1.95,nw,z,,,,,,,
,,,,,,,,,,,bahadir altun,001,2023-11-07_21h31.56.649,vowel_harmony,2023.2.3,MacIntel,60.0024001,667.6845,668.6842,,,,,,,,,,,,,,,,,,,,,,,,,,668.6843,669.2322,z,1,0.5361,,669.2322,669.2322,,0,315,315,352,1,353,yılden,,,,,6,notharmonic,1.8,nw,z,,,,,,,
,,,,,,,,,,,bahadir altun,001,2023-11-07_21h31.56.649,vowel_harmony,2023.2.3,MacIntel,60.0024001,669.2326,670.2325,,,,,,,,,,,,,,,,,,,,,,,,,,670.2325,670.851,z,0,0.5993,,670.8511,670.8512,,0,316,316,75,1,76,roman,1499,68.1086,1281,0.14,5,harmonic,1.6,word,m,,,,,,,
,,,,,,,,,,,bahadir altun,001,2023-11-07_21h31.56.649,vowel_harmony,2023.2.3,MacIntel,60.0024001,670.8516,671.8528,,,,,,,,,,,,,,,,,,,,,,,,,,671.8529,673.3183,z,1,1.4477,,673.3184,673.3185,,0,317,317,276,1,277,iptap,,,,,5,notharmonic,1.95,nw,z,,,,,,,
,,,,,,,,,,,bahadir altun,001,2023-11-07_21h31.56.649,vowel_harmony,2023.2.3,MacIntel,60.0024001,673.331,674.3345,,,,,,,,,,,,,,,,,,,,,,,,,,674.3346,675.1009,m,1,0.7566,,675.1009,675.1013,,0,318,318,115,1,116,saniye,1088,49.4344,984,0.1076,6,notharmonic,1.35,word,m,,,,,,,
,,,,,,,,,,,bahadir altun,001,2023-11-07_21h31.56.649,vowel_harmony,2023.2.3,MacIntel,60.0024001,675.1017,676.1022,,,,,,,,,,,,,,,,,,,,,,,,,,676.1024,676.7518,m,1,0.6382,,676.752,676.7521,,0,319,319,44,1,45,kayıt,1234,56.0681,1058,0.1157,5,harmonic,1.35,word,m,,,,,,,
,,,,,,,,,,,bahadir altun,001,2023-11-07_21h31.56.649,vowel_harmony,2023.2.3,MacIntel,60.0024001,676.7528,677.7514,,,,,,,,,,,,,,,,,,,,,,,,,,677.7515,678.4342,z,1,0.6696,,678.4342,678.4344,,0,320,320,345,1,346,bardeş,,,,,6,notharmonic,1.95,nw,z,,,,,,,
,,,,,,,,,,,bahadir altun,001,2023-11-07_21h31.56.649,vowel_harmony,2023.2.3,MacIntel,60.0024001,678.4347,679.4325,,,,,,,,,,,,,,,,,,,,,,,,,,679.4325,681.2517,m,1,1.8002,,681.2518,681.2518,,0,321,321,21,1,22,duygu,1877,85.2834,1760,0.1924,5,harmonic,1.8,word,m,,,,,,,
,,,,,,,,,,,bahadir altun,001,2023-11-07_21h31.56.649,vowel_harmony,2023.2.3,MacIntel,60.0024001,681.2522,682.2517,,,,,,,,,,,,,,,,,,,,,,,,,,682.2518,682.8166,m,1,0.547,,682.8167,682.8169,,0,322,322,151,1,152,ateş,2108,95.7792,1803,0.1971,4,notharmonic,1.65,word,m,,,,,,,
,,,,,,,,,,,bahadir altun,001,2023-11-07_21h31.56.649,vowel_harmony,2023.2.3,MacIntel,60.0024001,682.8174,683.8165,,,,,,,,,,,,,,,,,,,,,,,,,,683.8166,684.4686,m,1,0.6408,,684.4686,684.4689,,0,323,323,3,1,4,minik,2916,132.4915,2594,0.2836,5,harmonic,1.6,word,m,,,,,,,
,,,,,,,,,,,bahadir altun,001,2023-11-07_21h31.56.649,vowel_harmony,2023.2.3,MacIntel,60.0024001,684.4694,685.4679,,,,,,,,,,,,,,,,,,,,,,,,,,685.4679,686.1524,z,1,0.6634,,686.1524,686.1525,,0,324,324,275,1,276,tahçe,,,,,5,notharmonic,1.95,nw,z,,,,,,,
,,,,,,,,,,,bahadir altun,001,2023-11-07_21h31.56.649,vowel_harmony,2023.2.3,MacIntel,60.0024001,686.1527,687.1521,,,,,,,,,,,,,,,,,,,,,,,,,,687.1523,688.2845,m,1,1.1164,,688.2845,688.2846,,0,325,325,120,1,121,ihmal,1002,45.5269,977,0.1068,5,notharmonic,1.65,word,m,,,,,,,
,,,,,,,,,,,bahadir altun,001,2023-11-07_21h31.56.649,vowel_harmony,2023.2.3,MacIntel,60.0024001,688.285,689.2854,,,,,,,,,,,,,,,,,,,,,,,,,,689.2855,689.9333,z,1,0.6315,,689.9333,689.9334,,0,326,326,310,1,311,yandeş,,,,,6,notharmonic,1.95,nw,z,,,,,,,
,,,,,,,,,,,bahadir altun,001,2023-11-07_21h31.56.649,vowel_harmony,2023.2.3,MacIntel,60.0024001,689.9337,690.9351,,,,,,,,,,,,,,,,,,,,,,,,,,690.9351,691.7171,m,1,0.7701,,691.7171,691.7172,,0,327,327,83,1,84,küçük,14048,638.2854,12467,1.3629,5,harmonic,1.75,word,m,,,,,,,
,,,,,,,,,,,bahadir altun,001,2023-11-07_21h31.56.649,vowel_harmony,2023.2.3,MacIntel,60.0024001,691.7173,692.7159,,,,,,,,,,,,,,,,,,,,,,,,,,692.7159,693.5525,z,1,0.817,,693.5525,693.5526,,0,328,328,298,1,299,yelsın,,,,,6,notharmonic,1.95,nw,z,,,,,,,
,,,,,,,,,,,bahadir altun,001,2023-11-07_21h31.56.649,vowel_harmony,2023.2.3,MacIntel,60.0024001,693.5529,694.5518,,,,,,,,,,,,,,,,,,,,,,,,,,694.5519,695.6025,m,1,1.0378,,695.6026,695.6026,,0,329,329,32,1,33,temel,4231,192.2399,3851,0.421,5,harmonic,1.55,word,m,,,,,,,
,,,,,,,,,,,bahadir altun,001,2023-11-07_21h31.56.649,vowel_harmony,2023.2.3,MacIntel,60.0024001,695.603,696.6004,,,,,,,,,,,,,,,,,,,,,,,,,,696.6005,697.4015,m,1,0.7847,,697.4015,697.4016,,0,330,330,19,1,20,ödül,1063,48.2985,926,0.1012,4,harmonic,1.7,word,m,,,,,,,
,,,,,,,,,,,bahadir altun,001,2023-11-07_21h31.56.649,vowel_harmony,2023.2.3,MacIntel,60.0024001,697.4018,698.4005,,,,,,,,,,,,,,,,,,,,,,,,,,698.4005,699.0517,z,1,0.6373,,699.0518,699.0518,,0,331,331,331,1,332,ehun,,,,,4,notharmonic,1.95,nw,z,,,,,,,
,,,,,,,,,,,bahadir altun,001,2023-11-07_21h31.56.649,vowel_harmony,2023.2.3,MacIntel,60.0024001,699.0522,700.0515,,,,,,,,,,,,,,,,,,,,,,,,,,700.0516,701.1686,z,1,1.1056,,701.169,701.1692,,0,332,332,333,1,334,heyran,,,,,6,notharmonic,1.85,nw,z,,,,,,,
,,,,,,,,,,,bahadir altun,001,2023-11-07_21h31.56.649,vowel_harmony,2023.2.3,MacIntel,60.0024001,701.1696,702.1681,,,,,,,,,,,,,,,,,,,,,,,,,,702.1681,702.8354,z,1,0.6499,,702.8354,702.8355,,0,333,333,294,1,295,mesap,,,,,5,notharmonic,1.8,nw,z,,,,,,,
,,,,,,,,,,,bahadir altun,001,2023-11-07_21h31.56.649,vowel_harmony,2023.2.3,MacIntel,60.0024001,702.8362,703.8342,,,,,,,,,,,,,,,,,,,,,,,,,,703.8342,704.5841,z,1,0.7396,,704.5841,704.5844,,0,334,334,228,1,229,haytam,,,,,6,harmonic,1.75,nw,z,,,,,,,
,,,,,,,,,,,bahadir altun,001,2023-11-07_21h31.56.649,vowel_harmony,2023.2.3,MacIntel,60.0024001,704.5848,705.5838,,,,,,,,,,,,,,,,,,,,,,,,,,705.584,706.1841,z,1,0.5785,,706.1841,706.1842,,0,335,335,336,1,337,diyam,,,,,5,notharmonic,1.85,nw,z,,,,,,,
,,,,,,,,,,,bahadir altun,001,2023-11-07_21h31.56.649,vowel_harmony,2023.2.3,MacIntel,60.0024001,706.1845,707.1856,,,,,,,,,,,,,,,,,,,,,,,,,,707.1856,708.8988,z,1,1.7023,,708.8988,708.8989,,0,336,336,315,1,316,takep,,,,,5,notharmonic,1.85,nw,z,,,,,,,
,,,,,,,,,,,bahadir altun,001,2023-11-07_21h31.56.649,vowel_harmony,2023.2.3,MacIntel,60.0024001,708.8992,709.9021,,,,,,,,,,,,,,,,,,,,,,,,,,709.9024,710.5677,m,1,0.6448,,710.5678,710.5678,,0,337,337,103,1,104,tane,5623,255.4868,5075,0.5548,4,notharmonic,1.3,word,m,,,,,,,
,,,,,,,,,,,bahadir altun,001,2023-11-07_21h31.56.649,vowel_harmony,2023.2.3,MacIntel,60.0024001,710.5681,711.5659,,,,,,,,,,,,,,,,,,,,,,,,,,711.5659,712.2189,m,1,0.6325,,712.219,712.2191,,0,338,338,5,1,6,bebek,3301,149.9843,2794,0.3054,5,harmonic,1.6,word,m,,,,,,,
,,,,,,,,,,,bahadir altun,001,2023-11-07_21h31.56.649,vowel_harmony,2023.2.3,MacIntel,60.0024001,712.2194,713.2196,,,,,,,,,,,,,,,,,,,,,,,,,,713.2196,713.818,z,1,0.5859,,713.818,713.8182,,0,339,339,187,1,188,remrin,,,,,6,harmonic,1.9,nw,z,,,,,,,
,,,,,,,,,,,bahadir altun,001,2023-11-07_21h31.56.649,vowel_harmony,2023.2.3,MacIntel,60.0024001,713.8185,714.8183,,,,,,,,,,,,,,,,,,,,,,,,,,714.8183,715.4154,z,1,0.5808,,715.4155,715.4155,,0,340,340,259,1,260,hayuk,,,,,5,harmonic,1.95,nw,z,,,,,,,
,,,,,,,,,,,bahadir altun,001,2023-11-07_21h31.56.649,vowel_harmony,2023.2.3,MacIntel,60.0024001,715.4159,716.418,,,,,,,,,,,,,,,,,,,,,,,,,,716.4181,716.9854,z,1,0.5564,,716.9855,716.9856,,0,341,341,299,1,300,fihal,,,,,5,notharmonic,1.95,nw,z,,,,,,,
,,,,,,,,,,,bahadir altun,001,2023-11-07_21h31.56.649,vowel_harmony,2023.2.3,MacIntel,60.0024001,716.9862,717.9854,,,,,,,,,,,,,,,,,,,,,,,,,,717.9854,718.6526,m,1,0.6535,,718.6527,718.6527,,0,342,342,6,1,7,hayal,4498,204.3713,4079,0.4459,5,harmonic,1.45,word,m,,,,,,,
,,,,,,,,,,,bahadir altun,001,2023-11-07_21h31.56.649,vowel_harmony,2023.2.3,MacIntel,60.0024001,718.6532,719.6513,,,,,,,,,,,,,,,,,,,,,,,,,,719.6513,720.2505,m,1,0.5793,,720.2505,720.2508,,0,343,343,13,1,14,nokta,2085,94.7341,1939,0.212,5,harmonic,1.5,word,m,,,,,,,
,,,,,,,,,,,bahadir altun,001,2023-11-07_21h31.56.649,vowel_harmony,2023.2.3,MacIntel,60.0024001,720.2511,721.2508,,,,,,,,,,,,,,,,,,,,,,,,,,721.2509,721.8999,z,1,0.6298,,721.9,721.9001,,0,344,344,249,1,250,hurıt,,,,,5,harmonic,1.95,nw,z,,,,,,,
,,,,,,,,,,,bahadir altun,001,2023-11-07_21h31.56.649,vowel_harmony,2023.2.3,MacIntel,60.0024001,721.9004,722.8994,,,,,,,,,,,,,,,,,,,,,,,,,,722.8997,723.5187,z,1,0.5992,,723.5187,723.5189,,0,345,345,284,1,285,deval,,,,,5,notharmonic,1.75,nw,z,,,,,,,
,,,,,,,,,,,bahadir altun,001,2023-11-07_21h31.56.649,vowel_harmony,2023.2.3,MacIntel,60.0024001,723.5193,724.5192,,,,,,,,,,,,,,,,,,,,,,,,,,724.5192,725.1857,m,1,0.654,,725.1857,725.1858,,0,346,346,88,1,89,yalnız,5891,267.6637,5440,0.5947,6,harmonic,1.6,word,m,,,,,,,
,,,,,,,,,,,bahadir altun,001,2023-11-07_21h31.56.649,vowel_harmony,2023.2.3,MacIntel,60.0024001,725.1861,726.1846,,,,,,,,,,,,,,,,,,,,,,,,,,726.1846,726.8513,m,1,0.6582,,726.8513,726.8515,,0,347,347,22,1,23,anlam,1730,78.6043,1617,0.1768,5,harmonic,1.25,word,m,,,,,,,
,,,,,,,,,,,bahadir altun,001,2023-11-07_21h31.56.649,vowel_harmony,2023.2.3,MacIntel,60.0024001,726.852,727.8515,,,,,,,,,,,,,,,,,,,,,,,,,,727.8515,728.3821,z,1,0.5148,,728.3822,728.3823,,0,348,348,215,1,216,aydo,,,,,4,harmonic,1.9,nw,z,,,,,,,
,,,,,,,,,,,bahadir altun,001,2023-11-07_21h31.56.649,vowel_harmony,2023.2.3,MacIntel,60.0024001,728.3827,729.3845,,,,,,,,,,,,,,,,,,,,,,,,,,729.3845,730.0344,z,1,0.6329,,730.0347,730.0347,,0,349,349,221,1,222,yaypın,,,,,6,harmonic,1.75,nw,z,,,,,,,
,,,,,,,,,,,bahadir altun,001,2023-11-07_21h31.56.649,vowel_harmony,2023.2.3,MacIntel,60.0024001,730.0352,731.0325,,,,,,,,,,,,,,,,,,,,,,,,,,731.0326,731.6514,z,1,0.6042,,731.6514,731.6515,,0,350,350,207,1,208,örtre,,,,,5,harmonic,1.85,nw,z,,,,,,,
,,,,,,,,,,,bahadir altun,001,2023-11-07_21h31.56.649,vowel_harmony,2023.2.3,MacIntel,60.0024001,731.6517,732.6509,,,,,,,,,,,,,,,,,,,,,,,,,,732.651,733.2194,m,1,0.5533,,733.2195,733.2196,,0,351,351,110,1,111,rüya,1062,48.2531,937,0.1024,4,notharmonic,1.75,word,m,,,,,,,
,,,,,,,,,,,bahadir altun,001,2023-11-07_21h31.56.649,vowel_harmony,2023.2.3,MacIntel,60.0024001,733.2199,734.2192,,,,,,,,,,,,,,,,,,,,,,,,,,734.2192,734.7682,m,1,0.5325,,734.7682,734.7683,,0,352,352,17,1,18,yakın,7990,363.0339,7595,0.8303,5,harmonic,1.8,word,m,,,,,,,
,,,,,,,,,,,bahadir altun,001,2023-11-07_21h31.56.649,vowel_harmony,2023.2.3,MacIntel,60.0024001,734.7686,735.7703,,,,,,,,,,,,,,,,,,,,,,,,,,735.7705,736.3833,z,1,0.5928,,736.3834,736.3834,,0,353,353,270,1,271,miyaj,,,,,5,notharmonic,1.9,nw,z,,,,,,,
,,,,,,,,,,,bahadir altun,001,2023-11-07_21h31.56.649,vowel_harmony,2023.2.3,MacIntel,60.0024001,736.3838,737.3846,,,,,,,,,,,,,,,,,,,,,,,,,,737.3846,738.017,m,1,0.6154,,738.017,738.017,,0,354,354,129,1,130,tahmin,2353,106.911,2273,0.2485,6,notharmonic,1.6,word,m,,,,,,,
,,,,,,,,,,,bahadir altun,001,2023-11-07_21h31.56.649,vowel_harmony,2023.2.3,MacIntel,60.0024001,738.0174,739.0176,,,,,,,,,,,,,,,,,,,,,,,,,,739.0176,739.7511,z,1,0.717,,739.7511,739.7512,,0,355,355,204,1,205,gerkez,,,,,6,harmonic,1.9,nw,z,,,,,,,
,,,,,,,,,,,bahadir altun,001,2023-11-07_21h31.56.649,vowel_harmony,2023.2.3,MacIntel,60.0024001,739.7515,740.7494,,,,,,,,,,,,,,,,,,,,,,,,,,740.7495,741.6334,m,1,0.8743,,741.6334,741.6336,,0,356,356,43,1,44,geniş,3380,153.5738,3185,0.3482,5,harmonic,1.35,word,m,,,,,,,
,,,,,,,,,,,bahadir altun,001,2023-11-07_21h31.56.649,vowel_harmony,2023.2.3,MacIntel,60.0024001,741.634,742.6349,,,,,,,,,,,,,,,,,,,,,,,,,,742.6351,743.4329,z,1,0.7851,,743.4331,743.4331,,0,357,357,351,1,352,seğlık,,,,,6,notharmonic,1.9,nw,z,,,,,,,
,,,,,,,,,,,bahadir altun,001,2023-11-07_21h31.56.649,vowel_harmony,2023.2.3,MacIntel,60.0024001,743.4335,744.4351,,,,,,,,,,,,,,,,,,,,,,,,,,744.4352,745.134,z,1,0.682,,745.134,745.1341,,0,358,358,252,1,253,anlgı,,,,,5,harmonic,1.9,nw,z,,,,,,,
,,,,,,,,,,,bahadir altun,001,2023-11-07_21h31.56.649,vowel_harmony,2023.2.3,MacIntel,60.0024001,745.1344,746.1322,,,,,,,,,,,,,,,,,,,,,,,,,,746.1323,747.0322,m,1,0.8851,,747.0322,747.0323,,0,359,359,10,1,11,bardak,1728,78.5135,1569,0.1715,6,harmonic,1.6,word,m,,,,,,,
,,,,,,,,,,,bahadir altun,001,2023-11-07_21h31.56.649,vowel_harmony,2023.2.3,MacIntel,60.0024001,,,,,,,,,,,,,,,,,,,,,,,,,,,,,,,,,,,,,,,,,,,,,,,,,,,,,,,747.0327,749.3832,space,2.338,