Welcome_screen.started,Welcome_screen.stopped,key_respwelcome.keys,key_respwelcome.rt,key_respwelcome.duration,intro_x.thisRepN,intro_x.thisTrialN,intro_x.thisN,intro_x.thisIndex,intro_x.ran,Introduction,participant,session,date,expName,psychopyVersion,OS,frameRate,Fixation.started,Fixation.stopped,Studypractice.started,Studypractice.stopped,key_respstudy.keys,key_respstudy.corr,key_respstudy.rt,key_respstudy.duration,rt,corr,Feedback.started,Feedback.stopped,practice_loop.thisRepN,practice_loop.thisTrialN,practice_loop.thisN,practice_loop.thisIndex,practice_loop.ran,item_nr_p,target_p,isHarmonic_p,target_cond_p,CorrAns_p,Instraction.started,Instraction.stopped,key_respınstraction.keys,key_respınstraction.rt,key_respınstraction.duration,TestTrial.started,TestTrial.stopped,key_respTest.keys,key_respTest.corr,key_respTest.rt,key_respTest.duration,Pause.started,Pause.stopped,key_resp_xx.keys,test_loop.thisRepN,test_loop.thisTrialN,test_loop.thisN,test_loop.thisIndex,test_loop.ran,item_nr,target,BlogFreq_A1,BlogFreqpm_A1,BlogCD_A1,BlogCDPc_A1,WordLength_A1,isHarmonic_A1,old20,target_cond,CorrAns,key_resp_xx.rt,key_resp_xx.duration,Goodbye_screen.started,Goodbye_screen.stopped,key_respgoodbye.keys,key_respgoodbye.rt,key_respgoodbye.duration
0.012,2.366,space,2.33,,0,0,0,0,1,"Deneye hoş geldiniz,

Devam etmek için BOŞLUK tuşuna basınız.",Deneme,001,2023-11-07_20h37.26.712,vowel_harmony,2023.2.3,Win32,60.0240096,,,,,,,,,,,,,,,,,,,,,,,,,,,,,,,,,,,,,,,,,,,,,,,,,,,,,,,,,,,
2.367,7.447,space,5.05,,0,1,1,1,1,"Bu çalışma Valencia Üniversitesi kapsamında yürütülmektedir. Deneydeki göreviniz, ekrana çıkacak Türkçe sözcüklerin kelime olup olmadığını belirlemenizdir. Eğer sözcük gerçek bir kelime ise ""m"" tuşuna, değil ise ""z"" tuşuna basınız.   

Devam etmek için BOŞLUK tuşuna basınız.",Deneme,001,2023-11-07_20h37.26.712,vowel_harmony,2023.2.3,Win32,60.0240096,,,,,,,,,,,,,,,,,,,,,,,,,,,,,,,,,,,,,,,,,,,,,,,,,,,,,,,,,,,
7.447,12.828,space,5.354,,0,2,2,2,1,"Her sözcük için en fazla iki saniyede cevap vermeniz beklenmektedir. Aksi takdirde deney bir sonraki sözcük ile devam eder. 
Bu çalışmada oldukça hızlı ve doğru cevaplama yapmanız beklenmektedir.

Devam etmek için BOŞLUK tuşuna basınız.",Deneme,001,2023-11-07_20h37.26.712,vowel_harmony,2023.2.3,Win32,60.0240096,,,,,,,,,,,,,,,,,,,,,,,,,,,,,,,,,,,,,,,,,,,,,,,,,,,,,,,,,,,
12.828,16.709,space,3.857,,0,3,3,3,1,"Çalışmaya başlamadan önce ufak bir pratik yer almaktadır.
Kelimedir: ""m""
Kelime değildir: ""z""

Pratik teste başlamak için BOŞLUK tuşuna basınız. ",Deneme,001,2023-11-07_20h37.26.712,vowel_harmony,2023.2.3,Win32,60.0240096,,,,,,,,,,,,,,,,,,,,,,,,,,,,,,,,,,,,,,,,,,,,,,,,,,,,,,,,,,,
,,,,,,,,,,,Deneme,001,2023-11-07_20h37.26.712,vowel_harmony,2023.2.3,Win32,60.0240096,16.719,17.709,17.709,18.208,m,1,0.478,,0.478,1,18.208,19.708,0,0,0,5,1,6,bahçe,notharmonic,word,m,,,,,,,,,,,,,,,,,,,,,,,,,,,,,,,,,,,,,
,,,,,,,,,,,Deneme,001,2023-11-07_20h37.26.712,vowel_harmony,2023.2.3,Win32,60.0240096,19.709,20.708,20.708,21.057,z,1,0.331,,0.331,1,21.057,22.556,0,1,1,14,1,15,pimer,harmonic,nw,z,,,,,,,,,,,,,,,,,,,,,,,,,,,,,,,,,,,,,
,,,,,,,,,,,Deneme,001,2023-11-07_20h37.26.712,vowel_harmony,2023.2.3,Win32,60.0240096,22.557,23.556,23.556,24.072,m,0,0.497,,0.497,0,24.072,25.572,0,2,2,11,1,12,geki,harmonic,nw,z,,,,,,,,,,,,,,,,,,,,,,,,,,,,,,,,,,,,,
,,,,,,,,,,,Deneme,001,2023-11-07_20h37.26.712,vowel_harmony,2023.2.3,Win32,60.0240096,25.573,26.572,26.572,26.955,m,1,0.363,,0.363,1,26.955,28.455,0,3,3,2,1,3,memur,notharmonic,word,m,,,,,,,,,,,,,,,,,,,,,,,,,,,,,,,,,,,,,
,,,,,,,,,,,Deneme,001,2023-11-07_20h37.26.712,vowel_harmony,2023.2.3,Win32,60.0240096,28.459,29.454,29.454,29.987,m,1,0.514,,0.514,1,29.987,31.486,0,4,4,6,1,7,pilot,notharmonic,word,m,,,,,,,,,,,,,,,,,,,,,,,,,,,,,,,,,,,,,
,,,,,,,,,,,Deneme,001,2023-11-07_20h37.26.712,vowel_harmony,2023.2.3,Win32,60.0240096,31.487,32.486,32.486,33.085,z,1,0.586,,0.586,1,33.085,34.584,0,5,5,13,1,14,pilar,notharmonic,nw,z,,,,,,,,,,,,,,,,,,,,,,,,,,,,,,,,,,,,,
,,,,,,,,,,,Deneme,001,2023-11-07_20h37.26.712,vowel_harmony,2023.2.3,Win32,60.0240096,34.585,35.584,35.584,36.067,m,1,0.462,,0.462,1,36.067,37.566,0,6,6,0,1,1,ihale,notharmonic,word,m,,,,,,,,,,,,,,,,,,,,,,,,,,,,,,,,,,,,,
,,,,,,,,,,,Deneme,001,2023-11-07_20h37.26.712,vowel_harmony,2023.2.3,Win32,60.0240096,37.567,38.566,38.566,39.433,z,1,0.847,,0.847,1,39.433,40.932,0,7,7,9,1,10,orat,harmonic,nw,z,,,,,,,,,,,,,,,,,,,,,,,,,,,,,,,,,,,,,
,,,,,,,,,,,Deneme,001,2023-11-07_20h37.26.712,vowel_harmony,2023.2.3,Win32,60.0240096,40.933,41.931,41.931,42.498,z,1,0.546,,0.546,1,42.498,43.997,0,8,8,15,1,16,mımal,harmonic,nw,z,,,,,,,,,,,,,,,,,,,,,,,,,,,,,,,,,,,,,
,,,,,,,,,,,Deneme,001,2023-11-07_20h37.26.712,vowel_harmony,2023.2.3,Win32,60.0240096,43.997,44.997,44.997,45.729,z,1,0.714,,0.714,1,45.729,47.229,0,9,9,10,1,11,mahne,notharmonic,nw,z,,,,,,,,,,,,,,,,,,,,,,,,,,,,,,,,,,,,,
,,,,,,,,,,,Deneme,001,2023-11-07_20h37.26.712,vowel_harmony,2023.2.3,Win32,60.0240096,47.23,48.229,48.229,49.078,m,0,0.832,,0.832,0,49.078,50.577,0,10,10,8,1,9,tahip,notharmonic,nw,z,,,,,,,,,,,,,,,,,,,,,,,,,,,,,,,,,,,,,
,,,,,,,,,,,Deneme,001,2023-11-07_20h37.26.712,vowel_harmony,2023.2.3,Win32,60.0240096,50.578,51.577,51.577,52.26,m,1,0.665,,0.665,1,52.26,53.759,0,11,11,7,1,8,oran,harmonic,word,m,,,,,,,,,,,,,,,,,,,,,,,,,,,,,,,,,,,,,
,,,,,,,,,,,Deneme,001,2023-11-07_20h37.26.712,vowel_harmony,2023.2.3,Win32,60.0240096,53.759,54.759,54.759,55.459,m,1,0.685,,0.685,1,55.459,56.957,0,12,12,3,1,4,ihlal,notharmonic,word,m,,,,,,,,,,,,,,,,,,,,,,,,,,,,,,,,,,,,,
,,,,,,,,,,,Deneme,001,2023-11-07_20h37.26.712,vowel_harmony,2023.2.3,Win32,60.0240096,56.958,57.957,57.957,58.49,m,1,0.515,,0.515,1,58.49,59.99,0,13,13,4,1,5,mimar,notharmonic,word,m,,,,,,,,,,,,,,,,,,,,,,,,,,,,,,,,,,,,,
,,,,,,,,,,,Deneme,001,2023-11-07_20h37.26.712,vowel_harmony,2023.2.3,Win32,60.0240096,59.99,60.99,60.991,61.539,m,1,0.527,,0.527,1,61.539,63.039,0,14,14,1,1,2,veri,harmonic,word,m,,,,,,,,,,,,,,,,,,,,,,,,,,,,,,,,,,,,,
,,,,,,,,,,,Deneme,001,2023-11-07_20h37.26.712,vowel_harmony,2023.2.3,Win32,60.0240096,63.043,64.038,64.038,64.754,z,1,0.698,,0.698,1,64.754,66.253,0,15,15,12,1,13,ihlot,notharmonic,nw,z,,,,,,,,,,,,,,,,,,,,,,,,,,,,,,,,,,,,,
,,,,,,,,,,,Deneme,001,2023-11-07_20h37.26.712,vowel_harmony,2023.2.3,Win32,60.0240096,,,,,,,,,,,,,,,,,,,,,,,66.253,109.235,space,42.956,,,,,,,,,,,,,,,,,,,,,,,,,,,,,,,,,
,,,,,,,,,,,Deneme,001,2023-11-07_20h37.26.712,vowel_harmony,2023.2.3,Win32,60.0240096,109.283,110.251,,,,,,,,,,,,,,,,,,,,,,,,,,110.251,110.883,z,1,0.61,,110.884,110.887,,0,0,0,195,1,196,netüm,,,,,5,harmonic,1.95,nw,z,,,,,,,
,,,,,,,,,,,Deneme,001,2023-11-07_20h37.26.712,vowel_harmony,2023.2.3,Win32,60.0240096,110.888,111.883,,,,,,,,,,,,,,,,,,,,,,,,,,111.883,112.516,m,1,0.62,,112.516,112.516,,0,1,1,87,1,88,mümkün,6604,300.0596,6264,0.6848,6,harmonic,1.9,word,m,,,,,,,
,,,,,,,,,,,Deneme,001,2023-11-07_20h37.26.712,vowel_harmony,2023.2.3,Win32,60.0240096,112.517,113.515,,,,,,,,,,,,,,,,,,,,,,,,,,113.515,114.049,z,1,0.517,,114.049,114.049,,0,2,2,334,1,335,işgan,,,,,5,notharmonic,1.95,nw,z,,,,,,,
,,,,,,,,,,,Deneme,001,2023-11-07_20h37.26.712,vowel_harmony,2023.2.3,Win32,60.0240096,114.05,115.048,,,,,,,,,,,,,,,,,,,,,,,,,,115.048,115.664,z,1,0.604,,115.664,115.664,,0,3,3,236,1,237,toklam,,,,,6,harmonic,1.85,nw,z,,,,,,,
,,,,,,,,,,,Deneme,001,2023-11-07_20h37.26.712,vowel_harmony,2023.2.3,Win32,60.0240096,115.667,116.664,,,,,,,,,,,,,,,,,,,,,,,,,,116.664,117.214,m,1,0.537,,117.214,117.214,,0,4,4,58,1,59,ayak,2143,97.3694,1931,0.2111,4,harmonic,1,word,m,,,,,,,
,,,,,,,,,,,Deneme,001,2023-11-07_20h37.26.712,vowel_harmony,2023.2.3,Win32,60.0240096,117.215,118.213,,,,,,,,,,,,,,,,,,,,,,,,,,118.213,118.83,z,1,0.603,,118.83,118.83,,0,5,5,269,1,270,vekü,,,,,4,harmonic,2,nw,z,,,,,,,
,,,,,,,,,,,Deneme,001,2023-11-07_20h37.26.712,vowel_harmony,2023.2.3,Win32,60.0240096,118.83,119.829,,,,,,,,,,,,,,,,,,,,,,,,,,119.829,120.546,z,1,0.706,,120.546,120.546,,0,6,6,301,1,302,mezak,,,,,5,notharmonic,1.8,nw,z,,,,,,,
,,,,,,,,,,,Deneme,001,2023-11-07_20h37.26.712,vowel_harmony,2023.2.3,Win32,60.0240096,120.547,121.546,,,,,,,,,,,,,,,,,,,,,,,,,,121.546,122.212,z,1,0.647,,122.212,122.212,,0,7,7,356,1,357,mergun,,,,,6,notharmonic,1.95,nw,z,,,,,,,
,,,,,,,,,,,Deneme,001,2023-11-07_20h37.26.712,vowel_harmony,2023.2.3,Win32,60.0240096,122.212,123.211,,,,,,,,,,,,,,,,,,,,,,,,,,123.211,124.078,z,1,0.85,,124.078,124.078,,0,8,8,225,1,226,düvem,,,,,5,harmonic,1.7,nw,z,,,,,,,
,,,,,,,,,,,Deneme,001,2023-11-07_20h37.26.712,vowel_harmony,2023.2.3,Win32,60.0240096,124.078,125.077,,,,,,,,,,,,,,,,,,,,,,,,,,125.077,125.627,m,1,0.532,,125.627,125.627,,0,9,9,136,1,137,beyaz,5517,250.6706,4788,0.5234,5,notharmonic,1.85,word,m,,,,,,,
,,,,,,,,,,,Deneme,001,2023-11-07_20h37.26.712,vowel_harmony,2023.2.3,Win32,60.0240096,125.627,126.627,,,,,,,,,,,,,,,,,,,,,,,,,,126.627,127.31,z,1,0.672,,127.31,127.31,,0,10,10,277,1,278,balsin,,,,,6,notharmonic,1.85,nw,z,,,,,,,
,,,,,,,,,,,Deneme,001,2023-11-07_20h37.26.712,vowel_harmony,2023.2.3,Win32,60.0240096,127.31,128.31,,,,,,,,,,,,,,,,,,,,,,,,,,128.311,128.908,m,1,0.579,,128.908,128.909,,0,11,11,37,1,38,hayvan,2363,107.3653,1894,0.2071,6,harmonic,1.5,word,m,,,,,,,
,,,,,,,,,,,Deneme,001,2023-11-07_20h37.26.712,vowel_harmony,2023.2.3,Win32,60.0240096,128.913,129.908,,,,,,,,,,,,,,,,,,,,,,,,,,129.908,130.408,z,1,0.485,,130.408,130.408,,0,12,12,335,1,336,lilo,,,,,4,notharmonic,1.8,nw,z,,,,,,,
,,,,,,,,,,,Deneme,001,2023-11-07_20h37.26.712,vowel_harmony,2023.2.3,Win32,60.0240096,130.409,131.408,,,,,,,,,,,,,,,,,,,,,,,,,,131.408,132.274,z,1,0.848,,132.274,132.274,,0,13,13,295,1,296,haylin,,,,,6,notharmonic,1.8,nw,z,,,,,,,
,,,,,,,,,,,Deneme,001,2023-11-07_20h37.26.712,vowel_harmony,2023.2.3,Win32,60.0240096,132.275,133.273,,,,,,,,,,,,,,,,,,,,,,,,,,133.273,134.256,z,1,0.963,,134.256,134.257,,0,14,14,239,1,240,şekik,,,,,5,harmonic,1.7,nw,z,,,,,,,
,,,,,,,,,,,Deneme,001,2023-11-07_20h37.26.712,vowel_harmony,2023.2.3,Win32,60.0240096,134.258,135.256,,,,,,,,,,,,,,,,,,,,,,,,,,135.256,135.888,m,1,0.615,,135.888,135.889,,0,15,15,163,1,164,limon,1658,75.3329,1481,0.1619,5,notharmonic,1.75,word,m,,,,,,,
,,,,,,,,,,,Deneme,001,2023-11-07_20h37.26.712,vowel_harmony,2023.2.3,Win32,60.0240096,135.889,136.888,,,,,,,,,,,,,,,,,,,,,,,,,,136.888,137.521,m,1,0.615,,137.521,137.521,,0,16,16,110,1,111,rüya,1062,48.2531,937,0.1024,4,notharmonic,1.75,word,m,,,,,,,
,,,,,,,,,,,Deneme,001,2023-11-07_20h37.26.712,vowel_harmony,2023.2.3,Win32,60.0240096,137.523,138.521,,,,,,,,,,,,,,,,,,,,,,,,,,138.521,139.071,m,1,0.532,,139.071,139.071,,0,17,17,157,1,158,aktif,1062,48.2531,986,0.1078,5,notharmonic,1.9,word,m,,,,,,,
,,,,,,,,,,,Deneme,001,2023-11-07_20h37.26.712,vowel_harmony,2023.2.3,Win32,60.0240096,139.071,140.07,,,,,,,,,,,,,,,,,,,,,,,,,,140.07,140.636,m,1,0.548,,140.636,140.636,,0,18,18,108,1,109,tarih,2806,127.4935,2483,0.2714,5,notharmonic,1.55,word,m,,,,,,,
,,,,,,,,,,,Deneme,001,2023-11-07_20h37.26.712,vowel_harmony,2023.2.3,Win32,60.0240096,140.637,141.636,,,,,,,,,,,,,,,,,,,,,,,,,,141.636,142.252,m,1,0.598,,142.252,142.253,,0,19,19,112,1,113,sezon,2315,105.1844,1917,0.2096,5,notharmonic,1.8,word,m,,,,,,,
,,,,,,,,,,,Deneme,001,2023-11-07_20h37.26.712,vowel_harmony,2023.2.3,Win32,60.0240096,142.254,143.252,,,,,,,,,,,,,,,,,,,,,,,,,,143.252,143.785,m,1,0.519,,143.785,143.785,,0,20,20,177,1,178,tekrar,10788,490.1639,9352,1.0224,6,notharmonic,1.85,word,m,,,,,,,
,,,,,,,,,,,Deneme,001,2023-11-07_20h37.26.712,vowel_harmony,2023.2.3,Win32,60.0240096,143.786,144.785,,,,,,,,,,,,,,,,,,,,,,,,,,144.785,145.468,m,1,0.663,,145.468,145.468,,0,21,21,162,1,163,hariç,1267,57.5675,1233,0.1348,5,notharmonic,1.75,word,m,,,,,,,
,,,,,,,,,,,Deneme,001,2023-11-07_20h37.26.712,vowel_harmony,2023.2.3,Win32,60.0240096,145.469,146.467,,,,,,,,,,,,,,,,,,,,,,,,,,146.467,146.984,m,1,0.498,,146.984,146.984,,0,22,22,113,1,114,model,1200,54.5232,1082,0.1183,5,notharmonic,1.75,word,m,,,,,,,
,,,,,,,,,,,Deneme,001,2023-11-07_20h37.26.712,vowel_harmony,2023.2.3,Win32,60.0240096,146.984,147.983,,,,,,,,,,,,,,,,,,,,,,,,,,147.983,148.65,z,1,0.654,,148.65,148.65,,0,23,23,289,1,290,karmen,,,,,6,notharmonic,1.75,nw,z,,,,,,,
,,,,,,,,,,,Deneme,001,2023-11-07_20h37.26.712,vowel_harmony,2023.2.3,Win32,60.0240096,148.65,149.649,,,,,,,,,,,,,,,,,,,,,,,,,,149.649,150.132,m,1,0.472,,150.133,150.133,,0,24,24,90,1,91,tarif,2834,128.7657,2611,0.2854,5,notharmonic,1.5,word,m,,,,,,,
,,,,,,,,,,,Deneme,001,2023-11-07_20h37.26.712,vowel_harmony,2023.2.3,Win32,60.0240096,150.133,151.132,,,,,,,,,,,,,,,,,,,,,,,,,,151.132,151.947,z,1,0.804,,151.947,151.948,,0,25,25,263,1,264,duzur,,,,,5,harmonic,1.8,nw,z,,,,,,,
,,,,,,,,,,,Deneme,001,2023-11-07_20h37.26.712,vowel_harmony,2023.2.3,Win32,60.0240096,151.948,152.947,,,,,,,,,,,,,,,,,,,,,,,,,,152.947,153.664,z,1,0.699,,153.664,153.664,,0,26,26,244,1,245,kaof,,,,,4,harmonic,1.9,nw,z,,,,,,,
,,,,,,,,,,,Deneme,001,2023-11-07_20h37.26.712,vowel_harmony,2023.2.3,Win32,60.0240096,153.664,154.664,,,,,,,,,,,,,,,,,,,,,,,,,,154.664,155.347,z,1,0.671,,155.347,155.347,,0,27,27,271,1,272,mimal,,,,,5,notharmonic,1.8,nw,z,,,,,,,
,,,,,,,,,,,Deneme,001,2023-11-07_20h37.26.712,vowel_harmony,2023.2.3,Win32,60.0240096,155.35,156.346,,,,,,,,,,,,,,,,,,,,,,,,,,156.346,156.945,m,1,0.585,,156.945,156.945,,0,28,28,168,1,169,kilo,3389,153.9827,2646,0.2893,4,notharmonic,1.65,word,m,,,,,,,
,,,,,,,,,,,Deneme,001,2023-11-07_20h37.26.712,vowel_harmony,2023.2.3,Win32,60.0240096,156.946,157.945,,,,,,,,,,,,,,,,,,,,,,,,,,157.945,158.596,m,1,0.63,,158.596,158.596,,0,29,29,150,1,151,sabit,1046,47.5261,915,0.1,5,notharmonic,1.75,word,m,,,,,,,
,,,,,,,,,,,Deneme,001,2023-11-07_20h37.26.712,vowel_harmony,2023.2.3,Win32,60.0240096,158.596,159.594,,,,,,,,,,,,,,,,,,,,,,,,,,159.594,160.278,z,1,0.666,,160.278,160.278,,0,30,30,201,1,202,ergiy,,,,,5,harmonic,1.85,nw,z,,,,,,,
,,,,,,,,,,,Deneme,001,2023-11-07_20h37.26.712,vowel_harmony,2023.2.3,Win32,60.0240096,160.278,161.277,,,,,,,,,,,,,,,,,,,,,,,,,,161.277,161.81,m,1,0.515,,161.811,161.811,,0,31,31,33,1,34,moda,1381,62.7472,1231,0.1346,4,harmonic,1.55,word,m,,,,,,,
,,,,,,,,,,,Deneme,001,2023-11-07_20h37.26.712,vowel_harmony,2023.2.3,Win32,60.0240096,161.811,162.811,,,,,,,,,,,,,,,,,,,,,,,,,,162.812,163.459,z,1,0.63,,163.459,163.46,,0,32,32,234,1,235,düzöt,,,,,5,harmonic,2.05,nw,z,,,,,,,
,,,,,,,,,,,Deneme,001,2023-11-07_20h37.26.712,vowel_harmony,2023.2.3,Win32,60.0240096,163.464,164.459,,,,,,,,,,,,,,,,,,,,,,,,,,164.459,165.109,z,1,0.631,,165.109,165.109,,0,33,33,210,1,211,şevci,,,,,5,harmonic,1.75,nw,z,,,,,,,
,,,,,,,,,,,Deneme,001,2023-11-07_20h37.26.712,vowel_harmony,2023.2.3,Win32,60.0240096,165.11,166.108,,,,,,,,,,,,,,,,,,,,,,,,,,166.108,166.791,z,1,0.663,,166.791,166.791,,0,34,34,245,1,246,bıyan,,,,,5,harmonic,1.7,nw,z,,,,,,,
,,,,,,,,,,,Deneme,001,2023-11-07_20h37.26.712,vowel_harmony,2023.2.3,Win32,60.0240096,166.793,167.791,,,,,,,,,,,,,,,,,,,,,,,,,,167.791,168.424,z,1,0.614,,168.424,168.424,,0,35,35,306,1,307,otet,,,,,4,notharmonic,1.95,nw,z,,,,,,,
,,,,,,,,,,,Deneme,001,2023-11-07_20h37.26.712,vowel_harmony,2023.2.3,Win32,60.0240096,168.425,169.424,,,,,,,,,,,,,,,,,,,,,,,,,,169.424,169.956,m,1,0.521,,169.956,169.956,,0,36,36,131,1,132,hakim,1677,76.1962,1559,0.1704,5,notharmonic,1,word,m,,,,,,,
,,,,,,,,,,,Deneme,001,2023-11-07_20h37.26.712,vowel_harmony,2023.2.3,Win32,60.0240096,169.957,170.956,,,,,,,,,,,,,,,,,,,,,,,,,,170.956,171.672,z,1,0.699,,171.673,171.673,,0,37,37,286,1,287,cedan,,,,,5,notharmonic,1.8,nw,z,,,,,,,
,,,,,,,,,,,Deneme,001,2023-11-07_20h37.26.712,vowel_harmony,2023.2.3,Win32,60.0240096,171.673,172.673,,,,,,,,,,,,,,,,,,,,,,,,,,172.673,173.272,m,1,0.58,,173.272,173.272,,0,38,38,111,1,112,kahve,2634,119.6785,2283,0.2496,5,notharmonic,1.85,word,m,,,,,,,
,,,,,,,,,,,Deneme,001,2023-11-07_20h37.26.712,vowel_harmony,2023.2.3,Win32,60.0240096,173.273,174.271,,,,,,,,,,,,,,,,,,,,,,,,,,174.271,174.988,z,1,0.698,,174.988,174.988,,0,39,39,232,1,233,kanur,,,,,5,harmonic,1.7,nw,z,,,,,,,
,,,,,,,,,,,Deneme,001,2023-11-07_20h37.26.712,vowel_harmony,2023.2.3,Win32,60.0240096,174.989,175.985,,,,,,,,,,,,,,,,,,,,,,,,,,175.985,176.504,m,1,0.5,,176.504,176.504,,0,40,40,107,1,108,merak,5806,263.8016,5524,0.6039,5,notharmonic,1.65,word,m,,,,,,,
,,,,,,,,,,,Deneme,001,2023-11-07_20h37.26.712,vowel_harmony,2023.2.3,Win32,60.0240096,176.505,177.503,,,,,,,,,,,,,,,,,,,,,,,,,,177.503,178.12,m,1,0.601,,178.12,178.12,,0,41,41,32,1,33,temel,4231,192.2399,3851,0.421,5,harmonic,1.55,word,m,,,,,,,
,,,,,,,,,,,Deneme,001,2023-11-07_20h37.26.712,vowel_harmony,2023.2.3,Win32,60.0240096,178.12,179.119,,,,,,,,,,,,,,,,,,,,,,,,,,179.119,179.719,z,1,0.582,,179.719,179.719,,0,42,42,250,1,251,kakuk,,,,,5,harmonic,1.9,nw,z,,,,,,,
,,,,,,,,,,,Deneme,001,2023-11-07_20h37.26.712,vowel_harmony,2023.2.3,Win32,60.0240096,179.721,180.719,,,,,,,,,,,,,,,,,,,,,,,,,,180.719,181.352,m,1,0.615,,181.352,181.352,,0,43,43,114,1,115,nisan,2321,105.457,2044,0.2235,5,notharmonic,1.6,word,m,,,,,,,
,,,,,,,,,,,Deneme,001,2023-11-07_20h37.26.712,vowel_harmony,2023.2.3,Win32,60.0240096,181.353,182.351,,,,,,,,,,,,,,,,,,,,,,,,,,182.351,183.267,m,1,0.898,,183.267,183.267,,0,44,44,117,1,118,nasip,1069,48.5711,1042,0.1139,5,notharmonic,1.8,word,m,,,,,,,
,,,,,,,,,,,Deneme,001,2023-11-07_20h37.26.712,vowel_harmony,2023.2.3,Win32,60.0240096,183.268,184.267,,,,,,,,,,,,,,,,,,,,,,,,,,184.267,184.749,m,1,0.466,,184.749,184.749,,0,45,45,21,1,22,duygu,1877,85.2834,1760,0.1924,5,harmonic,1.8,word,m,,,,,,,
,,,,,,,,,,,Deneme,001,2023-11-07_20h37.26.712,vowel_harmony,2023.2.3,Win32,60.0240096,184.752,185.75,,,,,,,,,,,,,,,,,,,,,,,,,,185.75,186.366,z,1,0.598,,186.366,186.366,,0,46,46,254,1,255,millek,,,,,6,harmonic,1.8,nw,z,,,,,,,
,,,,,,,,,,,Deneme,001,2023-11-07_20h37.26.712,vowel_harmony,2023.2.3,Win32,60.0240096,186.367,187.366,,,,,,,,,,,,,,,,,,,,,,,,,,187.366,188.031,m,1,0.649,,188.032,188.033,,0,47,47,26,1,27,sebze,1094,49.707,961,0.1051,5,harmonic,1.9,word,m,,,,,,,
,,,,,,,,,,,Deneme,001,2023-11-07_20h37.26.712,vowel_harmony,2023.2.3,Win32,60.0240096,188.034,189.031,,,,,,,,,,,,,,,,,,,,,,,,,,189.032,189.648,m,1,0.599,,189.648,189.648,,0,48,48,25,1,26,rapor,703,31.9415,617,0.0675,5,harmonic,1.8,word,m,,,,,,,
,,,,,,,,,,,Deneme,001,2023-11-07_20h37.26.712,vowel_harmony,2023.2.3,Win32,60.0240096,189.648,190.647,,,,,,,,,,,,,,,,,,,,,,,,,,190.647,191.247,z,1,0.581,,191.247,191.247,,0,49,49,351,1,352,seğlık,,,,,6,notharmonic,1.9,nw,z,,,,,,,
,,,,,,,,,,,Deneme,001,2023-11-07_20h37.26.712,vowel_harmony,2023.2.3,Win32,60.0240096,191.247,192.247,,,,,,,,,,,,,,,,,,,,,,,,,,192.247,193.046,m,1,0.781,,193.046,193.046,,0,50,50,93,1,94,siyah,2944,133.7637,2527,0.2763,5,notharmonic,1.6,word,m,,,,,,,
,,,,,,,,,,,Deneme,001,2023-11-07_20h37.26.712,vowel_harmony,2023.2.3,Win32,60.0240096,193.048,194.046,,,,,,,,,,,,,,,,,,,,,,,,,,194.046,194.629,m,1,0.564,,194.629,194.629,,0,51,51,118,1,119,meşhur,1092,49.6161,1057,0.1156,6,notharmonic,1.9,word,m,,,,,,,
,,,,,,,,,,,Deneme,001,2023-11-07_20h37.26.712,vowel_harmony,2023.2.3,Win32,60.0240096,194.63,195.629,,,,,,,,,,,,,,,,,,,,,,,,,,195.629,196.496,m,1,0.853,,196.498,196.498,,0,52,52,35,1,36,hava,4975,226.0443,4398,0.4808,4,harmonic,1,word,m,,,,,,,
,,,,,,,,,,,Deneme,001,2023-11-07_20h37.26.712,vowel_harmony,2023.2.3,Win32,60.0240096,196.499,197.494,,,,,,,,,,,,,,,,,,,,,,,,,,197.494,198.094,m,1,0.581,,198.094,198.094,,0,53,53,172,1,173,milyar,1496,67.9723,1078,0.1178,6,notharmonic,1.85,word,m,,,,,,,
,,,,,,,,,,,Deneme,001,2023-11-07_20h37.26.712,vowel_harmony,2023.2.3,Win32,60.0240096,198.095,199.094,,,,,,,,,,,,,,,,,,,,,,,,,,199.094,199.676,z,1,0.566,,199.676,199.676,,0,54,54,340,1,341,minya,,,,,5,notharmonic,1.95,nw,z,,,,,,,
,,,,,,,,,,,Deneme,001,2023-11-07_20h37.26.712,vowel_harmony,2023.2.3,Win32,60.0240096,199.677,200.676,,,,,,,,,,,,,,,,,,,,,,,,,,200.676,201.176,m,1,0.487,,201.176,201.176,,0,55,55,24,1,25,yorgun,1153,52.3877,1108,0.1211,6,harmonic,1.55,word,m,,,,,,,
,,,,,,,,,,,Deneme,001,2023-11-07_20h37.26.712,vowel_harmony,2023.2.3,Win32,60.0240096,201.177,202.175,,,,,,,,,,,,,,,,,,,,,,,,,,202.175,202.758,z,1,0.567,,202.758,202.758,,0,56,56,265,1,266,parula,,,,,6,harmonic,1.75,nw,z,,,,,,,
,,,,,,,,,,,Deneme,001,2023-11-07_20h37.26.712,vowel_harmony,2023.2.3,Win32,60.0240096,202.759,203.757,,,,,,,,,,,,,,,,,,,,,,,,,,203.757,204.291,m,1,0.517,,204.291,204.291,,0,57,57,167,1,168,adalet,1611,73.1975,1388,0.1517,6,notharmonic,1.65,word,m,,,,,,,
,,,,,,,,,,,Deneme,001,2023-11-07_20h37.26.712,vowel_harmony,2023.2.3,Win32,60.0240096,204.292,205.29,,,,,,,,,,,,,,,,,,,,,,,,,,205.29,205.84,m,0,0.534,,205.84,205.84,,0,58,58,216,1,217,çeyret,,,,,6,harmonic,1.9,nw,z,,,,,,,
,,,,,,,,,,,Deneme,001,2023-11-07_20h37.26.712,vowel_harmony,2023.2.3,Win32,60.0240096,205.841,206.84,,,,,,,,,,,,,,,,,,,,,,,,,,206.84,207.456,z,1,0.603,,207.456,207.456,,0,59,59,233,1,234,devpi,,,,,5,harmonic,1.8,nw,z,,,,,,,
,,,,,,,,,,,Deneme,001,2023-11-07_20h37.26.712,vowel_harmony,2023.2.3,Win32,60.0240096,207.457,208.456,,,,,,,,,,,,,,,,,,,,,,,,,,208.456,209.156,z,1,0.681,,209.156,209.156,,0,60,60,347,1,348,tekram,,,,,6,notharmonic,1.95,nw,z,,,,,,,
,,,,,,,,,,,Deneme,001,2023-11-07_20h37.26.712,vowel_harmony,2023.2.3,Win32,60.0240096,209.157,210.156,,,,,,,,,,,,,,,,,,,,,,,,,,210.156,210.738,m,1,0.572,,210.739,210.739,,0,61,61,160,1,161,hakem,603,27.3979,473,0.0517,5,notharmonic,1.3,word,m,,,,,,,
,,,,,,,,,,,Deneme,001,2023-11-07_20h37.26.712,vowel_harmony,2023.2.3,Win32,60.0240096,210.741,211.738,,,,,,,,,,,,,,,,,,,,,,,,,,211.738,212.371,m,1,0.616,,212.371,212.371,,0,62,62,132,1,133,modern,2326,105.6842,2031,0.222,6,notharmonic,1.85,word,m,,,,,,,
,,,,,,,,,,,Deneme,001,2023-11-07_20h37.26.712,vowel_harmony,2023.2.3,Win32,60.0240096,212.372,213.371,,,,,,,,,,,,,,,,,,,,,,,,,,213.371,213.97,z,1,0.581,,213.97,213.97,,0,63,63,348,1,349,aife,,,,,4,notharmonic,1.75,nw,z,,,,,,,
,,,,,,,,,,,Deneme,001,2023-11-07_20h37.26.712,vowel_harmony,2023.2.3,Win32,60.0240096,213.971,214.97,,,,,,,,,,,,,,,,,,,,,,,,,,214.97,215.703,z,1,0.714,,215.703,215.703,,0,64,64,259,1,260,hayuk,,,,,5,harmonic,1.95,nw,z,,,,,,,
,,,,,,,,,,,Deneme,001,2023-11-07_20h37.26.712,vowel_harmony,2023.2.3,Win32,60.0240096,215.703,216.702,,,,,,,,,,,,,,,,,,,,,,,,,,216.702,217.501,z,1,0.78,,217.501,217.502,,0,65,65,218,1,219,tezöl,,,,,5,harmonic,2,nw,z,,,,,,,
,,,,,,,,,,,Deneme,001,2023-11-07_20h37.26.712,vowel_harmony,2023.2.3,Win32,60.0240096,217.502,218.501,,,,,,,,,,,,,,,,,,,,,,,,,,218.501,219.468,z,1,0.952,,219.468,219.468,,0,66,66,211,1,212,yarum,,,,,5,harmonic,1.75,nw,z,,,,,,,
,,,,,,,,,,,Deneme,001,2023-11-07_20h37.26.712,vowel_harmony,2023.2.3,Win32,60.0240096,219.469,220.467,,,,,,,,,,,,,,,,,,,,,,,,,,220.467,221.866,z,1,1.384,,221.866,221.867,,0,67,67,204,1,205,gerkez,,,,,6,harmonic,1.9,nw,z,,,,,,,
,,,,,,,,,,,Deneme,001,2023-11-07_20h37.26.712,vowel_harmony,2023.2.3,Win32,60.0240096,221.867,222.866,,,,,,,,,,,,,,,,,,,,,,,,,,222.866,223.632,z,1,0.75,,223.632,223.632,,0,68,68,317,1,318,mevul,,,,,5,notharmonic,1.95,nw,z,,,,,,,
,,,,,,,,,,,Deneme,001,2023-11-07_20h37.26.712,vowel_harmony,2023.2.3,Win32,60.0240096,223.632,224.632,,,,,,,,,,,,,,,,,,,,,,,,,,224.632,225.148,m,1,0.504,,225.148,225.148,,0,69,69,149,1,150,ceza,2611,118.6335,2169,0.2371,4,notharmonic,1.5,word,m,,,,,,,
,,,,,,,,,,,Deneme,001,2023-11-07_20h37.26.712,vowel_harmony,2023.2.3,Win32,60.0240096,225.149,226.148,,,,,,,,,,,,,,,,,,,,,,,,,,226.148,226.683,m,1,0.515,,226.684,226.684,,0,70,70,94,1,95,final,876,39.802,778,0.0851,5,notharmonic,1,word,m,,,,,,,
,,,,,,,,,,,Deneme,001,2023-11-07_20h37.26.712,vowel_harmony,2023.2.3,Win32,60.0240096,226.686,227.681,,,,,,,,,,,,,,,,,,,,,,,,,,227.681,228.23,z,1,0.53,,228.23,228.23,,0,71,71,242,1,243,kahon,,,,,5,harmonic,1.85,nw,z,,,,,,,
,,,,,,,,,,,Deneme,001,2023-11-07_20h37.26.712,vowel_harmony,2023.2.3,Win32,60.0240096,228.231,229.229,,,,,,,,,,,,,,,,,,,,,,,,,,229.23,229.746,m,1,0.505,,229.747,229.747,,0,72,72,164,1,165,sinema,1575,71.5618,1304,0.1426,6,notharmonic,1.8,word,m,,,,,,,
,,,,,,,,,,,Deneme,001,2023-11-07_20h37.26.712,vowel_harmony,2023.2.3,Win32,60.0240096,229.748,230.746,,,,,,,,,,,,,,,,,,,,,,,,,,230.746,231.362,z,1,0.604,,231.362,231.362,,0,73,73,355,1,356,adül,,,,,4,notharmonic,1.85,nw,z,,,,,,,
,,,,,,,,,,,Deneme,001,2023-11-07_20h37.26.712,vowel_harmony,2023.2.3,Win32,60.0240096,231.363,232.362,,,,,,,,,,,,,,,,,,,,,,,,,,232.362,232.878,m,1,0.497,,232.878,232.878,,0,74,74,66,1,67,sanık,768,34.8949,699,0.0764,5,harmonic,1.85,word,m,,,,,,,
,,,,,,,,,,,Deneme,001,2023-11-07_20h37.26.712,vowel_harmony,2023.2.3,Win32,60.0240096,232.879,233.878,,,,,,,,,,,,,,,,,,,,,,,,,,233.878,234.461,m,1,0.57,,234.461,234.461,,0,75,75,4,1,5,metre,1156,52.5241,1015,0.111,5,harmonic,1.7,word,m,,,,,,,
,,,,,,,,,,,Deneme,001,2023-11-07_20h37.26.712,vowel_harmony,2023.2.3,Win32,60.0240096,234.462,235.46,,,,,,,,,,,,,,,,,,,,,,,,,,235.46,235.927,m,1,0.452,,235.927,235.927,,0,76,76,77,1,78,ufak,3252,147.758,2980,0.3258,4,harmonic,1.5,word,m,,,,,,,
,,,,,,,,,,,Deneme,001,2023-11-07_20h37.26.712,vowel_harmony,2023.2.3,Win32,60.0240096,235.928,236.926,,,,,,,,,,,,,,,,,,,,,,,,,,236.926,237.542,m,1,0.599,,237.542,237.542,,0,77,77,88,1,89,yalnız,5891,267.6637,5440,0.5947,6,harmonic,1.6,word,m,,,,,,,
,,,,,,,,,,,Deneme,001,2023-11-07_20h37.26.712,vowel_harmony,2023.2.3,Win32,60.0240096,237.544,238.542,,,,,,,,,,,,,,,,,,,,,,,,,,238.542,238.909,m,1,0.356,,238.909,238.909,,0,78,78,144,1,145,garip,2567,116.6343,2355,0.2574,5,notharmonic,1.65,word,m,,,,,,,
,,,,,,,,,,,Deneme,001,2023-11-07_20h37.26.712,vowel_harmony,2023.2.3,Win32,60.0240096,238.909,239.908,,,,,,,,,,,,,,,,,,,,,,,,,,239.908,240.475,z,1,0.555,,240.475,240.475,,0,79,79,200,1,201,duşın,,,,,5,harmonic,1.9,nw,z,,,,,,,
,,,,,,,,,,,Deneme,001,2023-11-07_20h37.26.712,vowel_harmony,2023.2.3,Win32,60.0240096,240.476,241.474,,,,,,,,,,,,,,,,,,,,,,,,,,241.474,242.223,m,1,0.737,,242.223,242.224,,0,80,80,15,1,16,hayat,7922,359.9443,7314,0.7996,5,harmonic,1.9,word,m,,,,,,,
,,,,,,,,,,,Deneme,001,2023-11-07_20h37.26.712,vowel_harmony,2023.2.3,Win32,60.0240096,242.224,243.223,,,,,,,,,,,,,,,,,,,,,,,,,,243.223,243.989,z,1,0.753,,243.989,243.989,,0,81,81,357,1,358,işarek,,,,,6,notharmonic,1.95,nw,z,,,,,,,
,,,,,,,,,,,Deneme,001,2023-11-07_20h37.26.712,vowel_harmony,2023.2.3,Win32,60.0240096,243.99,244.99,,,,,,,,,,,,,,,,,,,,,,,,,,244.99,245.672,m,1,0.668,,245.672,245.672,,0,82,82,179,1,180,dakika,5891,267.6637,5207,0.5692,6,notharmonic,1.75,word,m,,,,,,,
,,,,,,,,,,,Deneme,001,2023-11-07_20h37.26.712,vowel_harmony,2023.2.3,Win32,60.0240096,245.673,246.672,,,,,,,,,,,,,,,,,,,,,,,,,,246.672,247.255,z,1,0.569,,247.255,247.255,,0,83,83,197,1,198,ranar,,,,,5,harmonic,1.75,nw,z,,,,,,,
,,,,,,,,,,,Deneme,001,2023-11-07_20h37.26.712,vowel_harmony,2023.2.3,Win32,60.0240096,247.255,248.254,,,,,,,,,,,,,,,,,,,,,,,,,,248.254,248.82,m,1,0.548,,248.82,248.821,,0,84,84,68,1,69,ücret,734,33.35,634,0.0693,5,harmonic,1.85,word,m,,,,,,,
,,,,,,,,,,,Deneme,001,2023-11-07_20h37.26.712,vowel_harmony,2023.2.3,Win32,60.0240096,248.821,249.821,,,,,,,,,,,,,,,,,,,,,,,,,,249.821,250.437,z,1,0.604,,250.437,250.437,,0,85,85,316,1,317,misaf,,,,,5,notharmonic,1.85,nw,z,,,,,,,
,,,,,,,,,,,Deneme,001,2023-11-07_20h37.26.712,vowel_harmony,2023.2.3,Win32,60.0240096,250.437,251.436,,,,,,,,,,,,,,,,,,,,,,,,,,251.436,252.003,m,1,0.553,,252.003,252.003,,0,86,86,171,1,172,reklam,1565,71.1074,1244,0.136,6,notharmonic,1.9,word,m,,,,,,,
,,,,,,,,,,,Deneme,001,2023-11-07_20h37.26.712,vowel_harmony,2023.2.3,Win32,60.0240096,252.003,253.002,,,,,,,,,,,,,,,,,,,,,,,,,,253.002,253.602,m,1,0.585,,253.602,253.602,,0,87,87,42,1,43,ürün,2268,103.0489,1954,0.2136,4,harmonic,1.1,word,m,,,,,,,
,,,,,,,,,,,Deneme,001,2023-11-07_20h37.26.712,vowel_harmony,2023.2.3,Win32,60.0240096,253.603,254.601,,,,,,,,,,,,,,,,,,,,,,,,,,254.602,255.218,m,1,0.601,,255.218,255.218,,0,88,88,30,1,31,çevre,1662,75.5147,1409,0.154,5,harmonic,1.55,word,m,,,,,,,
,,,,,,,,,,,Deneme,001,2023-11-07_20h37.26.712,vowel_harmony,2023.2.3,Win32,60.0240096,255.218,256.217,,,,,,,,,,,,,,,,,,,,,,,,,,256.217,256.719,m,1,0.487,,256.719,256.72,,0,89,89,39,1,40,yaygın,1061,48.2076,1019,0.1114,6,harmonic,1.35,word,m,,,,,,,
,,,,,,,,,,,Deneme,001,2023-11-07_20h37.26.712,vowel_harmony,2023.2.3,Win32,60.0240096,256.722,257.717,,,,,,,,,,,,,,,,,,,,,,,,,,257.717,258.233,m,1,0.504,,258.233,258.233,,0,90,90,31,1,32,fazla,18293,831.1614,16694,1.825,5,harmonic,1,word,m,,,,,,,
,,,,,,,,,,,Deneme,001,2023-11-07_20h37.26.712,vowel_harmony,2023.2.3,Win32,60.0240096,258.234,259.233,,,,,,,,,,,,,,,,,,,,,,,,,,259.233,259.866,z,1,0.623,,259.866,259.867,,0,91,91,253,1,254,meslet,,,,,6,harmonic,1.85,nw,z,,,,,,,
,,,,,,,,,,,Deneme,001,2023-11-07_20h37.26.712,vowel_harmony,2023.2.3,Win32,60.0240096,259.868,260.865,,,,,,,,,,,,,,,,,,,,,,,,,,260.865,261.499,z,1,0.614,,261.499,261.499,,0,92,92,213,1,214,kaun,,,,,4,harmonic,1.7,nw,z,,,,,,,
,,,,,,,,,,,Deneme,001,2023-11-07_20h37.26.712,vowel_harmony,2023.2.3,Win32,60.0240096,261.499,262.499,,,,,,,,,,,,,,,,,,,,,,,,,,262.499,263.198,z,1,0.685,,263.198,263.198,,0,93,93,318,1,319,yorgün,,,,,6,notharmonic,1.9,nw,z,,,,,,,
,,,,,,,,,,,Deneme,001,2023-11-07_20h37.26.712,vowel_harmony,2023.2.3,Win32,60.0240096,263.199,264.197,,,,,,,,,,,,,,,,,,,,,,,,,,264.197,264.83,m,1,0.62,,264.831,264.831,,0,94,94,106,1,107,esnaf,315,14.3124,284,0.031,5,notharmonic,1.55,word,m,,,,,,,
,,,,,,,,,,,Deneme,001,2023-11-07_20h37.26.712,vowel_harmony,2023.2.3,Win32,60.0240096,264.832,265.83,,,,,,,,,,,,,,,,,,,,,,,,,,265.83,266.38,z,1,0.537,,266.38,266.38,,0,95,95,192,1,193,vecö,,,,,4,harmonic,1.95,nw,z,,,,,,,
,,,,,,,,,,,Deneme,001,2023-11-07_20h37.26.712,vowel_harmony,2023.2.3,Win32,60.0240096,266.381,267.379,,,,,,,,,,,,,,,,,,,,,,,,,,267.379,267.929,m,1,0.53,,267.929,267.929,,0,96,96,121,1,122,mesaj,1604,72.8794,1386,0.1515,5,notharmonic,1.8,word,m,,,,,,,
,,,,,,,,,,,Deneme,001,2023-11-07_20h37.26.712,vowel_harmony,2023.2.3,Win32,60.0240096,267.93,268.928,,,,,,,,,,,,,,,,,,,,,,,,,,268.928,269.462,z,1,0.518,,269.462,269.462,,0,97,97,283,1,284,fahe,,,,,4,notharmonic,1.95,nw,z,,,,,,,
,,,,,,,,,,,Deneme,001,2023-11-07_20h37.26.712,vowel_harmony,2023.2.3,Win32,60.0240096,269.463,270.461,,,,,,,,,,,,,,,,,,,,,,,,,,270.462,271.061,m,1,0.587,,271.061,271.061,,0,98,98,49,1,50,şeker,4708,213.9128,4170,0.4559,5,harmonic,1.6,word,m,,,,,,,
,,,,,,,,,,,Deneme,001,2023-11-07_20h37.26.712,vowel_harmony,2023.2.3,Win32,60.0240096,271.062,272.06,,,,,,,,,,,,,,,,,,,,,,,,,,272.06,272.643,z,1,0.567,,272.644,272.644,,0,99,99,326,1,327,ailo,,,,,4,notharmonic,1.75,nw,z,,,,,,,
,,,,,,,,,,,Deneme,001,2023-11-07_20h37.26.712,vowel_harmony,2023.2.3,Win32,60.0240096,272.644,273.643,,,,,,,,,,,,,,,,,,,,,,,,,,273.643,274.209,z,1,0.549,,274.209,274.209,,0,100,100,288,1,289,molit,,,,,5,notharmonic,1.95,nw,z,,,,,,,
,,,,,,,,,,,Deneme,001,2023-11-07_20h37.26.712,vowel_harmony,2023.2.3,Win32,60.0240096,274.21,275.209,,,,,,,,,,,,,,,,,,,,,,,,,,275.209,276.075,z,1,0.851,,276.075,276.075,,0,101,101,241,1,242,porlam,,,,,6,harmonic,2,nw,z,,,,,,,
,,,,,,,,,,,Deneme,001,2023-11-07_20h37.26.712,vowel_harmony,2023.2.3,Win32,60.0240096,276.075,277.075,,,,,,,,,,,,,,,,,,,,,,,,,,277.075,277.608,z,1,0.515,,277.608,277.608,,0,102,102,302,1,303,işgar,,,,,5,notharmonic,1.9,nw,z,,,,,,,
,,,,,,,,,,,Deneme,001,2023-11-07_20h37.26.712,vowel_harmony,2023.2.3,Win32,60.0240096,277.609,278.607,,,,,,,,,,,,,,,,,,,,,,,,,,278.608,279.59,z,1,0.969,,279.59,279.59,,0,103,103,324,1,325,pakeh,,,,,5,notharmonic,1.9,nw,z,,,,,,,
,,,,,,,,,,,Deneme,001,2023-11-07_20h37.26.712,vowel_harmony,2023.2.3,Win32,60.0240096,279.591,280.59,,,,,,,,,,,,,,,,,,,,,,,,,,280.59,281.389,m,1,0.779,,281.39,281.39,,0,104,104,13,1,14,nokta,2085,94.7341,1939,0.212,5,harmonic,1.5,word,m,,,,,,,
,,,,,,,,,,,Deneme,001,2023-11-07_20h37.26.712,vowel_harmony,2023.2.3,Win32,60.0240096,281.39,282.389,,,,,,,,,,,,,,,,,,,,,,,,,,282.389,282.855,m,1,0.45,,282.855,282.855,,0,105,105,159,1,160,vakit,3476,157.9357,3298,0.3605,5,notharmonic,1.65,word,m,,,,,,,
,,,,,,,,,,,Deneme,001,2023-11-07_20h37.26.712,vowel_harmony,2023.2.3,Win32,60.0240096,282.856,283.855,,,,,,,,,,,,,,,,,,,,,,,,,,283.855,284.338,m,1,0.466,,284.338,284.338,,0,106,106,59,1,60,köpek,1044,47.4352,901,0.0985,5,harmonic,1.75,word,m,,,,,,,
,,,,,,,,,,,Deneme,001,2023-11-07_20h37.26.712,vowel_harmony,2023.2.3,Win32,60.0240096,284.339,285.338,,,,,,,,,,,,,,,,,,,,,,,,,,285.338,285.787,m,1,0.431,,285.787,285.788,,0,107,107,3,1,4,minik,2916,132.4915,2594,0.2836,5,harmonic,1.6,word,m,,,,,,,
,,,,,,,,,,,Deneme,001,2023-11-07_20h37.26.712,vowel_harmony,2023.2.3,Win32,60.0240096,285.788,286.788,,,,,,,,,,,,,,,,,,,,,,,,,,286.789,287.553,m,1,0.751,,287.554,287.554,,0,108,108,20,1,21,nefes,2871,130.4469,2553,0.2791,5,harmonic,1.8,word,m,,,,,,,
,,,,,,,,,,,Deneme,001,2023-11-07_20h37.26.712,vowel_harmony,2023.2.3,Win32,60.0240096,287.558,288.553,,,,,,,,,,,,,,,,,,,,,,,,,,288.553,289.086,z,1,0.521,,289.086,289.086,,0,109,109,184,1,185,yapor,,,,,5,harmonic,1.9,nw,z,,,,,,,
,,,,,,,,,,,Deneme,001,2023-11-07_20h37.26.712,vowel_harmony,2023.2.3,Win32,60.0240096,289.088,290.085,,,,,,,,,,,,,,,,,,,,,,,,,,290.086,290.569,m,1,0.467,,290.569,290.569,,0,110,110,74,1,75,başarı,1398,63.5196,1300,0.1421,6,harmonic,1.2,word,m,,,,,,,
,,,,,,,,,,,Deneme,001,2023-11-07_20h37.26.712,vowel_harmony,2023.2.3,Win32,60.0240096,290.569,291.568,,,,,,,,,,,,,,,,,,,,,,,,,,291.568,292.085,m,1,0.499,,292.085,292.085,,0,111,111,38,1,39,dönem,2820,128.1296,2437,0.2664,5,harmonic,1.4,word,m,,,,,,,
,,,,,,,,,,,Deneme,001,2023-11-07_20h37.26.712,vowel_harmony,2023.2.3,Win32,60.0240096,292.086,293.084,,,,,,,,,,,,,,,,,,,,,,,,,,293.084,293.734,z,1,0.632,,293.734,293.734,,0,112,112,275,1,276,tahçe,,,,,5,notharmonic,1.95,nw,z,,,,,,,
,,,,,,,,,,,Deneme,001,2023-11-07_20h37.26.712,vowel_harmony,2023.2.3,Win32,60.0240096,293.735,294.734,,,,,,,,,,,,,,,,,,,,,,,,,,294.734,295.266,m,1,0.52,,295.266,295.266,,0,113,113,137,1,138,parti,2613,118.7244,2059,0.2251,5,notharmonic,1.8,word,m,,,,,,,
,,,,,,,,,,,Deneme,001,2023-11-07_20h37.26.712,vowel_harmony,2023.2.3,Win32,60.0240096,295.269,296.266,,,,,,,,,,,,,,,,,,,,,,,,,,296.266,296.849,m,1,0.566,,296.849,296.85,,0,114,114,76,1,77,ilişki,1675,76.1054,1524,0.1666,6,harmonic,1.8,word,m,,,,,,,
,,,,,,,,,,,Deneme,001,2023-11-07_20h37.26.712,vowel_harmony,2023.2.3,Win32,60.0240096,296.851,297.849,,,,,,,,,,,,,,,,,,,,,,,,,,297.849,298.399,z,1,0.534,,298.399,298.399,,0,115,115,359,1,360,kardez,,,,,6,notharmonic,1.95,nw,z,,,,,,,
,,,,,,,,,,,Deneme,001,2023-11-07_20h37.26.712,vowel_harmony,2023.2.3,Win32,60.0240096,298.4,299.398,,,,,,,,,,,,,,,,,,,,,,,,,,299.398,299.798,m,1,0.387,,299.798,299.798,,0,116,116,141,1,142,madde,3793,172.3389,3389,0.3705,5,notharmonic,1.7,word,m,,,,,,,
,,,,,,,,,,,Deneme,001,2023-11-07_20h37.26.712,vowel_harmony,2023.2.3,Win32,60.0240096,299.8,300.797,,,,,,,,,,,,,,,,,,,,,,,,,,300.797,301.43,m,1,0.616,,301.43,301.43,,0,117,117,12,1,13,konu,5400,245.3546,5110,0.5586,4,harmonic,1,word,m,,,,,,,
,,,,,,,,,,,Deneme,001,2023-11-07_20h37.26.712,vowel_harmony,2023.2.3,Win32,60.0240096,301.431,302.43,,,,,,,,,,,,,,,,,,,,,,,,,,302.43,302.963,m,1,0.516,,302.963,302.963,,0,118,118,122,1,123,devam,17666,802.673,16284,1.7802,5,notharmonic,1.55,word,m,,,,,,,
,,,,,,,,,,,Deneme,001,2023-11-07_20h37.26.712,vowel_harmony,2023.2.3,Win32,60.0240096,302.964,303.963,,,,,,,,,,,,,,,,,,,,,,,,,,303.963,304.512,m,1,0.532,,304.512,304.512,,0,119,119,67,1,68,bayram,1948,88.5094,1648,0.1802,6,harmonic,1.85,word,m,,,,,,,
,,,,,,,,,,,Deneme,001,2023-11-07_20h37.26.712,vowel_harmony,2023.2.3,Win32,60.0240096,304.514,305.512,,,,,,,,,,,,,,,,,,,,,,,,,,305.512,306.095,z,1,0.563,,306.095,326.022,space,0,120,120,352,1,353,yılden,,,,,6,notharmonic,1.8,nw,z,19.913,,,,,,
,,,,,,,,,,,Deneme,001,2023-11-07_20h37.26.712,vowel_harmony,2023.2.3,Win32,60.0240096,326.025,327.019,,,,,,,,,,,,,,,,,,,,,,,,,,327.019,327.618,m,1,0.58,,327.618,327.619,,0,121,121,45,1,46,bilgi,5981,271.7529,5353,0.5852,5,harmonic,1.5,word,m,,,,,,,
,,,,,,,,,,,Deneme,001,2023-11-07_20h37.26.712,vowel_harmony,2023.2.3,Win32,60.0240096,327.62,328.619,,,,,,,,,,,,,,,,,,,,,,,,,,328.619,329.118,m,1,0.481,,329.118,329.118,,0,122,122,27,1,28,bölge,1283,58.2944,1123,0.1228,5,harmonic,1.65,word,m,,,,,,,
,,,,,,,,,,,Deneme,001,2023-11-07_20h37.26.712,vowel_harmony,2023.2.3,Win32,60.0240096,329.12,330.118,,,,,,,,,,,,,,,,,,,,,,,,,,330.118,330.65,z,1,0.514,,330.65,330.65,,0,123,123,240,1,241,hoga,,,,,4,harmonic,1.75,nw,z,,,,,,,
,,,,,,,,,,,Deneme,001,2023-11-07_20h37.26.712,vowel_harmony,2023.2.3,Win32,60.0240096,330.652,331.65,,,,,,,,,,,,,,,,,,,,,,,,,,331.651,332.366,z,1,0.697,,332.366,332.366,,0,124,124,294,1,295,mesap,,,,,5,notharmonic,1.8,nw,z,,,,,,,
,,,,,,,,,,,Deneme,001,2023-11-07_20h37.26.712,vowel_harmony,2023.2.3,Win32,60.0240096,332.367,333.366,,,,,,,,,,,,,,,,,,,,,,,,,,333.366,333.966,z,1,0.581,,333.966,333.966,,0,125,125,274,1,275,pisan,,,,,5,notharmonic,1.75,nw,z,,,,,,,
,,,,,,,,,,,Deneme,001,2023-11-07_20h37.26.712,vowel_harmony,2023.2.3,Win32,60.0240096,333.966,334.966,,,,,,,,,,,,,,,,,,,,,,,,,,334.966,335.465,m,1,0.488,,335.465,335.465,,0,126,126,155,1,156,ilaç,1366,62.0656,1215,0.1328,4,notharmonic,1.75,word,m,,,,,,,
,,,,,,,,,,,Deneme,001,2023-11-07_20h37.26.712,vowel_harmony,2023.2.3,Win32,60.0240096,335.466,336.464,,,,,,,,,,,,,,,,,,,,,,,,,,336.464,337.197,z,1,0.72,,337.197,337.197,,0,127,127,285,1,286,iklon,,,,,5,notharmonic,1.85,nw,z,,,,,,,
,,,,,,,,,,,Deneme,001,2023-11-07_20h37.26.712,vowel_harmony,2023.2.3,Win32,60.0240096,337.2,338.197,,,,,,,,,,,,,,,,,,,,,,,,,,338.197,338.664,m,1,0.452,,338.664,338.664,,0,128,128,78,1,79,ulusal,1551,70.4713,1355,0.1481,6,harmonic,1.75,word,m,,,,,,,
,,,,,,,,,,,Deneme,001,2023-11-07_20h37.26.712,vowel_harmony,2023.2.3,Win32,60.0240096,338.664,339.663,,,,,,,,,,,,,,,,,,,,,,,,,,339.664,340.196,z,1,0.515,,340.196,340.196,,0,129,129,188,1,189,tonık,,,,,5,harmonic,1.85,nw,z,,,,,,,
,,,,,,,,,,,Deneme,001,2023-11-07_20h37.26.712,vowel_harmony,2023.2.3,Win32,60.0240096,340.197,341.196,,,,,,,,,,,,,,,,,,,,,,,,,,341.196,341.779,m,1,0.566,,341.779,341.779,,0,130,130,46,1,47,takım,4370,198.5555,3726,0.4073,5,harmonic,1.7,word,m,,,,,,,
,,,,,,,,,,,Deneme,001,2023-11-07_20h37.26.712,vowel_harmony,2023.2.3,Win32,60.0240096,341.78,342.779,,,,,,,,,,,,,,,,,,,,,,,,,,342.779,343.312,m,1,0.513,,343.312,343.312,,0,131,131,128,1,129,tatil,2152,97.7783,1865,0.2039,5,notharmonic,1.7,word,m,,,,,,,
,,,,,,,,,,,Deneme,001,2023-11-07_20h37.26.712,vowel_harmony,2023.2.3,Win32,60.0240096,343.313,344.311,,,,,,,,,,,,,,,,,,,,,,,,,,344.311,344.911,z,1,0.589,,344.911,344.911,,0,132,132,291,1,292,mepan,,,,,5,notharmonic,1.75,nw,z,,,,,,,
,,,,,,,,,,,Deneme,001,2023-11-07_20h37.26.712,vowel_harmony,2023.2.3,Win32,60.0240096,344.911,345.911,,,,,,,,,,,,,,,,,,,,,,,,,,345.911,346.394,m,1,0.467,,346.394,346.394,,0,133,133,135,1,136,hafif,3355,152.4379,3101,0.339,5,notharmonic,1.75,word,m,,,,,,,
,,,,,,,,,,,Deneme,001,2023-11-07_20h37.26.712,vowel_harmony,2023.2.3,Win32,60.0240096,346.394,347.394,,,,,,,,,,,,,,,,,,,,,,,,,,347.397,348.209,m,1,0.793,,348.209,348.21,,0,134,134,125,1,126,ikna,1276,57.9764,1173,0.1282,4,notharmonic,1.85,word,m,,,,,,,
,,,,,,,,,,,Deneme,001,2023-11-07_20h37.26.712,vowel_harmony,2023.2.3,Win32,60.0240096,348.214,349.209,,,,,,,,,,,,,,,,,,,,,,,,,,349.209,349.825,z,1,0.605,,349.825,349.825,,0,135,135,203,1,204,döves,,,,,5,harmonic,1.8,nw,z,,,,,,,
,,,,,,,,,,,Deneme,001,2023-11-07_20h37.26.712,vowel_harmony,2023.2.3,Win32,60.0240096,349.827,350.825,,,,,,,,,,,,,,,,,,,,,,,,,,350.825,351.475,z,1,0.639,,351.475,351.475,,0,136,136,319,1,320,biho,,,,,4,notharmonic,2,nw,z,,,,,,,
,,,,,,,,,,,Deneme,001,2023-11-07_20h37.26.712,vowel_harmony,2023.2.3,Win32,60.0240096,351.476,352.474,,,,,,,,,,,,,,,,,,,,,,,,,,352.474,353.207,z,1,0.722,,353.207,353.207,,0,137,137,341,1,342,işgan,,,,,5,notharmonic,1.95,nw,z,,,,,,,
,,,,,,,,,,,Deneme,001,2023-11-07_20h37.26.712,vowel_harmony,2023.2.3,Win32,60.0240096,353.208,354.207,,,,,,,,,,,,,,,,,,,,,,,,,,354.207,354.773,z,1,0.549,,354.773,354.773,,0,138,138,353,1,354,ikno,,,,,4,notharmonic,1.95,nw,z,,,,,,,
,,,,,,,,,,,Deneme,001,2023-11-07_20h37.26.712,vowel_harmony,2023.2.3,Win32,60.0240096,354.774,355.773,,,,,,,,,,,,,,,,,,,,,,,,,,355.773,356.522,m,1,0.731,,356.522,356.522,,0,139,139,116,1,117,daire,621,28.2158,503,0.055,5,notharmonic,1,word,m,,,,,,,
,,,,,,,,,,,Deneme,001,2023-11-07_20h37.26.712,vowel_harmony,2023.2.3,Win32,60.0240096,356.524,357.522,,,,,,,,,,,,,,,,,,,,,,,,,,357.522,358.055,z,1,0.515,,358.055,358.055,,0,140,140,251,1,252,oştay,,,,,5,harmonic,1.95,nw,z,,,,,,,
,,,,,,,,,,,Deneme,001,2023-11-07_20h37.26.712,vowel_harmony,2023.2.3,Win32,60.0240096,358.055,359.055,,,,,,,,,,,,,,,,,,,,,,,,,,359.055,359.537,m,1,0.464,,359.537,359.537,,0,141,141,34,1,35,hoca,1893,86.0104,1526,0.1668,4,harmonic,1.45,word,m,,,,,,,
,,,,,,,,,,,Deneme,001,2023-11-07_20h37.26.712,vowel_harmony,2023.2.3,Win32,60.0240096,359.538,360.537,,,,,,,,,,,,,,,,,,,,,,,,,,360.537,361.054,z,1,0.508,,361.054,361.054,,0,142,142,193,1,194,yokın,,,,,5,harmonic,1.85,nw,z,,,,,,,
,,,,,,,,,,,Deneme,001,2023-11-07_20h37.26.712,vowel_harmony,2023.2.3,Win32,60.0240096,361.054,362.053,,,,,,,,,,,,,,,,,,,,,,,,,,362.053,362.703,z,1,0.634,,362.703,362.703,,0,143,143,330,1,331,vahçe,,,,,5,notharmonic,1.9,nw,z,,,,,,,
,,,,,,,,,,,Deneme,001,2023-11-07_20h37.26.712,vowel_harmony,2023.2.3,Win32,60.0240096,362.703,363.702,,,,,,,,,,,,,,,,,,,,,,,,,,363.702,364.618,z,1,0.903,,364.618,364.618,,0,144,144,287,1,288,haköm,,,,,5,notharmonic,1.9,nw,z,,,,,,,
,,,,,,,,,,,Deneme,001,2023-11-07_20h37.26.712,vowel_harmony,2023.2.3,Win32,60.0240096,364.619,365.618,,,,,,,,,,,,,,,,,,,,,,,,,,365.618,366.201,m,1,0.571,,366.201,366.201,,0,145,145,28,1,29,parlak,1142,51.888,1088,0.1189,6,harmonic,1.7,word,m,,,,,,,
,,,,,,,,,,,Deneme,001,2023-11-07_20h37.26.712,vowel_harmony,2023.2.3,Win32,60.0240096,366.202,367.201,,,,,,,,,,,,,,,,,,,,,,,,,,367.201,367.9,m,1,0.68,,367.9,367.9,,0,146,146,10,1,11,bardak,1728,78.5135,1569,0.1715,6,harmonic,1.6,word,m,,,,,,,
,,,,,,,,,,,Deneme,001,2023-11-07_20h37.26.712,vowel_harmony,2023.2.3,Win32,60.0240096,367.901,368.899,,,,,,,,,,,,,,,,,,,,,,,,,,368.899,369.583,z,1,0.672,,369.583,369.583,,0,147,147,208,1,209,yayram,,,,,6,harmonic,1.85,nw,z,,,,,,,
,,,,,,,,,,,Deneme,001,2023-11-07_20h37.26.712,vowel_harmony,2023.2.3,Win32,60.0240096,369.584,370.582,,,,,,,,,,,,,,,,,,,,,,,,,,370.582,371.199,z,1,0.602,,371.199,371.199,,0,148,148,296,1,297,işban,,,,,5,notharmonic,1.95,nw,z,,,,,,,
,,,,,,,,,,,Deneme,001,2023-11-07_20h37.26.712,vowel_harmony,2023.2.3,Win32,60.0240096,371.2,372.198,,,,,,,,,,,,,,,,,,,,,,,,,,372.198,372.948,z,1,0.731,,372.948,372.948,,0,149,149,243,1,244,korguf,,,,,6,harmonic,2,nw,z,,,,,,,
,,,,,,,,,,,Deneme,001,2023-11-07_20h37.26.712,vowel_harmony,2023.2.3,Win32,60.0240096,372.949,373.948,,,,,,,,,,,,,,,,,,,,,,,,,,373.948,374.364,m,1,0.399,,374.364,374.364,,0,150,150,18,1,19,normal,4154,188.7413,3788,0.4141,6,harmonic,1.75,word,m,,,,,,,
,,,,,,,,,,,Deneme,001,2023-11-07_20h37.26.712,vowel_harmony,2023.2.3,Win32,60.0240096,374.364,375.363,,,,,,,,,,,,,,,,,,,,,,,,,,375.363,376.079,m,1,0.703,,376.079,376.079,,0,151,151,103,1,104,tane,5623,255.4868,5075,0.5548,4,notharmonic,1.3,word,m,,,,,,,
,,,,,,,,,,,Deneme,001,2023-11-07_20h37.26.712,vowel_harmony,2023.2.3,Win32,60.0240096,376.081,377.079,,,,,,,,,,,,,,,,,,,,,,,,,,377.079,377.63,z,1,0.537,,377.632,377.633,,0,152,152,186,1,187,habık,,,,,5,harmonic,1.9,nw,z,,,,,,,
,,,,,,,,,,,Deneme,001,2023-11-07_20h37.26.712,vowel_harmony,2023.2.3,Win32,60.0240096,377.635,378.629,,,,,,,,,,,,,,,,,,,,,,,,,,378.629,379.162,m,1,0.51,,379.162,379.162,,0,153,153,97,1,98,mevcut,3007,136.6262,2842,0.3107,6,notharmonic,1.95,word,m,,,,,,,
,,,,,,,,,,,Deneme,001,2023-11-07_20h37.26.712,vowel_harmony,2023.2.3,Win32,60.0240096,379.163,380.161,,,,,,,,,,,,,,,,,,,,,,,,,,380.161,380.678,m,1,0.499,,380.678,380.678,,0,154,154,19,1,20,ödül,1063,48.2985,926,0.1012,4,harmonic,1.7,word,m,,,,,,,
,,,,,,,,,,,Deneme,001,2023-11-07_20h37.26.712,vowel_harmony,2023.2.3,Win32,60.0240096,380.679,381.678,,,,,,,,,,,,,,,,,,,,,,,,,,381.678,382.277,z,1,0.581,,382.277,382.277,,0,155,155,229,1,230,tonam,,,,,5,harmonic,1.8,nw,z,,,,,,,
,,,,,,,,,,,Deneme,001,2023-11-07_20h37.26.712,vowel_harmony,2023.2.3,Win32,60.0240096,382.278,383.277,,,,,,,,,,,,,,,,,,,,,,,,,,383.277,383.926,z,1,0.632,,383.926,383.926,,0,156,156,325,1,326,garit,,,,,5,notharmonic,1.85,nw,z,,,,,,,
,,,,,,,,,,,Deneme,001,2023-11-07_20h37.26.712,vowel_harmony,2023.2.3,Win32,60.0240096,383.927,384.926,,,,,,,,,,,,,,,,,,,,,,,,,,384.926,385.492,z,1,0.548,,385.492,385.492,,0,157,157,299,1,300,fihal,,,,,5,notharmonic,1.95,nw,z,,,,,,,
,,,,,,,,,,,Deneme,001,2023-11-07_20h37.26.712,vowel_harmony,2023.2.3,Win32,60.0240096,385.493,386.492,,,,,,,,,,,,,,,,,,,,,,,,,,386.492,387.092,m,1,0.58,,387.092,387.092,,0,158,158,47,1,48,kaza,740,33.6227,679,0.0742,4,harmonic,1.85,word,m,,,,,,,
,,,,,,,,,,,Deneme,001,2023-11-07_20h37.26.712,vowel_harmony,2023.2.3,Win32,60.0240096,387.093,388.091,,,,,,,,,,,,,,,,,,,,,,,,,,388.091,388.674,z,1,0.564,,388.674,388.674,,0,159,159,230,1,231,bikir,,,,,5,harmonic,1.75,nw,z,,,,,,,
,,,,,,,,,,,Deneme,001,2023-11-07_20h37.26.712,vowel_harmony,2023.2.3,Win32,60.0240096,388.675,389.674,,,,,,,,,,,,,,,,,,,,,,,,,,389.674,390.124,m,1,0.431,,390.124,390.124,,0,160,160,133,1,134,taze,2268,103.0489,2062,0.2254,4,notharmonic,1.65,word,m,,,,,,,
,,,,,,,,,,,Deneme,001,2023-11-07_20h37.26.712,vowel_harmony,2023.2.3,Win32,60.0240096,390.125,391.123,,,,,,,,,,,,,,,,,,,,,,,,,,391.123,391.673,z,1,0.531,,391.673,391.673,,0,161,161,315,1,316,takep,,,,,5,notharmonic,1.85,nw,z,,,,,,,
,,,,,,,,,,,Deneme,001,2023-11-07_20h37.26.712,vowel_harmony,2023.2.3,Win32,60.0240096,391.674,392.672,,,,,,,,,,,,,,,,,,,,,,,,,,392.672,393.172,m,1,0.487,,393.172,393.172,,0,162,162,6,1,7,hayal,4498,204.3713,4079,0.4459,5,harmonic,1.45,word,m,,,,,,,
,,,,,,,,,,,Deneme,001,2023-11-07_20h37.26.712,vowel_harmony,2023.2.3,Win32,60.0240096,393.173,394.171,,,,,,,,,,,,,,,,,,,,,,,,,,394.171,394.738,z,1,0.548,,394.738,394.738,,0,163,163,343,1,344,tarne,,,,,5,notharmonic,1.85,nw,z,,,,,,,
,,,,,,,,,,,Deneme,001,2023-11-07_20h37.26.712,vowel_harmony,2023.2.3,Win32,60.0240096,394.739,395.737,,,,,,,,,,,,,,,,,,,,,,,,,,395.737,396.337,z,1,0.589,,396.337,396.337,,0,164,164,346,1,347,kidan,,,,,5,notharmonic,1.8,nw,z,,,,,,,
,,,,,,,,,,,Deneme,001,2023-11-07_20h37.26.712,vowel_harmony,2023.2.3,Win32,60.0240096,396.337,397.337,,,,,,,,,,,,,,,,,,,,,,,,,,397.337,398.053,z,1,0.699,,398.053,398.053,,0,165,165,266,1,267,düştön,,,,,6,harmonic,1.9,nw,z,,,,,,,
,,,,,,,,,,,Deneme,001,2023-11-07_20h37.26.712,vowel_harmony,2023.2.3,Win32,60.0240096,398.054,399.052,,,,,,,,,,,,,,,,,,,,,,,,,,399.053,399.836,z,1,0.769,,399.836,399.836,,0,166,166,293,1,294,esnan,,,,,5,notharmonic,1.85,nw,z,,,,,,,
,,,,,,,,,,,Deneme,001,2023-11-07_20h37.26.712,vowel_harmony,2023.2.3,Win32,60.0240096,399.837,400.836,,,,,,,,,,,,,,,,,,,,,,,,,,400.836,401.451,z,1,0.602,,401.451,401.451,,0,167,167,342,1,343,kulön,,,,,5,notharmonic,1.9,nw,z,,,,,,,
,,,,,,,,,,,Deneme,001,2023-11-07_20h37.26.712,vowel_harmony,2023.2.3,Win32,60.0240096,401.453,402.451,,,,,,,,,,,,,,,,,,,,,,,,,,402.451,403.001,z,1,0.54,,403.001,403.001,,0,168,168,247,1,248,hafgın,,,,,6,harmonic,2,nw,z,,,,,,,
,,,,,,,,,,,Deneme,001,2023-11-07_20h37.26.712,vowel_harmony,2023.2.3,Win32,60.0240096,403.002,404,,,,,,,,,,,,,,,,,,,,,,,,,,404,404.551,m,1,0.53,,404.551,404.551,,0,169,169,1,1,2,erkek,6188,281.1582,5195,0.5679,5,harmonic,1.65,word,m,,,,,,,
,,,,,,,,,,,Deneme,001,2023-11-07_20h37.26.712,vowel_harmony,2023.2.3,Win32,60.0240096,404.552,405.55,,,,,,,,,,,,,,,,,,,,,,,,,,405.55,406.05,z,1,0.486,,406.05,406.05,,0,170,170,300,1,301,nilgi,,,,,5,notharmonic,1.85,nw,z,,,,,,,
,,,,,,,,,,,Deneme,001,2023-11-07_20h37.26.712,vowel_harmony,2023.2.3,Win32,60.0240096,406.05,407.049,,,,,,,,,,,,,,,,,,,,,,,,,,407.049,407.434,m,1,0.373,,407.435,407.436,,0,171,171,5,1,6,bebek,3301,149.9843,2794,0.3054,5,harmonic,1.6,word,m,,,,,,,
,,,,,,,,,,,Deneme,001,2023-11-07_20h37.26.712,vowel_harmony,2023.2.3,Win32,60.0240096,407.437,408.432,,,,,,,,,,,,,,,,,,,,,,,,,,408.432,408.882,m,0,0.43,,408.882,408.883,,0,172,172,280,1,281,adalek,,,,,6,notharmonic,1.85,nw,z,,,,,,,
,,,,,,,,,,,Deneme,001,2023-11-07_20h37.26.712,vowel_harmony,2023.2.3,Win32,60.0240096,408.883,409.881,,,,,,,,,,,,,,,,,,,,,,,,,,409.881,410.497,m,1,0.6,,410.497,410.497,,0,173,173,138,1,139,kardeş,1270,57.7038,1174,0.1283,6,notharmonic,1.9,word,m,,,,,,,
,,,,,,,,,,,Deneme,001,2023-11-07_20h37.26.712,vowel_harmony,2023.2.3,Win32,60.0240096,410.499,411.497,,,,,,,,,,,,,,,,,,,,,,,,,,411.497,412.064,m,1,0.549,,412.064,412.064,,0,174,174,158,1,159,klasik,1871,85.0108,1734,0.1896,6,notharmonic,2,word,m,,,,,,,
,,,,,,,,,,,Deneme,001,2023-11-07_20h37.26.712,vowel_harmony,2023.2.3,Win32,60.0240096,412.065,413.063,,,,,,,,,,,,,,,,,,,,,,,,,,413.063,413.697,z,1,0.623,,413.697,413.697,,0,175,175,273,1,274,nimal,,,,,5,notharmonic,1.9,nw,z,,,,,,,
,,,,,,,,,,,Deneme,001,2023-11-07_20h37.26.712,vowel_harmony,2023.2.3,Win32,60.0240096,413.697,414.696,,,,,,,,,,,,,,,,,,,,,,,,,,414.696,415.312,z,1,0.597,,415.312,415.313,,0,176,176,191,1,192,doab,,,,,4,harmonic,2,nw,z,,,,,,,
,,,,,,,,,,,Deneme,001,2023-11-07_20h37.26.712,vowel_harmony,2023.2.3,Win32,60.0240096,415.313,416.312,,,,,,,,,,,,,,,,,,,,,,,,,,416.312,416.878,z,1,0.55,,416.878,416.878,,0,177,177,292,1,293,kinam,,,,,5,notharmonic,1.85,nw,z,,,,,,,
,,,,,,,,,,,Deneme,001,2023-11-07_20h37.26.712,vowel_harmony,2023.2.3,Win32,60.0240096,416.879,417.878,,,,,,,,,,,,,,,,,,,,,,,,,,417.878,418.478,z,1,0.581,,418.478,418.478,,0,178,178,231,1,232,norgun,,,,,6,harmonic,1.75,nw,z,,,,,,,
,,,,,,,,,,,Deneme,001,2023-11-07_20h37.26.712,vowel_harmony,2023.2.3,Win32,60.0240096,418.478,419.477,,,,,,,,,,,,,,,,,,,,,,,,,,419.477,420.06,m,1,0.565,,420.06,420.06,,0,179,179,100,1,101,düşman,1065,48.3894,962,0.1052,6,notharmonic,1.85,word,m,,,,,,,
,,,,,,,,,,,Deneme,001,2023-11-07_20h37.26.712,vowel_harmony,2023.2.3,Win32,60.0240096,420.06,421.06,,,,,,,,,,,,,,,,,,,,,,,,,,421.06,421.776,z,1,0.697,,421.776,421.776,,0,180,180,214,1,215,vecü,,,,,4,harmonic,1.95,nw,z,,,,,,,
,,,,,,,,,,,Deneme,001,2023-11-07_20h37.26.712,vowel_harmony,2023.2.3,Win32,60.0240096,421.776,422.776,,,,,,,,,,,,,,,,,,,,,,,,,,422.776,423.358,z,1,0.569,,423.358,423.358,,0,181,181,327,1,328,parkeş,,,,,6,notharmonic,1.9,nw,z,,,,,,,
,,,,,,,,,,,Deneme,001,2023-11-07_20h37.26.712,vowel_harmony,2023.2.3,Win32,60.0240096,423.359,424.358,,,,,,,,,,,,,,,,,,,,,,,,,,424.358,424.841,m,1,0.471,,424.841,424.841,,0,182,182,61,1,62,yıldız,1775,80.649,1532,0.1675,6,harmonic,1.6,word,m,,,,,,,
,,,,,,,,,,,Deneme,001,2023-11-07_20h37.26.712,vowel_harmony,2023.2.3,Win32,60.0240096,424.842,425.84,,,,,,,,,,,,,,,,,,,,,,,,,,425.84,426.457,m,1,0.599,,426.457,426.457,,0,183,183,119,1,120,kulüp,649,29.488,467,0.0511,5,notharmonic,1.4,word,m,,,,,,,
,,,,,,,,,,,Deneme,001,2023-11-07_20h37.26.712,vowel_harmony,2023.2.3,Win32,60.0240096,426.458,427.457,,,,,,,,,,,,,,,,,,,,,,,,,,427.457,428.057,m,1,0.582,,428.057,428.057,,0,184,184,101,1,102,imza,1358,61.7021,1253,0.137,4,notharmonic,1.65,word,m,,,,,,,
,,,,,,,,,,,Deneme,001,2023-11-07_20h37.26.712,vowel_harmony,2023.2.3,Win32,60.0240096,428.057,429.056,,,,,,,,,,,,,,,,,,,,,,,,,,429.056,429.622,z,1,0.547,,429.623,429.623,,0,185,185,180,1,181,ayaro,,,,,5,harmonic,1.8,nw,z,,,,,,,
,,,,,,,,,,,Deneme,001,2023-11-07_20h37.26.712,vowel_harmony,2023.2.3,Win32,60.0240096,429.623,430.622,,,,,,,,,,,,,,,,,,,,,,,,,,430.622,431.238,z,1,0.599,,431.238,431.238,,0,186,186,321,1,322,makih,,,,,5,notharmonic,1.8,nw,z,,,,,,,
,,,,,,,,,,,Deneme,001,2023-11-07_20h37.26.712,vowel_harmony,2023.2.3,Win32,60.0240096,431.239,432.238,,,,,,,,,,,,,,,,,,,,,,,,,,432.238,432.804,m,1,0.548,,432.804,432.804,,0,187,187,64,1,65,lise,888,40.3472,816,0.0892,4,harmonic,1.5,word,m,,,,,,,
,,,,,,,,,,,Deneme,001,2023-11-07_20h37.26.712,vowel_harmony,2023.2.3,Win32,60.0240096,432.805,433.804,,,,,,,,,,,,,,,,,,,,,,,,,,433.804,434.32,m,1,0.498,,434.321,434.321,,0,188,188,146,1,147,mavi,2206,100.2319,1934,0.2114,4,notharmonic,1.45,word,m,,,,,,,
,,,,,,,,,,,Deneme,001,2023-11-07_20h37.26.712,vowel_harmony,2023.2.3,Win32,60.0240096,434.321,435.32,,,,,,,,,,,,,,,,,,,,,,,,,,435.32,435.853,z,1,0.516,,435.853,435.853,,0,189,189,209,1,210,sapor,,,,,5,harmonic,1.8,nw,z,,,,,,,
,,,,,,,,,,,Deneme,001,2023-11-07_20h37.26.712,vowel_harmony,2023.2.3,Win32,60.0240096,435.854,436.853,,,,,,,,,,,,,,,,,,,,,,,,,,436.853,437.386,m,1,0.515,,437.386,437.386,,0,190,190,63,1,64,sultan,1756,79.7857,1368,0.1496,6,harmonic,1.55,word,m,,,,,,,
,,,,,,,,,,,Deneme,001,2023-11-07_20h37.26.712,vowel_harmony,2023.2.3,Win32,60.0240096,437.387,438.385,,,,,,,,,,,,,,,,,,,,,,,,,,438.385,438.868,z,1,0.466,,438.868,438.868,,0,191,191,298,1,299,yelsın,,,,,6,notharmonic,1.95,nw,z,,,,,,,
,,,,,,,,,,,Deneme,001,2023-11-07_20h37.26.712,vowel_harmony,2023.2.3,Win32,60.0240096,438.869,439.868,,,,,,,,,,,,,,,,,,,,,,,,,,439.868,440.351,m,1,0.465,,440.351,440.351,,0,192,192,82,1,83,aday,1028,46.7082,873,0.0954,4,harmonic,1.45,word,m,,,,,,,
,,,,,,,,,,,Deneme,001,2023-11-07_20h37.26.712,vowel_harmony,2023.2.3,Win32,60.0240096,440.352,441.354,,,,,,,,,,,,,,,,,,,,,,,,,,441.354,441.9,m,1,0.532,,441.901,441.904,,0,193,193,41,1,42,zengin,2193,99.6412,2015,0.2203,6,harmonic,1.65,word,m,,,,,,,
,,,,,,,,,,,Deneme,001,2023-11-07_20h37.26.712,vowel_harmony,2023.2.3,Win32,60.0240096,441.905,442.899,,,,,,,,,,,,,,,,,,,,,,,,,,442.899,443.349,m,1,0.431,,443.349,443.349,,0,194,194,2,1,3,radyo,763,34.6677,636,0.0695,5,harmonic,1.85,word,m,,,,,,,
,,,,,,,,,,,Deneme,001,2023-11-07_20h37.26.712,vowel_harmony,2023.2.3,Win32,60.0240096,443.351,444.35,,,,,,,,,,,,,,,,,,,,,,,,,,444.35,444.865,z,1,0.501,,444.865,444.865,,0,195,195,336,1,337,diyam,,,,,5,notharmonic,1.85,nw,z,,,,,,,
,,,,,,,,,,,Deneme,001,2023-11-07_20h37.26.712,vowel_harmony,2023.2.3,Win32,60.0240096,444.867,445.866,,,,,,,,,,,,,,,,,,,,,,,,,,445.866,446.449,m,1,0.563,,446.449,446.449,,0,196,196,109,1,110,milyon,3936,178.8362,2958,0.3234,6,notharmonic,1.75,word,m,,,,,,,
,,,,,,,,,,,Deneme,001,2023-11-07_20h37.26.712,vowel_harmony,2023.2.3,Win32,60.0240096,446.449,447.448,,,,,,,,,,,,,,,,,,,,,,,,,,447.448,448.131,m,1,0.664,,448.131,448.131,,0,197,197,166,1,167,maden,402,18.2653,339,0.0371,5,notharmonic,1.45,word,m,,,,,,,
,,,,,,,,,,,Deneme,001,2023-11-07_20h37.26.712,vowel_harmony,2023.2.3,Win32,60.0240096,448.132,449.131,,,,,,,,,,,,,,,,,,,,,,,,,,449.131,449.63,m,1,0.485,,449.631,449.631,,0,198,198,124,1,125,ilan,1579,71.7435,1499,0.1639,4,notharmonic,1,word,m,,,,,,,
,,,,,,,,,,,Deneme,001,2023-11-07_20h37.26.712,vowel_harmony,2023.2.3,Win32,60.0240096,449.632,450.63,,,,,,,,,,,,,,,,,,,,,,,,,,450.63,451.263,z,1,0.617,,451.263,451.263,,0,199,199,237,1,238,taşal,,,,,5,harmonic,1.8,nw,z,,,,,,,
,,,,,,,,,,,Deneme,001,2023-11-07_20h37.26.712,vowel_harmony,2023.2.3,Win32,60.0240096,451.264,452.262,,,,,,,,,,,,,,,,,,,,,,,,,,452.262,452.896,z,1,0.617,,452.896,452.896,,0,200,200,181,1,182,rapkı,,,,,5,harmonic,1.85,nw,z,,,,,,,
,,,,,,,,,,,Deneme,001,2023-11-07_20h37.26.712,vowel_harmony,2023.2.3,Win32,60.0240096,452.897,453.895,,,,,,,,,,,,,,,,,,,,,,,,,,453.895,454.495,m,1,0.583,,454.495,454.495,,0,201,201,104,1,105,cevap,5232,237.7213,4822,0.5271,5,notharmonic,1.85,word,m,,,,,,,
,,,,,,,,,,,Deneme,001,2023-11-07_20h37.26.712,vowel_harmony,2023.2.3,Win32,60.0240096,454.495,455.494,,,,,,,,,,,,,,,,,,,,,,,,,,455.494,456.06,m,1,0.549,,456.06,456.06,,0,202,202,102,1,103,esas,1965,89.2818,1795,0.1962,4,notharmonic,1.75,word,m,,,,,,,
,,,,,,,,,,,Deneme,001,2023-11-07_20h37.26.712,vowel_harmony,2023.2.3,Win32,60.0240096,456.061,457.06,,,,,,,,,,,,,,,,,,,,,,,,,,457.06,457.61,z,1,0.531,,457.61,457.61,,0,203,203,255,1,256,yokın,,,,,5,harmonic,1.85,nw,z,,,,,,,
,,,,,,,,,,,Deneme,001,2023-11-07_20h37.26.712,vowel_harmony,2023.2.3,Win32,60.0240096,457.611,458.609,,,,,,,,,,,,,,,,,,,,,,,,,,458.609,459.176,z,1,0.555,,459.176,459.176,,0,204,204,219,1,220,barlum,,,,,6,harmonic,1.9,nw,z,,,,,,,
,,,,,,,,,,,Deneme,001,2023-11-07_20h37.26.712,vowel_harmony,2023.2.3,Win32,60.0240096,459.176,460.175,,,,,,,,,,,,,,,,,,,,,,,,,,460.175,460.658,m,1,0.471,,460.658,460.658,,0,205,205,0,1,1,sanat,3121,141.8059,2485,0.2717,5,harmonic,1.4,word,m,,,,,,,
,,,,,,,,,,,Deneme,001,2023-11-07_20h37.26.712,vowel_harmony,2023.2.3,Win32,60.0240096,460.658,461.658,,,,,,,,,,,,,,,,,,,,,,,,,,461.658,462.241,z,1,0.573,,462.241,462.241,,0,206,206,268,1,269,haldum,,,,,6,harmonic,2,nw,z,,,,,,,
,,,,,,,,,,,Deneme,001,2023-11-07_20h37.26.712,vowel_harmony,2023.2.3,Win32,60.0240096,462.241,463.24,,,,,,,,,,,,,,,,,,,,,,,,,,463.24,463.673,m,1,0.413,,463.674,463.674,,0,207,207,84,1,85,ülke,3121,141.8059,2801,0.3062,4,harmonic,1.65,word,m,,,,,,,
,,,,,,,,,,,Deneme,001,2023-11-07_20h37.26.712,vowel_harmony,2023.2.3,Win32,60.0240096,463.675,464.674,,,,,,,,,,,,,,,,,,,,,,,,,,464.674,465.156,m,1,0.465,,465.157,465.157,,0,208,208,36,1,37,meslek,1082,49.1618,976,0.1067,6,harmonic,1.9,word,m,,,,,,,
,,,,,,,,,,,Deneme,001,2023-11-07_20h37.26.712,vowel_harmony,2023.2.3,Win32,60.0240096,465.157,466.156,,,,,,,,,,,,,,,,,,,,,,,,,,466.156,466.639,m,1,0.47,,466.639,466.639,,0,209,209,173,1,174,sade,1193,54.2052,1114,0.1218,4,notharmonic,1.55,word,m,,,,,,,
,,,,,,,,,,,Deneme,001,2023-11-07_20h37.26.712,vowel_harmony,2023.2.3,Win32,60.0240096,466.64,467.639,,,,,,,,,,,,,,,,,,,,,,,,,,467.639,468.055,m,1,0.404,,468.055,468.055,,0,210,210,55,1,56,akıl,2208,100.3228,2004,0.2191,4,harmonic,1,word,m,,,,,,,
,,,,,,,,,,,Deneme,001,2023-11-07_20h37.26.712,vowel_harmony,2023.2.3,Win32,60.0240096,468.056,469.055,,,,,,,,,,,,,,,,,,,,,,,,,,469.055,469.621,z,1,0.548,,469.621,469.621,,0,211,211,256,1,257,yaruza,,,,,6,harmonic,1.9,nw,z,,,,,,,
,,,,,,,,,,,Deneme,001,2023-11-07_20h37.26.712,vowel_harmony,2023.2.3,Win32,60.0240096,469.622,470.62,,,,,,,,,,,,,,,,,,,,,,,,,,470.62,471.52,z,1,0.88,,471.521,471.521,,0,212,212,312,1,313,şahmin,,,,,6,notharmonic,1.8,nw,z,,,,,,,
,,,,,,,,,,,Deneme,001,2023-11-07_20h37.26.712,vowel_harmony,2023.2.3,Win32,60.0240096,471.522,472.52,,,,,,,,,,,,,,,,,,,,,,,,,,472.52,473.069,m,1,0.534,,473.069,473.069,,0,213,213,170,1,171,basit,3385,153.801,3177,0.3473,5,notharmonic,1.65,word,m,,,,,,,
,,,,,,,,,,,Deneme,001,2023-11-07_20h37.26.712,vowel_harmony,2023.2.3,Win32,60.0240096,473.07,474.069,,,,,,,,,,,,,,,,,,,,,,,,,,474.069,474.519,m,1,0.433,,474.519,474.519,,0,214,214,79,1,80,durum,6783,308.1926,6431,0.703,5,harmonic,1.7,word,m,,,,,,,
,,,,,,,,,,,Deneme,001,2023-11-07_20h37.26.712,vowel_harmony,2023.2.3,Win32,60.0240096,474.52,475.519,,,,,,,,,,,,,,,,,,,,,,,,,,475.52,476.118,z,1,0.584,,476.118,476.119,,0,215,215,235,1,236,oşup,,,,,4,harmonic,1.75,nw,z,,,,,,,
,,,,,,,,,,,Deneme,001,2023-11-07_20h37.26.712,vowel_harmony,2023.2.3,Win32,60.0240096,476.123,477.117,,,,,,,,,,,,,,,,,,,,,,,,,,477.117,477.718,z,1,0.581,,477.718,477.718,,0,216,216,305,1,306,tamü,,,,,4,notharmonic,1.75,nw,z,,,,,,,
,,,,,,,,,,,Deneme,001,2023-11-07_20h37.26.712,vowel_harmony,2023.2.3,Win32,60.0240096,477.719,478.716,,,,,,,,,,,,,,,,,,,,,,,,,,478.716,479.233,m,1,0.498,,479.233,479.233,,0,217,217,126,1,127,adet,4367,198.4192,3768,0.4119,4,notharmonic,1.4,word,m,,,,,,,
,,,,,,,,,,,Deneme,001,2023-11-07_20h37.26.712,vowel_harmony,2023.2.3,Win32,60.0240096,479.234,480.233,,,,,,,,,,,,,,,,,,,,,,,,,,480.233,480.799,z,1,0.553,,480.799,480.799,,0,218,218,206,1,207,bevek,,,,,5,harmonic,1.75,nw,z,,,,,,,
,,,,,,,,,,,Deneme,001,2023-11-07_20h37.26.712,vowel_harmony,2023.2.3,Win32,60.0240096,480.801,481.799,,,,,,,,,,,,,,,,,,,,,,,,,,481.799,482.348,z,1,0.531,,482.348,482.348,,0,219,219,322,1,323,normin,,,,,6,notharmonic,1.95,nw,z,,,,,,,
,,,,,,,,,,,Deneme,001,2023-11-07_20h37.26.712,vowel_harmony,2023.2.3,Win32,60.0240096,482.349,483.348,,,,,,,,,,,,,,,,,,,,,,,,,,483.348,483.848,m,1,0.48,,483.848,483.848,,0,220,220,70,1,71,yarın,3440,156.3,3222,0.3522,5,harmonic,1.85,word,m,,,,,,,
,,,,,,,,,,,Deneme,001,2023-11-07_20h37.26.712,vowel_harmony,2023.2.3,Win32,60.0240096,483.85,484.847,,,,,,,,,,,,,,,,,,,,,,,,,,484.847,485.397,m,1,0.532,,485.397,485.398,,0,221,221,134,1,135,iptal,793,36.0308,725,0.0793,5,notharmonic,1.35,word,m,,,,,,,
,,,,,,,,,,,Deneme,001,2023-11-07_20h37.26.712,vowel_harmony,2023.2.3,Win32,60.0240096,485.398,486.397,,,,,,,,,,,,,,,,,,,,,,,,,,486.397,486.93,z,1,0.517,,486.93,486.93,,0,222,222,261,1,262,kardok,,,,,6,harmonic,1.95,nw,z,,,,,,,
,,,,,,,,,,,Deneme,001,2023-11-07_20h37.26.712,vowel_harmony,2023.2.3,Win32,60.0240096,486.931,487.93,,,,,,,,,,,,,,,,,,,,,,,,,,487.93,488.362,m,1,0.415,,488.362,488.362,,0,223,223,127,1,128,şahane,1153,52.3877,1108,0.1211,6,notharmonic,1.8,word,m,,,,,,,
,,,,,,,,,,,Deneme,001,2023-11-07_20h37.26.712,vowel_harmony,2023.2.3,Win32,60.0240096,488.363,489.362,,,,,,,,,,,,,,,,,,,,,,,,,,489.362,489.879,z,1,0.502,,489.879,489.879,,0,224,224,185,1,186,örtin,,,,,5,harmonic,1.9,nw,z,,,,,,,
,,,,,,,,,,,Deneme,001,2023-11-07_20h37.26.712,vowel_harmony,2023.2.3,Win32,60.0240096,489.879,490.878,,,,,,,,,,,,,,,,,,,,,,,,,,490.878,491.545,z,1,0.647,,491.545,491.545,,0,225,225,350,1,351,resun,,,,,5,notharmonic,1.85,nw,z,,,,,,,
,,,,,,,,,,,Deneme,001,2023-11-07_20h37.26.712,vowel_harmony,2023.2.3,Win32,60.0240096,491.545,492.544,,,,,,,,,,,,,,,,,,,,,,,,,,492.544,493.36,z,1,0.8,,493.36,493.36,,0,226,226,320,1,321,finak,,,,,5,notharmonic,1.85,nw,z,,,,,,,
,,,,,,,,,,,Deneme,001,2023-11-07_20h37.26.712,vowel_harmony,2023.2.3,Win32,60.0240096,493.361,494.359,,,,,,,,,,,,,,,,,,,,,,,,,,494.359,494.826,m,1,0.449,,494.826,494.826,,0,227,227,62,1,63,cümle,1911,86.8283,1765,0.193,5,harmonic,1.85,word,m,,,,,,,
,,,,,,,,,,,Deneme,001,2023-11-07_20h37.26.712,vowel_harmony,2023.2.3,Win32,60.0240096,494.826,495.826,,,,,,,,,,,,,,,,,,,,,,,,,,495.826,497.026,z,1,1.181,,497.026,497.026,,0,228,228,314,1,315,seral,,,,,5,notharmonic,1.7,nw,z,,,,,,,
,,,,,,,,,,,Deneme,001,2023-11-07_20h37.26.712,vowel_harmony,2023.2.3,Win32,60.0240096,497.026,498.024,,,,,,,,,,,,,,,,,,,,,,,,,,498.024,498.974,z,1,0.931,,498.974,498.974,,0,229,229,309,1,310,yorgen,,,,,6,notharmonic,1.9,nw,z,,,,,,,
,,,,,,,,,,,Deneme,001,2023-11-07_20h37.26.712,vowel_harmony,2023.2.3,Win32,60.0240096,498.975,499.974,,,,,,,,,,,,,,,,,,,,,,,,,,499.974,500.49,z,1,0.499,,500.49,500.49,,0,230,230,331,1,332,ehun,,,,,4,notharmonic,1.95,nw,z,,,,,,,
,,,,,,,,,,,Deneme,001,2023-11-07_20h37.26.712,vowel_harmony,2023.2.3,Win32,60.0240096,500.49,501.49,,,,,,,,,,,,,,,,,,,,,,,,,,501.49,502.023,z,1,0.517,,502.023,502.023,,0,231,231,217,1,218,sanfız,,,,,6,harmonic,1.85,nw,z,,,,,,,
,,,,,,,,,,,Deneme,001,2023-11-07_20h37.26.712,vowel_harmony,2023.2.3,Win32,60.0240096,502.023,503.022,,,,,,,,,,,,,,,,,,,,,,,,,,503.022,503.839,z,1,0.799,,503.839,503.839,,0,232,232,307,1,308,merbat,,,,,6,notharmonic,1.95,nw,z,,,,,,,
,,,,,,,,,,,Deneme,001,2023-11-07_20h37.26.712,vowel_harmony,2023.2.3,Win32,60.0240096,503.839,504.839,,,,,,,,,,,,,,,,,,,,,,,,,,504.839,505.372,m,1,0.519,,505.372,505.372,,0,233,233,29,1,30,huzur,1911,86.8283,1799,0.1967,5,harmonic,1.8,word,m,,,,,,,
,,,,,,,,,,,Deneme,001,2023-11-07_20h37.26.712,vowel_harmony,2023.2.3,Win32,60.0240096,505.373,506.371,,,,,,,,,,,,,,,,,,,,,,,,,,506.371,507.003,m,1,0.615,,507.003,507.004,,0,234,234,52,1,53,resim,2506,113.8627,2188,0.2392,5,harmonic,1.4,word,m,,,,,,,
,,,,,,,,,,,Deneme,001,2023-11-07_20h37.26.712,vowel_harmony,2023.2.3,Win32,60.0240096,507.004,508.003,,,,,,,,,,,,,,,,,,,,,,,,,,508.003,508.636,z,1,0.615,,508.636,508.636,,0,235,235,279,1,280,tadde,,,,,5,notharmonic,1.8,nw,z,,,,,,,
,,,,,,,,,,,Deneme,001,2023-11-07_20h37.26.712,vowel_harmony,2023.2.3,Win32,60.0240096,508.637,509.638,,,,,,,,,,,,,,,,,,,,,,,,,,509.639,510.12,m,1,0.465,,510.12,510.121,,0,236,236,72,1,73,çorba,1674,76.0599,1513,0.1654,5,harmonic,1.75,word,m,,,,,,,
,,,,,,,,,,,Deneme,001,2023-11-07_20h37.26.712,vowel_harmony,2023.2.3,Win32,60.0240096,510.123,511.119,,,,,,,,,,,,,,,,,,,,,,,,,,511.119,511.718,z,1,0.586,,511.718,511.718,,0,237,237,228,1,229,haytam,,,,,6,harmonic,1.75,nw,z,,,,,,,
,,,,,,,,,,,Deneme,001,2023-11-07_20h37.26.712,vowel_harmony,2023.2.3,Win32,60.0240096,511.72,512.719,,,,,,,,,,,,,,,,,,,,,,,,,,512.719,513.201,m,1,0.464,,513.201,513.201,,0,238,238,56,1,57,sağlam,1818,82.6027,1720,0.188,6,harmonic,1.6,word,m,,,,,,,
,,,,,,,,,,,Deneme,001,2023-11-07_20h37.26.712,vowel_harmony,2023.2.3,Win32,60.0240096,513.202,514.201,,,,,,,,,,,,,,,,,,,,,,,,,,514.201,514.867,z,1,0.652,,514.867,514.867,,0,239,239,224,1,225,ertre,,,,,5,harmonic,1.95,nw,z,,,,,,,
,,,,,,,,,,,Deneme,001,2023-11-07_20h37.26.712,vowel_harmony,2023.2.3,Win32,60.0240096,514.868,515.867,,,,,,,,,,,,,,,,,,,,,,,,,,515.867,516.466,z,1,0.581,,516.466,620.403,space,0,240,240,349,1,350,harten,,,,,6,notharmonic,1.85,nw,z,103.918,,,,,,
,,,,,,,,,,,Deneme,001,2023-11-07_20h37.26.712,vowel_harmony,2023.2.3,Win32,60.0240096,620.407,621.403,,,,,,,,,,,,,,,,,,,,,,,,,,621.403,621.836,m,1,0.409,,621.836,621.836,,0,241,241,115,1,116,saniye,1088,49.4344,984,0.1076,6,notharmonic,1.35,word,m,,,,,,,
,,,,,,,,,,,Deneme,001,2023-11-07_20h37.26.712,vowel_harmony,2023.2.3,Win32,60.0240096,621.838,622.835,,,,,,,,,,,,,,,,,,,,,,,,,,622.835,623.368,z,1,0.514,,623.368,623.368,,0,242,242,202,1,203,güvin,,,,,5,harmonic,1.95,nw,z,,,,,,,
,,,,,,,,,,,Deneme,001,2023-11-07_20h37.26.712,vowel_harmony,2023.2.3,Win32,60.0240096,623.369,624.368,,,,,,,,,,,,,,,,,,,,,,,,,,624.368,624.884,m,1,0.496,,624.884,624.884,,0,243,243,69,1,70,forma,719,32.6685,597,0.0653,5,harmonic,1.8,word,m,,,,,,,
,,,,,,,,,,,Deneme,001,2023-11-07_20h37.26.712,vowel_harmony,2023.2.3,Win32,60.0240096,624.885,625.889,,,,,,,,,,,,,,,,,,,,,,,,,,625.889,626.367,z,1,0.467,,626.367,626.367,,0,244,244,328,1,329,kirul,,,,,5,notharmonic,1.95,nw,z,,,,,,,
,,,,,,,,,,,Deneme,001,2023-11-07_20h37.26.712,vowel_harmony,2023.2.3,Win32,60.0240096,626.367,627.366,,,,,,,,,,,,,,,,,,,,,,,,,,627.367,627.967,z,1,0.582,,627.967,627.967,,0,245,245,332,1,333,tahane,,,,,6,notharmonic,1.85,nw,z,,,,,,,
,,,,,,,,,,,Deneme,001,2023-11-07_20h37.26.712,vowel_harmony,2023.2.3,Win32,60.0240096,627.968,628.965,,,,,,,,,,,,,,,,,,,,,,,,,,628.965,629.516,m,1,0.533,,629.516,629.516,,0,246,246,23,1,24,kurum,986,44.7999,882,0.0964,5,harmonic,1.75,word,m,,,,,,,
,,,,,,,,,,,Deneme,001,2023-11-07_20h37.26.712,vowel_harmony,2023.2.3,Win32,60.0240096,629.517,630.514,,,,,,,,,,,,,,,,,,,,,,,,,,630.514,631.131,m,1,0.599,,631.131,631.131,,0,247,247,91,1,92,ifade,6177,280.6584,5726,0.626,5,notharmonic,1.7,word,m,,,,,,,
,,,,,,,,,,,Deneme,001,2023-11-07_20h37.26.712,vowel_harmony,2023.2.3,Win32,60.0240096,631.132,632.13,,,,,,,,,,,,,,,,,,,,,,,,,,632.13,632.58,m,1,0.432,,632.58,632.581,,0,248,248,57,1,58,bölüm,1910,86.7828,1605,0.1755,5,harmonic,1.45,word,m,,,,,,,
,,,,,,,,,,,Deneme,001,2023-11-07_20h37.26.712,vowel_harmony,2023.2.3,Win32,60.0240096,632.581,633.58,,,,,,,,,,,,,,,,,,,,,,,,,,633.58,634.063,m,1,0.467,,634.064,634.064,,0,249,249,151,1,152,ateş,2108,95.7792,1803,0.1971,4,notharmonic,1.65,word,m,,,,,,,
,,,,,,,,,,,Deneme,001,2023-11-07_20h37.26.712,vowel_harmony,2023.2.3,Win32,60.0240096,634.064,635.062,,,,,,,,,,,,,,,,,,,,,,,,,,635.062,635.513,m,1,0.431,,635.513,635.513,,0,250,250,40,1,41,tepki,1695,77.0141,1578,0.1725,5,harmonic,1.55,word,m,,,,,,,
,,,,,,,,,,,Deneme,001,2023-11-07_20h37.26.712,vowel_harmony,2023.2.3,Win32,60.0240096,635.513,636.513,,,,,,,,,,,,,,,,,,,,,,,,,,636.513,637.062,z,1,0.539,,637.062,637.062,,0,251,251,281,1,282,afel,,,,,4,notharmonic,1.8,nw,z,,,,,,,
,,,,,,,,,,,Deneme,001,2023-11-07_20h37.26.712,vowel_harmony,2023.2.3,Win32,60.0240096,637.063,638.061,,,,,,,,,,,,,,,,,,,,,,,,,,638.061,638.478,m,1,0.408,,638.478,638.478,,0,252,252,105,1,106,sahip,10887,494.6621,9847,1.0765,5,notharmonic,1.25,word,m,,,,,,,
,,,,,,,,,,,Deneme,001,2023-11-07_20h37.26.712,vowel_harmony,2023.2.3,Win32,60.0240096,638.478,639.478,,,,,,,,,,,,,,,,,,,,,,,,,,639.478,639.977,z,1,0.479,,639.977,639.977,,0,253,253,238,1,239,kocı,,,,,4,harmonic,1.95,nw,z,,,,,,,
,,,,,,,,,,,Deneme,001,2023-11-07_20h37.26.712,vowel_harmony,2023.2.3,Win32,60.0240096,639.977,640.977,,,,,,,,,,,,,,,,,,,,,,,,,,640.977,641.51,z,1,0.517,,641.51,641.51,,0,254,254,303,1,304,fisor,,,,,5,notharmonic,1.9,nw,z,,,,,,,
,,,,,,,,,,,Deneme,001,2023-11-07_20h37.26.712,vowel_harmony,2023.2.3,Win32,60.0240096,641.51,642.509,,,,,,,,,,,,,,,,,,,,,,,,,,642.509,643.292,z,1,0.765,,643.292,643.293,,0,255,255,276,1,277,iptap,,,,,5,notharmonic,1.95,nw,z,,,,,,,
,,,,,,,,,,,Deneme,001,2023-11-07_20h37.26.712,vowel_harmony,2023.2.3,Win32,60.0240096,643.293,644.292,,,,,,,,,,,,,,,,,,,,,,,,,,644.292,644.826,z,1,0.515,,644.828,644.828,,0,256,256,220,1,221,denbi,,,,,5,harmonic,1.75,nw,z,,,,,,,
,,,,,,,,,,,Deneme,001,2023-11-07_20h37.26.712,vowel_harmony,2023.2.3,Win32,60.0240096,644.831,645.825,,,,,,,,,,,,,,,,,,,,,,,,,,645.825,646.458,m,1,0.614,,646.458,646.458,,0,257,257,65,1,66,fikir,2552,115.9528,2413,0.2638,5,harmonic,1.9,word,m,,,,,,,
,,,,,,,,,,,Deneme,001,2023-11-07_20h37.26.712,vowel_harmony,2023.2.3,Win32,60.0240096,646.459,647.457,,,,,,,,,,,,,,,,,,,,,,,,,,647.457,647.99,z,1,0.519,,647.99,647.99,,0,258,258,345,1,346,bardeş,,,,,6,notharmonic,1.95,nw,z,,,,,,,
,,,,,,,,,,,Deneme,001,2023-11-07_20h37.26.712,vowel_harmony,2023.2.3,Win32,60.0240096,647.991,648.99,,,,,,,,,,,,,,,,,,,,,,,,,,648.99,649.556,z,1,0.549,,649.556,649.556,,0,259,259,313,1,314,ikas,,,,,4,notharmonic,1.85,nw,z,,,,,,,
,,,,,,,,,,,Deneme,001,2023-11-07_20h37.26.712,vowel_harmony,2023.2.3,Win32,60.0240096,649.557,650.556,,,,,,,,,,,,,,,,,,,,,,,,,,650.556,651.105,m,1,0.533,,651.105,651.105,,0,260,260,89,1,90,etki,1234,56.0681,1169,0.1278,4,harmonic,1.4,word,m,,,,,,,
,,,,,,,,,,,Deneme,001,2023-11-07_20h37.26.712,vowel_harmony,2023.2.3,Win32,60.0240096,651.106,652.104,,,,,,,,,,,,,,,,,,,,,,,,,,652.104,652.688,m,1,0.564,,652.688,652.688,,0,261,261,17,1,18,yakın,7990,363.0339,7595,0.8303,5,harmonic,1.8,word,m,,,,,,,
,,,,,,,,,,,Deneme,001,2023-11-07_20h37.26.712,vowel_harmony,2023.2.3,Win32,60.0240096,652.689,653.688,,,,,,,,,,,,,,,,,,,,,,,,,,653.688,654.187,z,1,0.487,,654.187,654.188,,0,262,262,260,1,261,yarlam,,,,,6,harmonic,1.75,nw,z,,,,,,,
,,,,,,,,,,,Deneme,001,2023-11-07_20h37.26.712,vowel_harmony,2023.2.3,Win32,60.0240096,654.189,655.186,,,,,,,,,,,,,,,,,,,,,,,,,,655.186,655.77,z,1,0.57,,655.77,655.77,,0,263,263,248,1,249,şegim,,,,,5,harmonic,1.9,nw,z,,,,,,,
,,,,,,,,,,,Deneme,001,2023-11-07_20h37.26.712,vowel_harmony,2023.2.3,Win32,60.0240096,655.771,656.77,,,,,,,,,,,,,,,,,,,,,,,,,,656.77,657.303,m,1,0.515,,657.303,657.303,,0,264,264,80,1,81,merkez,1445,65.6551,1255,0.1372,6,harmonic,1.8,word,m,,,,,,,
,,,,,,,,,,,Deneme,001,2023-11-07_20h37.26.712,vowel_harmony,2023.2.3,Win32,60.0240096,657.304,658.302,,,,,,,,,,,,,,,,,,,,,,,,,,658.302,658.802,m,1,0.487,,658.802,658.802,,0,265,265,99,1,100,ilave,3173,144.1685,2619,0.2863,5,notharmonic,1.85,word,m,,,,,,,
,,,,,,,,,,,Deneme,001,2023-11-07_20h37.26.712,vowel_harmony,2023.2.3,Win32,60.0240096,658.802,659.802,,,,,,,,,,,,,,,,,,,,,,,,,,659.802,660.268,m,1,0.447,,660.268,660.268,,0,266,266,148,1,149,selam,1868,84.8745,1764,0.1928,5,notharmonic,1.35,word,m,,,,,,,
,,,,,,,,,,,Deneme,001,2023-11-07_20h37.26.712,vowel_harmony,2023.2.3,Win32,60.0240096,660.269,661.267,,,,,,,,,,,,,,,,,,,,,,,,,,661.267,661.801,z,1,0.514,,661.801,661.801,,0,267,267,190,1,191,reklen,,,,,6,harmonic,1.8,nw,z,,,,,,,
,,,,,,,,,,,Deneme,001,2023-11-07_20h37.26.712,vowel_harmony,2023.2.3,Win32,60.0240096,661.802,662.801,,,,,,,,,,,,,,,,,,,,,,,,,,662.801,663.334,z,1,0.517,,663.334,663.334,,0,268,268,199,1,200,movu,,,,,4,harmonic,1.9,nw,z,,,,,,,
,,,,,,,,,,,Deneme,001,2023-11-07_20h37.26.712,vowel_harmony,2023.2.3,Win32,60.0240096,663.334,664.333,,,,,,,,,,,,,,,,,,,,,,,,,,664.333,664.833,m,1,0.488,,664.833,664.833,,0,269,269,14,1,15,yaşam,4348,197.5559,3918,0.4283,5,harmonic,1.4,word,m,,,,,,,
,,,,,,,,,,,Deneme,001,2023-11-07_20h37.26.712,vowel_harmony,2023.2.3,Win32,60.0240096,664.833,665.832,,,,,,,,,,,,,,,,,,,,,,,,,,665.832,666.382,m,1,0.534,,666.382,666.382,,0,270,270,152,1,153,tedavi,1865,84.7382,1597,0.1746,6,notharmonic,1.8,word,m,,,,,,,
,,,,,,,,,,,Deneme,001,2023-11-07_20h37.26.712,vowel_harmony,2023.2.3,Win32,60.0240096,666.383,667.382,,,,,,,,,,,,,,,,,,,,,,,,,,667.382,667.882,z,1,0.486,,667.882,667.882,,0,271,271,196,1,197,bilön,,,,,5,harmonic,1.9,nw,z,,,,,,,
,,,,,,,,,,,Deneme,001,2023-11-07_20h37.26.712,vowel_harmony,2023.2.3,Win32,60.0240096,667.882,668.881,,,,,,,,,,,,,,,,,,,,,,,,,,668.881,669.447,z,1,0.549,,669.447,669.448,,0,272,272,189,1,190,düvre,,,,,5,harmonic,1.85,nw,z,,,,,,,
,,,,,,,,,,,Deneme,001,2023-11-07_20h37.26.712,vowel_harmony,2023.2.3,Win32,60.0240096,669.448,670.446,,,,,,,,,,,,,,,,,,,,,,,,,,670.446,670.963,m,1,0.497,,670.963,670.963,,0,273,273,73,1,74,millet,1658,75.3329,1508,0.1649,6,harmonic,1.7,word,m,,,,,,,
,,,,,,,,,,,Deneme,001,2023-11-07_20h37.26.712,vowel_harmony,2023.2.3,Win32,60.0240096,670.964,671.963,,,,,,,,,,,,,,,,,,,,,,,,,,671.963,672.412,z,1,0.435,,672.412,672.413,,0,274,274,194,1,195,rayna,,,,,5,harmonic,1.7,nw,z,,,,,,,
,,,,,,,,,,,Deneme,001,2023-11-07_20h37.26.712,vowel_harmony,2023.2.3,Win32,60.0240096,672.413,673.412,,,,,,,,,,,,,,,,,,,,,,,,,,673.412,673.812,m,1,0.383,,673.812,673.812,,0,275,275,156,1,157,medya,1784,81.0579,1495,0.1634,5,notharmonic,1.35,word,m,,,,,,,
,,,,,,,,,,,Deneme,001,2023-11-07_20h37.26.712,vowel_harmony,2023.2.3,Win32,60.0240096,673.813,674.811,,,,,,,,,,,,,,,,,,,,,,,,,,674.811,675.277,m,1,0.448,,675.278,675.278,,0,276,276,147,1,148,işaret,1888,85.7832,1787,0.1954,6,notharmonic,1,word,m,,,,,,,
,,,,,,,,,,,Deneme,001,2023-11-07_20h37.26.712,vowel_harmony,2023.2.3,Win32,60.0240096,675.279,676.277,,,,,,,,,,,,,,,,,,,,,,,,,,676.277,676.777,m,1,0.481,,676.777,676.777,,0,277,277,161,1,162,komik,1617,73.4701,1506,0.1646,5,notharmonic,1.75,word,m,,,,,,,
,,,,,,,,,,,Deneme,001,2023-11-07_20h37.26.712,vowel_harmony,2023.2.3,Win32,60.0240096,676.777,677.776,,,,,,,,,,,,,,,,,,,,,,,,,,677.776,678.326,z,1,0.536,,678.326,678.326,,0,278,278,337,1,338,bakem,,,,,5,notharmonic,1.7,nw,z,,,,,,,
,,,,,,,,,,,Deneme,001,2023-11-07_20h37.26.712,vowel_harmony,2023.2.3,Win32,60.0240096,678.327,679.327,,,,,,,,,,,,,,,,,,,,,,,,,,679.329,679.876,m,1,0.527,,679.876,679.877,,0,279,279,86,1,87,gerçek,8983,408.1519,8058,0.8809,6,harmonic,1.7,word,m,,,,,,,
,,,,,,,,,,,Deneme,001,2023-11-07_20h37.26.712,vowel_harmony,2023.2.3,Win32,60.0240096,679.88,680.875,,,,,,,,,,,,,,,,,,,,,,,,,,680.875,681.426,z,1,0.533,,681.426,681.426,,0,280,280,212,1,213,ortat,,,,,5,harmonic,1.7,nw,z,,,,,,,
,,,,,,,,,,,Deneme,001,2023-11-07_20h37.26.712,vowel_harmony,2023.2.3,Win32,60.0240096,681.426,682.424,,,,,,,,,,,,,,,,,,,,,,,,,,682.424,682.925,m,1,0.48,,682.925,682.925,,0,281,281,53,1,54,gelir,7578,344.3143,7014,0.7668,5,harmonic,1.4,word,m,,,,,,,
,,,,,,,,,,,Deneme,001,2023-11-07_20h37.26.712,vowel_harmony,2023.2.3,Win32,60.0240096,682.926,683.923,,,,,,,,,,,,,,,,,,,,,,,,,,683.923,684.407,z,1,0.465,,684.407,684.407,,0,282,282,227,1,228,zekö,,,,,4,harmonic,1.9,nw,z,,,,,,,
,,,,,,,,,,,Deneme,001,2023-11-07_20h37.26.712,vowel_harmony,2023.2.3,Win32,60.0240096,684.408,685.406,,,,,,,,,,,,,,,,,,,,,,,,,,685.407,685.823,m,1,0.398,,685.823,685.823,,0,283,283,174,1,175,bugün,13879,630.6067,12842,1.4039,5,notharmonic,1.85,word,m,,,,,,,
,,,,,,,,,,,Deneme,001,2023-11-07_20h37.26.712,vowel_harmony,2023.2.3,Win32,60.0240096,685.823,686.822,,,,,,,,,,,,,,,,,,,,,,,,,,686.822,687.289,z,1,0.454,,687.289,687.289,,0,284,284,215,1,216,aydo,,,,,4,harmonic,1.9,nw,z,,,,,,,
,,,,,,,,,,,Deneme,001,2023-11-07_20h37.26.712,vowel_harmony,2023.2.3,Win32,60.0240096,687.292,688.289,,,,,,,,,,,,,,,,,,,,,,,,,,688.289,688.688,m,1,0.38,,688.688,688.688,,0,285,285,22,1,23,anlam,1730,78.6043,1617,0.1768,5,harmonic,1.25,word,m,,,,,,,
,,,,,,,,,,,Deneme,001,2023-11-07_20h37.26.712,vowel_harmony,2023.2.3,Win32,60.0240096,688.69,689.688,,,,,,,,,,,,,,,,,,,,,,,,,,689.688,690.205,z,1,0.501,,690.205,690.205,,0,286,286,304,1,305,annö,,,,,4,notharmonic,1.95,nw,z,,,,,,,
,,,,,,,,,,,Deneme,001,2023-11-07_20h37.26.712,vowel_harmony,2023.2.3,Win32,60.0240096,690.205,691.204,,,,,,,,,,,,,,,,,,,,,,,,,,691.204,691.737,m,1,0.515,,691.737,691.737,,0,287,287,142,1,143,siyasi,2909,132.1734,2445,0.2673,6,notharmonic,1.8,word,m,,,,,,,
,,,,,,,,,,,Deneme,001,2023-11-07_20h37.26.712,vowel_harmony,2023.2.3,Win32,60.0240096,691.738,692.737,,,,,,,,,,,,,,,,,,,,,,,,,,692.737,693.353,m,1,0.598,,693.353,693.353,,0,288,288,83,1,84,küçük,14048,638.2854,12467,1.3629,5,harmonic,1.75,word,m,,,,,,,
,,,,,,,,,,,Deneme,001,2023-11-07_20h37.26.712,vowel_harmony,2023.2.3,Win32,60.0240096,693.354,694.353,,,,,,,,,,,,,,,,,,,,,,,,,,694.353,694.936,m,1,0.564,,694.936,694.936,,0,289,289,51,1,52,ilginç,2803,127.3572,2690,0.2941,6,harmonic,1.8,word,m,,,,,,,
,,,,,,,,,,,Deneme,001,2023-11-07_20h37.26.712,vowel_harmony,2023.2.3,Win32,60.0240096,694.936,695.935,,,,,,,,,,,,,,,,,,,,,,,,,,695.935,696.418,m,1,0.465,,696.418,696.418,,0,290,290,169,1,170,hikaye,1555,70.653,1405,0.1536,6,notharmonic,1.8,word,m,,,,,,,
,,,,,,,,,,,Deneme,001,2023-11-07_20h37.26.712,vowel_harmony,2023.2.3,Win32,60.0240096,696.42,697.417,,,,,,,,,,,,,,,,,,,,,,,,,,697.417,697.884,m,1,0.448,,697.884,697.884,,0,291,291,145,1,146,iddia,2430,110.4096,2295,0.2509,5,notharmonic,1.85,word,m,,,,,,,
,,,,,,,,,,,Deneme,001,2023-11-07_20h37.26.712,vowel_harmony,2023.2.3,Win32,60.0240096,697.885,698.883,,,,,,,,,,,,,,,,,,,,,,,,,,698.883,699.417,z,1,0.521,,699.417,699.417,,0,292,292,182,1,183,orsın,,,,,5,harmonic,1.95,nw,z,,,,,,,
,,,,,,,,,,,Deneme,001,2023-11-07_20h37.26.712,vowel_harmony,2023.2.3,Win32,60.0240096,699.418,700.416,,,,,,,,,,,,,,,,,,,,,,,,,,700.416,700.966,z,1,0.531,,700.966,700.966,,0,293,293,339,1,340,asmel,,,,,5,notharmonic,1.95,nw,z,,,,,,,
,,,,,,,,,,,Deneme,001,2023-11-07_20h37.26.712,vowel_harmony,2023.2.3,Win32,60.0240096,700.967,701.966,,,,,,,,,,,,,,,,,,,,,,,,,,701.966,702.498,z,1,0.522,,702.499,702.499,,0,294,294,198,1,199,yarbız,,,,,6,harmonic,1.95,nw,z,,,,,,,
,,,,,,,,,,,Deneme,001,2023-11-07_20h37.26.712,vowel_harmony,2023.2.3,Win32,60.0240096,702.499,703.498,,,,,,,,,,,,,,,,,,,,,,,,,,703.498,704.048,z,1,0.534,,704.048,704.048,,0,295,295,311,1,312,dedya,,,,,5,notharmonic,1.9,nw,z,,,,,,,
,,,,,,,,,,,Deneme,001,2023-11-07_20h37.26.712,vowel_harmony,2023.2.3,Win32,60.0240096,704.049,705.048,,,,,,,,,,,,,,,,,,,,,,,,,,705.048,705.564,z,1,0.505,,705.564,705.564,,0,296,296,323,1,324,devak,,,,,5,notharmonic,1.75,nw,z,,,,,,,
,,,,,,,,,,,Deneme,001,2023-11-07_20h37.26.712,vowel_harmony,2023.2.3,Win32,60.0240096,705.565,706.564,,,,,,,,,,,,,,,,,,,,,,,,,,706.564,707.096,m,1,0.513,,707.096,707.096,,0,297,297,175,1,176,aile,3655,166.0687,3126,0.3417,4,notharmonic,1,word,m,,,,,,,
,,,,,,,,,,,Deneme,001,2023-11-07_20h37.26.712,vowel_harmony,2023.2.3,Win32,60.0240096,707.097,708.097,,,,,,,,,,,,,,,,,,,,,,,,,,708.097,708.613,m,1,0.5,,708.613,708.613,,0,298,298,7,1,8,hizmet,3023,137.3531,2689,0.294,6,harmonic,1.75,word,m,,,,,,,
,,,,,,,,,,,Deneme,001,2023-11-07_20h37.26.712,vowel_harmony,2023.2.3,Win32,60.0240096,708.614,709.612,,,,,,,,,,,,,,,,,,,,,,,,,,709.612,710.095,z,1,0.466,,710.095,710.095,,0,299,299,205,1,206,kahay,,,,,5,harmonic,1.9,nw,z,,,,,,,
,,,,,,,,,,,Deneme,001,2023-11-07_20h37.26.712,vowel_harmony,2023.2.3,Win32,60.0240096,710.096,711.095,,,,,,,,,,,,,,,,,,,,,,,,,,711.095,711.628,m,1,0.515,,711.628,711.628,,0,300,300,98,1,99,paket,1532,69.608,1392,0.1522,5,notharmonic,1.55,word,m,,,,,,,
,,,,,,,,,,,Deneme,001,2023-11-07_20h37.26.712,vowel_harmony,2023.2.3,Win32,60.0240096,711.628,712.629,,,,,,,,,,,,,,,,,,,,,,,,,,712.63,713.311,m,1,0.665,,713.311,713.312,,0,301,301,48,1,49,teşvik,932,42.3464,867,0.0948,6,harmonic,1.8,word,m,,,,,,,
,,,,,,,,,,,Deneme,001,2023-11-07_20h37.26.712,vowel_harmony,2023.2.3,Win32,60.0240096,713.315,714.31,,,,,,,,,,,,,,,,,,,,,,,,,,714.31,714.86,z,1,0.536,,714.86,714.86,,0,302,302,267,1,268,nokuma,,,,,6,harmonic,1.75,nw,z,,,,,,,
,,,,,,,,,,,Deneme,001,2023-11-07_20h37.26.712,vowel_harmony,2023.2.3,Win32,60.0240096,714.861,715.859,,,,,,,,,,,,,,,,,,,,,,,,,,715.86,716.326,m,1,0.447,,716.326,716.327,,0,303,303,178,1,179,dikkat,6230,283.0665,5888,0.6437,6,notharmonic,2.05,word,m,,,,,,,
,,,,,,,,,,,Deneme,001,2023-11-07_20h37.26.712,vowel_harmony,2023.2.3,Win32,60.0240096,716.328,717.326,,,,,,,,,,,,,,,,,,,,,,,,,,717.326,717.959,m,1,0.614,,717.959,717.959,,0,304,304,75,1,76,roman,1499,68.1086,1281,0.14,5,harmonic,1.6,word,m,,,,,,,
,,,,,,,,,,,Deneme,001,2023-11-07_20h37.26.712,vowel_harmony,2023.2.3,Win32,60.0240096,717.961,718.958,,,,,,,,,,,,,,,,,,,,,,,,,,718.958,719.458,m,1,0.48,,719.458,719.458,,0,305,305,54,1,55,yedek,825,37.4847,732,0.08,5,harmonic,1.65,word,m,,,,,,,
,,,,,,,,,,,Deneme,001,2023-11-07_20h37.26.712,vowel_harmony,2023.2.3,Win32,60.0240096,719.459,720.458,,,,,,,,,,,,,,,,,,,,,,,,,,720.458,721.007,z,1,0.532,,721.008,721.008,,0,306,306,264,1,265,vepü,,,,,4,harmonic,2,nw,z,,,,,,,
,,,,,,,,,,,Deneme,001,2023-11-07_20h37.26.712,vowel_harmony,2023.2.3,Win32,60.0240096,721.009,722.007,,,,,,,,,,,,,,,,,,,,,,,,,,722.007,722.473,m,1,0.449,,722.473,722.473,,0,307,307,81,1,82,üretim,1593,72.3796,1283,0.1403,6,harmonic,1.6,word,m,,,,,,,
,,,,,,,,,,,Deneme,001,2023-11-07_20h37.26.712,vowel_harmony,2023.2.3,Win32,60.0240096,722.474,723.472,,,,,,,,,,,,,,,,,,,,,,,,,,723.472,724.022,m,1,0.539,,724.022,724.023,,0,308,308,50,1,51,kanun,1198,54.4324,1010,0.1104,5,harmonic,1.6,word,m,,,,,,,
,,,,,,,,,,,Deneme,001,2023-11-07_20h37.26.712,vowel_harmony,2023.2.3,Win32,60.0240096,724.024,725.022,,,,,,,,,,,,,,,,,,,,,,,,,,725.022,725.588,z,1,0.553,,725.589,725.589,,0,309,309,284,1,285,deval,,,,,5,notharmonic,1.75,nw,z,,,,,,,
,,,,,,,,,,,Deneme,001,2023-11-07_20h37.26.712,vowel_harmony,2023.2.3,Win32,60.0240096,725.59,726.588,,,,,,,,,,,,,,,,,,,,,,,,,,726.588,727.155,z,1,0.556,,727.155,727.155,,0,310,310,308,1,309,hafer,,,,,5,notharmonic,1.85,nw,z,,,,,,,
,,,,,,,,,,,Deneme,001,2023-11-07_20h37.26.712,vowel_harmony,2023.2.3,Win32,60.0240096,727.155,728.154,,,,,,,,,,,,,,,,,,,,,,,,,,728.155,728.687,m,1,0.522,,728.687,728.688,,0,311,311,129,1,130,tahmin,2353,106.911,2273,0.2485,6,notharmonic,1.6,word,m,,,,,,,
,,,,,,,,,,,Deneme,001,2023-11-07_20h37.26.712,vowel_harmony,2023.2.3,Win32,60.0240096,728.69,729.686,,,,,,,,,,,,,,,,,,,,,,,,,,729.686,730.17,m,1,0.464,,730.17,730.17,,0,312,312,71,1,72,örnek,3463,157.345,3266,0.357,5,harmonic,1.85,word,m,,,,,,,
,,,,,,,,,,,Deneme,001,2023-11-07_20h37.26.712,vowel_harmony,2023.2.3,Win32,60.0240096,730.171,731.17,,,,,,,,,,,,,,,,,,,,,,,,,,731.17,731.669,m,1,0.483,,731.669,731.669,,0,313,313,92,1,93,sahne,1380,62.7017,1238,0.1353,5,notharmonic,1.65,word,m,,,,,,,
,,,,,,,,,,,Deneme,001,2023-11-07_20h37.26.712,vowel_harmony,2023.2.3,Win32,60.0240096,731.67,732.669,,,,,,,,,,,,,,,,,,,,,,,,,,732.669,733.085,m,1,0.4,,733.085,733.085,,0,314,314,153,1,154,inşaat,432,19.6284,376,0.0411,6,notharmonic,1.6,word,m,,,,,,,
,,,,,,,,,,,Deneme,001,2023-11-07_20h37.26.712,vowel_harmony,2023.2.3,Win32,60.0240096,733.086,734.085,,,,,,,,,,,,,,,,,,,,,,,,,,734.085,734.701,z,1,0.604,,734.701,734.701,,0,315,315,183,1,184,orkın,,,,,5,harmonic,1.9,nw,z,,,,,,,
,,,,,,,,,,,Deneme,001,2023-11-07_20h37.26.712,vowel_harmony,2023.2.3,Win32,60.0240096,734.702,735.701,,,,,,,,,,,,,,,,,,,,,,,,,,735.701,736.084,m,1,0.366,,736.084,736.084,,0,316,316,60,1,61,doğu,2105,95.6429,1823,0.1993,4,harmonic,1.05,word,m,,,,,,,
,,,,,,,,,,,Deneme,001,2023-11-07_20h37.26.712,vowel_harmony,2023.2.3,Win32,60.0240096,736.084,737.083,,,,,,,,,,,,,,,,,,,,,,,,,,737.083,737.683,z,1,0.582,,737.683,737.683,,0,317,317,257,1,258,zerü,,,,,4,harmonic,1.8,nw,z,,,,,,,
,,,,,,,,,,,Deneme,001,2023-11-07_20h37.26.712,vowel_harmony,2023.2.3,Win32,60.0240096,737.684,738.682,,,,,,,,,,,,,,,,,,,,,,,,,,738.682,739.165,m,1,0.472,,739.165,739.165,,0,318,318,154,1,155,sakin,1855,84.2838,1635,0.1787,5,notharmonic,1.05,word,m,,,,,,,
,,,,,,,,,,,Deneme,001,2023-11-07_20h37.26.712,vowel_harmony,2023.2.3,Win32,60.0240096,739.167,740.165,,,,,,,,,,,,,,,,,,,,,,,,,,740.165,740.681,z,1,0.499,,740.681,740.681,,0,319,319,221,1,222,yaypın,,,,,6,harmonic,1.75,nw,z,,,,,,,
,,,,,,,,,,,Deneme,001,2023-11-07_20h37.26.712,vowel_harmony,2023.2.3,Win32,60.0240096,740.682,741.682,,,,,,,,,,,,,,,,,,,,,,,,,,741.682,742.198,m,1,0.5,,742.198,742.198,,0,320,320,176,1,177,harika,4682,212.7315,4422,0.4834,6,notharmonic,1.9,word,m,,,,,,,
,,,,,,,,,,,Deneme,001,2023-11-07_20h37.26.712,vowel_harmony,2023.2.3,Win32,60.0240096,742.198,743.197,,,,,,,,,,,,,,,,,,,,,,,,,,743.197,743.68,m,1,0.466,,743.68,743.68,,0,321,321,16,1,17,yavaş,5087,231.1331,2886,0.3155,5,harmonic,1.6,word,m,,,,,,,
,,,,,,,,,,,Deneme,001,2023-11-07_20h37.26.712,vowel_harmony,2023.2.3,Win32,60.0240096,743.681,744.68,,,,,,,,,,,,,,,,,,,,,,,,,,744.68,745.263,z,1,0.573,,745.263,745.263,,0,322,322,344,1,345,barika,,,,,6,notharmonic,1.75,nw,z,,,,,,,
,,,,,,,,,,,Deneme,001,2023-11-07_20h37.26.712,vowel_harmony,2023.2.3,Win32,60.0240096,745.263,746.263,,,,,,,,,,,,,,,,,,,,,,,,,,746.264,746.796,z,1,0.51,,746.796,746.797,,0,323,323,354,1,355,taden,,,,,5,notharmonic,1.7,nw,z,,,,,,,
,,,,,,,,,,,Deneme,001,2023-11-07_20h37.26.712,vowel_harmony,2023.2.3,Win32,60.0240096,746.8,747.795,,,,,,,,,,,,,,,,,,,,,,,,,,747.795,748.378,z,1,0.569,,748.378,748.379,,0,324,324,246,1,247,orkın,,,,,5,harmonic,1.9,nw,z,,,,,,,
,,,,,,,,,,,Deneme,001,2023-11-07_20h37.26.712,vowel_harmony,2023.2.3,Win32,60.0240096,748.379,749.378,,,,,,,,,,,,,,,,,,,,,,,,,,749.378,750.027,z,1,0.634,,750.027,750.028,,0,325,325,252,1,253,anlgı,,,,,5,harmonic,1.9,nw,z,,,,,,,
,,,,,,,,,,,Deneme,001,2023-11-07_20h37.26.712,vowel_harmony,2023.2.3,Win32,60.0240096,750.028,751.027,,,,,,,,,,,,,,,,,,,,,,,,,,751.027,751.627,m,1,0.58,,751.627,751.627,,0,326,326,95,1,96,takip,4996,226.9984,4651,0.5084,5,notharmonic,1.55,word,m,,,,,,,
,,,,,,,,,,,Deneme,001,2023-11-07_20h37.26.712,vowel_harmony,2023.2.3,Win32,60.0240096,751.628,752.626,,,,,,,,,,,,,,,,,,,,,,,,,,752.626,753.16,z,1,0.513,,753.16,753.16,,0,327,327,297,1,298,sapet,,,,,5,notharmonic,1.85,nw,z,,,,,,,
,,,,,,,,,,,Deneme,001,2023-11-07_20h37.26.712,vowel_harmony,2023.2.3,Win32,60.0240096,753.162,754.159,,,,,,,,,,,,,,,,,,,,,,,,,,754.159,754.758,z,1,0.582,,754.759,754.759,,0,328,328,258,1,259,karıha,,,,,6,harmonic,1.75,nw,z,,,,,,,
,,,,,,,,,,,Deneme,001,2023-11-07_20h37.26.712,vowel_harmony,2023.2.3,Win32,60.0240096,754.76,755.758,,,,,,,,,,,,,,,,,,,,,,,,,,755.758,756.275,z,1,0.498,,756.275,756.275,,0,329,329,207,1,208,örtre,,,,,5,harmonic,1.85,nw,z,,,,,,,
,,,,,,,,,,,Deneme,001,2023-11-07_20h37.26.712,vowel_harmony,2023.2.3,Win32,60.0240096,756.276,757.274,,,,,,,,,,,,,,,,,,,,,,,,,,757.274,757.957,z,1,0.665,,757.957,757.957,,0,330,330,338,1,339,pardön,,,,,6,notharmonic,1.95,nw,z,,,,,,,
,,,,,,,,,,,Deneme,001,2023-11-07_20h37.26.712,vowel_harmony,2023.2.3,Win32,60.0240096,757.957,758.957,,,,,,,,,,,,,,,,,,,,,,,,,,758.957,759.49,z,1,0.515,,759.49,759.49,,0,331,331,223,1,224,kakon,,,,,5,harmonic,1.85,nw,z,,,,,,,
,,,,,,,,,,,Deneme,001,2023-11-07_20h37.26.712,vowel_harmony,2023.2.3,Win32,60.0240096,759.491,760.489,,,,,,,,,,,,,,,,,,,,,,,,,,760.489,761.089,m,1,0.581,,761.089,761.089,,0,332,332,140,1,141,sahil,481,21.8547,443,0.0484,5,notharmonic,1.45,word,m,,,,,,,
,,,,,,,,,,,Deneme,001,2023-11-07_20h37.26.712,vowel_harmony,2023.2.3,Win32,60.0240096,761.089,762.088,,,,,,,,,,,,,,,,,,,,,,,,,,762.088,762.622,m,1,0.514,,762.622,762.622,,0,333,333,11,1,12,umut,1988,90.3268,1818,0.1987,4,harmonic,1.55,word,m,,,,,,,
,,,,,,,,,,,Deneme,001,2023-11-07_20h37.26.712,vowel_harmony,2023.2.3,Win32,60.0240096,762.622,763.622,,,,,,,,,,,,,,,,,,,,,,,,,,763.622,764.188,z,1,0.548,,764.188,764.188,,0,334,334,278,1,279,sekon,,,,,5,notharmonic,1.85,nw,z,,,,,,,
,,,,,,,,,,,Deneme,001,2023-11-07_20h37.26.712,vowel_harmony,2023.2.3,Win32,60.0240096,764.188,765.187,,,,,,,,,,,,,,,,,,,,,,,,,,765.187,765.887,z,1,0.684,,765.887,765.887,,0,335,335,262,1,263,sauk,,,,,4,harmonic,1.85,nw,z,,,,,,,
,,,,,,,,,,,Deneme,001,2023-11-07_20h37.26.712,vowel_harmony,2023.2.3,Win32,60.0240096,765.887,766.886,,,,,,,,,,,,,,,,,,,,,,,,,,766.886,767.453,z,1,0.548,,767.453,767.453,,0,336,336,272,1,273,daken,,,,,5,notharmonic,1.8,nw,z,,,,,,,
,,,,,,,,,,,Deneme,001,2023-11-07_20h37.26.712,vowel_harmony,2023.2.3,Win32,60.0240096,767.453,768.452,,,,,,,,,,,,,,,,,,,,,,,,,,768.452,768.952,z,1,0.482,,768.952,768.952,,0,337,337,290,1,291,aipa,,,,,4,notharmonic,1.95,nw,z,,,,,,,
,,,,,,,,,,,Deneme,001,2023-11-07_20h37.26.712,vowel_harmony,2023.2.3,Win32,60.0240096,768.953,769.951,,,,,,,,,,,,,,,,,,,,,,,,,,769.951,770.485,m,1,0.522,,770.485,770.485,,0,338,338,44,1,45,kayıt,1234,56.0681,1058,0.1157,5,harmonic,1.35,word,m,,,,,,,
,,,,,,,,,,,Deneme,001,2023-11-07_20h37.26.712,vowel_harmony,2023.2.3,Win32,60.0240096,770.485,771.484,,,,,,,,,,,,,,,,,,,,,,,,,,771.484,772.034,m,1,0.534,,772.034,772.034,,0,339,339,165,1,166,gazete,1402,63.7013,1270,0.1388,6,notharmonic,1.8,word,m,,,,,,,
,,,,,,,,,,,Deneme,001,2023-11-07_20h37.26.712,vowel_harmony,2023.2.3,Win32,60.0240096,772.035,773.033,,,,,,,,,,,,,,,,,,,,,,,,,,773.033,773.6,m,1,0.548,,773.6,773.6,,0,340,340,96,1,97,dahil,3189,144.8955,3060,0.3345,5,notharmonic,1.7,word,m,,,,,,,
,,,,,,,,,,,Deneme,001,2023-11-07_20h37.26.712,vowel_harmony,2023.2.3,Win32,60.0240096,773.6,774.599,,,,,,,,,,,,,,,,,,,,,,,,,,774.599,775.166,m,1,0.549,,775.166,775.166,,0,341,341,8,1,9,güven,1433,65.1098,1300,0.1421,5,harmonic,1.35,word,m,,,,,,,
,,,,,,,,,,,Deneme,001,2023-11-07_20h37.26.712,vowel_harmony,2023.2.3,Win32,60.0240096,775.167,776.165,,,,,,,,,,,,,,,,,,,,,,,,,,776.165,776.715,z,1,0.538,,776.715,776.715,,0,342,342,226,1,227,tefem,,,,,5,harmonic,1.75,nw,z,,,,,,,
,,,,,,,,,,,Deneme,001,2023-11-07_20h37.26.712,vowel_harmony,2023.2.3,Win32,60.0240096,776.716,777.715,,,,,,,,,,,,,,,,,,,,,,,,,,777.715,778.364,z,1,0.635,,778.364,778.364,,0,343,343,187,1,188,remrin,,,,,6,harmonic,1.9,nw,z,,,,,,,
,,,,,,,,,,,Deneme,001,2023-11-07_20h37.26.712,vowel_harmony,2023.2.3,Win32,60.0240096,778.365,779.364,,,,,,,,,,,,,,,,,,,,,,,,,,779.364,779.965,m,1,0.584,,779.966,779.967,,0,344,344,139,1,140,lira,1253,56.9314,947,0.1035,4,notharmonic,1.4,word,m,,,,,,,
,,,,,,,,,,,Deneme,001,2023-11-07_20h37.26.712,vowel_harmony,2023.2.3,Win32,60.0240096,779.969,780.964,,,,,,,,,,,,,,,,,,,,,,,,,,780.964,781.763,z,1,0.786,,781.763,781.763,,0,345,345,310,1,311,yandeş,,,,,6,notharmonic,1.95,nw,z,,,,,,,
,,,,,,,,,,,Deneme,001,2023-11-07_20h37.26.712,vowel_harmony,2023.2.3,Win32,60.0240096,781.765,782.763,,,,,,,,,,,,,,,,,,,,,,,,,,782.763,783.213,m,1,0.431,,783.213,783.213,,0,346,346,43,1,44,geniş,3380,153.5738,3185,0.3482,5,harmonic,1.35,word,m,,,,,,,
,,,,,,,,,,,Deneme,001,2023-11-07_20h37.26.712,vowel_harmony,2023.2.3,Win32,60.0240096,783.214,784.212,,,,,,,,,,,,,,,,,,,,,,,,,,784.212,784.712,m,1,0.481,,784.712,784.713,,0,347,347,9,1,10,karar,8108,368.3954,7436,0.8129,5,harmonic,1.6,word,m,,,,,,,
,,,,,,,,,,,Deneme,001,2023-11-07_20h37.26.712,vowel_harmony,2023.2.3,Win32,60.0240096,784.713,785.711,,,,,,,,,,,,,,,,,,,,,,,,,,785.711,786.161,m,1,0.431,,786.161,786.161,,0,348,348,143,1,144,kitap,8359,379.7998,6786,0.7418,5,notharmonic,1.9,word,m,,,,,,,
,,,,,,,,,,,Deneme,001,2023-11-07_20h37.26.712,vowel_harmony,2023.2.3,Win32,60.0240096,786.163,787.16,,,,,,,,,,,,,,,,,,,,,,,,,,787.16,787.71,m,1,0.532,,787.71,787.71,,0,349,349,130,1,131,hamile,1075,48.8437,877,0.0959,6,notharmonic,1.5,word,m,,,,,,,
,,,,,,,,,,,Deneme,001,2023-11-07_20h37.26.712,vowel_harmony,2023.2.3,Win32,60.0240096,787.712,788.71,,,,,,,,,,,,,,,,,,,,,,,,,,788.71,789.259,z,1,0.534,,789.259,789.259,,0,350,350,222,1,223,gelü,,,,,4,harmonic,1.75,nw,z,,,,,,,
,,,,,,,,,,,Deneme,001,2023-11-07_20h37.26.712,vowel_harmony,2023.2.3,Win32,60.0240096,789.26,790.259,,,,,,,,,,,,,,,,,,,,,,,,,,790.259,790.959,z,1,0.682,,790.959,790.959,,0,351,351,270,1,271,miyaj,,,,,5,notharmonic,1.9,nw,z,,,,,,,
,,,,,,,,,,,Deneme,001,2023-11-07_20h37.26.712,vowel_harmony,2023.2.3,Win32,60.0240096,790.96,791.959,,,,,,,,,,,,,,,,,,,,,,,,,,791.959,792.525,m,1,0.548,,792.525,792.525,,0,352,352,120,1,121,ihmal,1002,45.5269,977,0.1068,5,notharmonic,1.65,word,m,,,,,,,
,,,,,,,,,,,Deneme,001,2023-11-07_20h37.26.712,vowel_harmony,2023.2.3,Win32,60.0240096,792.526,793.524,,,,,,,,,,,,,,,,,,,,,,,,,,793.524,794.108,z,1,0.568,,794.108,794.108,,0,353,353,333,1,334,heyran,,,,,6,notharmonic,1.85,nw,z,,,,,,,
,,,,,,,,,,,Deneme,001,2023-11-07_20h37.26.712,vowel_harmony,2023.2.3,Win32,60.0240096,794.109,795.107,,,,,,,,,,,,,,,,,,,,,,,,,,795.107,795.673,z,1,0.548,,795.673,795.673,,0,354,354,282,1,283,taöz,,,,,4,notharmonic,1.9,nw,z,,,,,,,
,,,,,,,,,,,Deneme,001,2023-11-07_20h37.26.712,vowel_harmony,2023.2.3,Win32,60.0240096,795.674,796.673,,,,,,,,,,,,,,,,,,,,,,,,,,796.673,797.123,m,1,0.431,,797.123,797.123,,0,355,355,85,1,86,geçmiş,4195,190.6042,4039,0.4415,6,harmonic,1.55,word,m,,,,,,,
,,,,,,,,,,,Deneme,001,2023-11-07_20h37.26.712,vowel_harmony,2023.2.3,Win32,60.0240096,797.124,798.122,,,,,,,,,,,,,,,,,,,,,,,,,,798.122,798.722,z,1,0.586,,798.722,798.722,,0,356,356,329,1,330,taif,,,,,4,notharmonic,1.8,nw,z,,,,,,,
,,,,,,,,,,,Deneme,001,2023-11-07_20h37.26.712,vowel_harmony,2023.2.3,Win32,60.0240096,798.722,799.722,,,,,,,,,,,,,,,,,,,,,,,,,,799.722,800.172,m,1,0.431,,800.172,800.172,,0,357,357,123,1,124,haber,4559,207.1429,4151,0.4538,5,notharmonic,1.85,word,m,,,,,,,
,,,,,,,,,,,Deneme,001,2023-11-07_20h37.26.712,vowel_harmony,2023.2.3,Win32,60.0240096,800.173,801.171,,,,,,,,,,,,,,,,,,,,,,,,,,801.171,801.87,z,1,0.682,,801.87,801.87,,0,358,358,358,1,359,yangin,,,,,6,notharmonic,1.9,nw,z,,,,,,,
,,,,,,,,,,,Deneme,001,2023-11-07_20h37.26.712,vowel_harmony,2023.2.3,Win32,60.0240096,801.872,802.87,,,,,,,,,,,,,,,,,,,,,,,,,,802.87,803.653,z,1,0.77,,803.653,803.653,,0,359,359,249,1,250,hurıt,,,,,5,harmonic,1.95,nw,z,,,,,,,
,,,,,,,,,,,Deneme,001,2023-11-07_20h37.26.712,vowel_harmony,2023.2.3,Win32,60.0240096,,,,,,,,,,,,,,,,,,,,,,,,,,,,,,,,,,,,,,,,,,,,,,,,,,,,,,,803.653,805.219,space,1.544,