Welcome_screen.started,Welcome_screen.stopped,key_respwelcome.keys,key_respwelcome.rt,key_respwelcome.duration,intro_x.thisRepN,intro_x.thisTrialN,intro_x.thisN,intro_x.thisIndex,intro_x.ran,Introduction,participant,session,date,expName,psychopyVersion,OS,frameRate,Fixation.started,Fixation.stopped,Studypractice.started,Studypractice.stopped,key_respstudy.keys,key_respstudy.corr,key_respstudy.rt,key_respstudy.duration,rt,corr,Feedback.started,Feedback.stopped,practice_loop.thisRepN,practice_loop.thisTrialN,practice_loop.thisN,practice_loop.thisIndex,practice_loop.ran,item_nr_p,target_p,isHarmonic_p,target_cond_p,CorrAns_p,Instraction.started,Instraction.stopped,key_respınstraction.keys,key_respınstraction.rt,key_respınstraction.duration,TestTrial.started,TestTrial.stopped,key_respTest.keys,key_respTest.corr,key_respTest.rt,key_respTest.duration,Pause.started,Pause.stopped,key_resp_xx.keys,test_loop.thisRepN,test_loop.thisTrialN,test_loop.thisN,test_loop.thisIndex,test_loop.ran,item_nr,target,BlogFreq_A1,BlogFreqpm_A1,BlogCD_A1,BlogCDPc_A1,WordLength_A1,isHarmonic_A1,old20,target_cond,CorrAns,key_resp_xx.rt,key_resp_xx.duration,Goodbye_screen.started,Goodbye_screen.stopped,key_respgoodbye.keys,key_respgoodbye.rt,key_respgoodbye.duration
0.022,1.782,space,1.727,,0,0,0,0,1,"Deneye hoş geldiniz,

Devam etmek için BOŞLUK tuşuna basınız.",Ege,001,2023-11-08_19h35.59.776,vowel_harmony,2023.2.3,MacIntel,66.66666667,,,,,,,,,,,,,,,,,,,,,,,,,,,,,,,,,,,,,,,,,,,,,,,,,,,,,,,,,,,
1.783,15.972,space,14.137,,0,1,1,1,1,"Bu çalışma Valencia Üniversitesi kapsamında yürütülmektedir. Deneydeki göreviniz, ekrana çıkacak Türkçe sözcüklerin kelime olup olmadığını belirlemenizdir. Eğer sözcük gerçek bir kelime ise ""m"" tuşuna, değil ise ""z"" tuşuna basınız.   

Devam etmek için BOŞLUK tuşuna basınız.",Ege,001,2023-11-08_19h35.59.776,vowel_harmony,2023.2.3,MacIntel,66.66666667,,,,,,,,,,,,,,,,,,,,,,,,,,,,,,,,,,,,,,,,,,,,,,,,,,,,,,,,,,,
15.973,20.174,space,4.155,,0,2,2,2,1,"Her sözcük için en fazla iki saniyede cevap vermeniz beklenmektedir. Aksi takdirde deney bir sonraki sözcük ile devam eder. 
Bu çalışmada oldukça hızlı ve doğru cevaplama yapmanız beklenmektedir.

Devam etmek için BOŞLUK tuşuna basınız.",Ege,001,2023-11-08_19h35.59.776,vowel_harmony,2023.2.3,MacIntel,66.66666667,,,,,,,,,,,,,,,,,,,,,,,,,,,,,,,,,,,,,,,,,,,,,,,,,,,,,,,,,,,
20.174,25.127,space,4.897,,0,3,3,3,1,"Çalışmaya başlamadan önce ufak bir pratik yer almaktadır.
Kelimedir: ""m""
Kelime değildir: ""z""

Pratik teste başlamak için BOŞLUK tuşuna basınız. ",Ege,001,2023-11-08_19h35.59.776,vowel_harmony,2023.2.3,MacIntel,66.66666667,,,,,,,,,,,,,,,,,,,,,,,,,,,,,,,,,,,,,,,,,,,,,,,,,,,,,,,,,,,
,,,,,,,,,,,Ege,001,2023-11-08_19h35.59.776,vowel_harmony,2023.2.3,MacIntel,66.66666667,25.148,26.145,26.145,27.596,m,0,1.411,,1.411,0,27.596,29.096,0,0,0,12,1,13,ihlot,notharmonic,nw,z,,,,,,,,,,,,,,,,,,,,,,,,,,,,,,,,,,,,,
,,,,,,,,,,,Ege,001,2023-11-08_19h35.59.776,vowel_harmony,2023.2.3,MacIntel,66.66666667,29.097,30.096,30.096,30.712,m,1,0.594,,0.594,1,30.713,32.214,0,1,1,5,1,6,bahçe,notharmonic,word,m,,,,,,,,,,,,,,,,,,,,,,,,,,,,,,,,,,,,,
,,,,,,,,,,,Ege,001,2023-11-08_19h35.59.776,vowel_harmony,2023.2.3,MacIntel,66.66666667,32.215,33.213,33.213,33.698,m,1,0.459,,0.459,1,33.698,35.198,0,2,2,1,1,2,veri,harmonic,word,m,,,,,,,,,,,,,,,,,,,,,,,,,,,,,,,,,,,,,
,,,,,,,,,,,Ege,001,2023-11-08_19h35.59.776,vowel_harmony,2023.2.3,MacIntel,66.66666667,35.198,36.199,36.199,36.632,m,1,0.407,,0.407,1,36.632,38.133,0,3,3,2,1,3,memur,notharmonic,word,m,,,,,,,,,,,,,,,,,,,,,,,,,,,,,,,,,,,,,
,,,,,,,,,,,Ege,001,2023-11-08_19h35.59.776,vowel_harmony,2023.2.3,MacIntel,66.66666667,38.133,39.133,39.133,39.633,m,0,0.479,,0.479,0,39.633,41.134,0,4,4,11,1,12,geki,harmonic,nw,z,,,,,,,,,,,,,,,,,,,,,,,,,,,,,,,,,,,,,
,,,,,,,,,,,Ege,001,2023-11-08_19h35.59.776,vowel_harmony,2023.2.3,MacIntel,66.66666667,41.134,42.135,42.135,42.685,m,1,0.526,,0.526,1,42.685,44.186,0,5,5,6,1,7,pilot,notharmonic,word,m,,,,,,,,,,,,,,,,,,,,,,,,,,,,,,,,,,,,,
,,,,,,,,,,,Ege,001,2023-11-08_19h35.59.776,vowel_harmony,2023.2.3,MacIntel,66.66666667,44.186,45.186,45.186,45.686,m,1,0.48,,0.48,1,45.686,47.188,0,6,6,0,1,1,ihale,notharmonic,word,m,,,,,,,,,,,,,,,,,,,,,,,,,,,,,,,,,,,,,
,,,,,,,,,,,Ege,001,2023-11-08_19h35.59.776,vowel_harmony,2023.2.3,MacIntel,66.66666667,47.188,48.188,48.188,48.704,m,1,0.496,,0.496,1,48.704,50.206,0,7,7,7,1,8,oran,harmonic,word,m,,,,,,,,,,,,,,,,,,,,,,,,,,,,,,,,,,,,,
,,,,,,,,,,,Ege,001,2023-11-08_19h35.59.776,vowel_harmony,2023.2.3,MacIntel,66.66666667,50.206,51.205,51.205,51.655,m,1,0.428,,0.428,1,51.655,53.156,0,8,8,3,1,4,ihlal,notharmonic,word,m,,,,,,,,,,,,,,,,,,,,,,,,,,,,,,,,,,,,,
,,,,,,,,,,,Ege,001,2023-11-08_19h35.59.776,vowel_harmony,2023.2.3,MacIntel,66.66666667,53.156,54.157,54.157,54.575,m,0,0.382,,0.382,0,54.575,56.074,0,9,9,8,1,9,tahip,notharmonic,nw,z,,,,,,,,,,,,,,,,,,,,,,,,,,,,,,,,,,,,,
,,,,,,,,,,,Ege,001,2023-11-08_19h35.59.776,vowel_harmony,2023.2.3,MacIntel,66.66666667,56.075,57.066,57.066,57.893,z,1,0.8,,0.8,1,57.893,59.393,0,10,10,13,1,14,pilar,notharmonic,nw,z,,,,,,,,,,,,,,,,,,,,,,,,,,,,,,,,,,,,,
,,,,,,,,,,,Ege,001,2023-11-08_19h35.59.776,vowel_harmony,2023.2.3,MacIntel,66.66666667,59.394,60.394,60.394,61.277,z,1,0.855,,0.855,1,61.277,62.778,0,11,11,15,1,16,mımal,harmonic,nw,z,,,,,,,,,,,,,,,,,,,,,,,,,,,,,,,,,,,,,
,,,,,,,,,,,Ege,001,2023-11-08_19h35.59.776,vowel_harmony,2023.2.3,MacIntel,66.66666667,62.778,63.778,63.778,64.428,z,1,0.629,,0.629,1,64.428,65.93,0,12,12,14,1,15,pimer,harmonic,nw,z,,,,,,,,,,,,,,,,,,,,,,,,,,,,,,,,,,,,,
,,,,,,,,,,,Ege,001,2023-11-08_19h35.59.776,vowel_harmony,2023.2.3,MacIntel,66.66666667,65.93,66.929,66.929,67.697,z,1,0.74,,0.74,1,67.698,69.198,0,13,13,10,1,11,mahne,notharmonic,nw,z,,,,,,,,,,,,,,,,,,,,,,,,,,,,,,,,,,,,,
,,,,,,,,,,,Ege,001,2023-11-08_19h35.59.776,vowel_harmony,2023.2.3,MacIntel,66.66666667,69.198,70.199,70.199,70.799,z,1,0.578,,0.578,1,70.799,72.3,0,14,14,9,1,10,orat,harmonic,nw,z,,,,,,,,,,,,,,,,,,,,,,,,,,,,,,,,,,,,,
,,,,,,,,,,,Ege,001,2023-11-08_19h35.59.776,vowel_harmony,2023.2.3,MacIntel,66.66666667,72.3,73.299,73.299,74.183,m,1,0.861,,0.861,1,74.183,75.683,0,15,15,4,1,5,mimar,notharmonic,word,m,,,,,,,,,,,,,,,,,,,,,,,,,,,,,,,,,,,,,
,,,,,,,,,,,Ege,001,2023-11-08_19h35.59.776,vowel_harmony,2023.2.3,MacIntel,66.66666667,,,,,,,,,,,,,,,,,,,,,,,75.684,76.812,space,1.077,,,,,,,,,,,,,,,,,,,,,,,,,,,,,,,,,
,,,,,,,,,,,Ege,001,2023-11-08_19h35.59.776,vowel_harmony,2023.2.3,MacIntel,66.66666667,76.873,77.818,,,,,,,,,,,,,,,,,,,,,,,,,,77.819,78.602,z,1,0.748,,78.603,78.61,,0,0,0,263,1,264,duzur,,,,,5,harmonic,1.8,nw,z,,,,,,,
,,,,,,,,,,,Ege,001,2023-11-08_19h35.59.776,vowel_harmony,2023.2.3,MacIntel,66.66666667,78.61,79.603,,,,,,,,,,,,,,,,,,,,,,,,,,79.603,80.436,z,1,0.807,,80.436,80.437,,0,1,1,227,1,228,zekö,,,,,4,harmonic,1.9,nw,z,,,,,,,
,,,,,,,,,,,Ege,001,2023-11-08_19h35.59.776,vowel_harmony,2023.2.3,MacIntel,66.66666667,80.437,81.436,,,,,,,,,,,,,,,,,,,,,,,,,,81.436,82.02,z,1,0.561,,82.02,82.02,,0,2,2,223,1,224,kakon,,,,,5,harmonic,1.85,nw,z,,,,,,,
,,,,,,,,,,,Ege,001,2023-11-08_19h35.59.776,vowel_harmony,2023.2.3,MacIntel,66.66666667,82.02,83.021,,,,,,,,,,,,,,,,,,,,,,,,,,83.021,83.722,z,1,0.677,,83.722,83.722,,0,3,3,194,1,195,rayna,,,,,5,harmonic,1.7,nw,z,,,,,,,
,,,,,,,,,,,Ege,001,2023-11-08_19h35.59.776,vowel_harmony,2023.2.3,MacIntel,66.66666667,83.724,84.721,,,,,,,,,,,,,,,,,,,,,,,,,,84.721,85.441,z,1,0.693,,85.442,85.442,,0,4,4,295,1,296,haylin,,,,,6,notharmonic,1.8,nw,z,,,,,,,
,,,,,,,,,,,Ege,001,2023-11-08_19h35.59.776,vowel_harmony,2023.2.3,MacIntel,66.66666667,85.444,86.44,,,,,,,,,,,,,,,,,,,,,,,,,,86.44,87.222,z,1,0.757,,87.222,87.222,,0,5,5,269,1,270,vekü,,,,,4,harmonic,2,nw,z,,,,,,,
,,,,,,,,,,,Ege,001,2023-11-08_19h35.59.776,vowel_harmony,2023.2.3,MacIntel,66.66666667,87.222,88.223,,,,,,,,,,,,,,,,,,,,,,,,,,88.223,88.907,m,1,0.664,,88.907,88.909,,0,6,6,72,1,73,çorba,1674,76.0599,1513,0.1654,5,harmonic,1.75,word,m,,,,,,,
,,,,,,,,,,,Ege,001,2023-11-08_19h35.59.776,vowel_harmony,2023.2.3,MacIntel,66.66666667,88.909,89.907,,,,,,,,,,,,,,,,,,,,,,,,,,89.907,90.457,m,1,0.529,,90.457,90.457,,0,7,7,161,1,162,komik,1617,73.4701,1506,0.1646,5,notharmonic,1.75,word,m,,,,,,,
,,,,,,,,,,,Ege,001,2023-11-08_19h35.59.776,vowel_harmony,2023.2.3,MacIntel,66.66666667,90.457,91.458,,,,,,,,,,,,,,,,,,,,,,,,,,91.458,92.125,m,1,0.644,,92.125,92.125,,0,8,8,55,1,56,akıl,2208,100.3228,2004,0.2191,4,harmonic,1,word,m,,,,,,,
,,,,,,,,,,,Ege,001,2023-11-08_19h35.59.776,vowel_harmony,2023.2.3,MacIntel,66.66666667,92.125,93.125,,,,,,,,,,,,,,,,,,,,,,,,,,93.125,93.993,m,0,0.846,,93.993,93.994,,0,9,9,314,1,315,seral,,,,,5,notharmonic,1.7,nw,z,,,,,,,
,,,,,,,,,,,Ege,001,2023-11-08_19h35.59.776,vowel_harmony,2023.2.3,MacIntel,66.66666667,93.994,94.994,,,,,,,,,,,,,,,,,,,,,,,,,,94.994,95.677,z,1,0.664,,95.678,95.678,,0,10,10,180,1,181,ayaro,,,,,5,harmonic,1.8,nw,z,,,,,,,
,,,,,,,,,,,Ege,001,2023-11-08_19h35.59.776,vowel_harmony,2023.2.3,MacIntel,66.66666667,95.678,96.677,,,,,,,,,,,,,,,,,,,,,,,,,,96.677,97.294,z,1,0.594,,97.294,97.294,,0,11,11,247,1,248,hafgın,,,,,6,harmonic,2,nw,z,,,,,,,
,,,,,,,,,,,Ege,001,2023-11-08_19h35.59.776,vowel_harmony,2023.2.3,MacIntel,66.66666667,97.294,98.295,,,,,,,,,,,,,,,,,,,,,,,,,,98.295,98.995,m,1,0.679,,98.995,98.995,,0,12,12,101,1,102,imza,1358,61.7021,1253,0.137,4,notharmonic,1.65,word,m,,,,,,,
,,,,,,,,,,,Ege,001,2023-11-08_19h35.59.776,vowel_harmony,2023.2.3,MacIntel,66.66666667,98.995,99.995,,,,,,,,,,,,,,,,,,,,,,,,,,99.995,100.712,z,1,0.697,,100.712,100.712,,0,13,13,284,1,285,deval,,,,,5,notharmonic,1.75,nw,z,,,,,,,
,,,,,,,,,,,Ege,001,2023-11-08_19h35.59.776,vowel_harmony,2023.2.3,MacIntel,66.66666667,100.713,101.712,,,,,,,,,,,,,,,,,,,,,,,,,,101.712,102.347,m,1,0.609,,102.347,102.347,,0,14,14,134,1,135,iptal,793,36.0308,725,0.0793,5,notharmonic,1.35,word,m,,,,,,,
,,,,,,,,,,,Ege,001,2023-11-08_19h35.59.776,vowel_harmony,2023.2.3,MacIntel,66.66666667,102.348,103.348,,,,,,,,,,,,,,,,,,,,,,,,,,103.348,103.914,m,1,0.543,,103.915,103.915,,0,15,15,90,1,91,tarif,2834,128.7657,2611,0.2854,5,notharmonic,1.5,word,m,,,,,,,
,,,,,,,,,,,Ege,001,2023-11-08_19h35.59.776,vowel_harmony,2023.2.3,MacIntel,66.66666667,103.915,104.914,,,,,,,,,,,,,,,,,,,,,,,,,,104.914,105.449,m,1,0.509,,105.449,105.449,,0,16,16,37,1,38,hayvan,2363,107.3653,1894,0.2071,6,harmonic,1.5,word,m,,,,,,,
,,,,,,,,,,,Ege,001,2023-11-08_19h35.59.776,vowel_harmony,2023.2.3,MacIntel,66.66666667,105.449,106.449,,,,,,,,,,,,,,,,,,,,,,,,,,106.449,107.065,z,1,0.587,,107.065,107.065,,0,17,17,244,1,245,kaof,,,,,4,harmonic,1.9,nw,z,,,,,,,
,,,,,,,,,,,Ege,001,2023-11-08_19h35.59.776,vowel_harmony,2023.2.3,MacIntel,66.66666667,107.066,108.066,,,,,,,,,,,,,,,,,,,,,,,,,,108.067,108.716,z,1,0.624,,108.716,108.716,,0,18,18,305,1,306,tamü,,,,,4,notharmonic,1.75,nw,z,,,,,,,
,,,,,,,,,,,Ege,001,2023-11-08_19h35.59.776,vowel_harmony,2023.2.3,MacIntel,66.66666667,108.716,109.717,,,,,,,,,,,,,,,,,,,,,,,,,,109.717,110.367,z,1,0.629,,110.367,110.367,,0,19,19,354,1,355,taden,,,,,5,notharmonic,1.7,nw,z,,,,,,,
,,,,,,,,,,,Ege,001,2023-11-08_19h35.59.776,vowel_harmony,2023.2.3,MacIntel,66.66666667,110.367,111.367,,,,,,,,,,,,,,,,,,,,,,,,,,111.367,112.067,z,1,0.673,,112.067,112.067,,0,20,20,261,1,262,kardok,,,,,6,harmonic,1.95,nw,z,,,,,,,
,,,,,,,,,,,Ege,001,2023-11-08_19h35.59.776,vowel_harmony,2023.2.3,MacIntel,66.66666667,112.068,113.068,,,,,,,,,,,,,,,,,,,,,,,,,,113.068,113.685,z,1,0.59,,113.685,113.685,,0,21,21,217,1,218,sanfız,,,,,6,harmonic,1.85,nw,z,,,,,,,
,,,,,,,,,,,Ege,001,2023-11-08_19h35.59.776,vowel_harmony,2023.2.3,MacIntel,66.66666667,113.685,114.686,,,,,,,,,,,,,,,,,,,,,,,,,,114.686,115.22,m,1,0.515,,115.22,115.22,,0,22,22,83,1,84,küçük,14048,638.2854,12467,1.3629,5,harmonic,1.75,word,m,,,,,,,
,,,,,,,,,,,Ege,001,2023-11-08_19h35.59.776,vowel_harmony,2023.2.3,MacIntel,66.66666667,115.22,116.219,,,,,,,,,,,,,,,,,,,,,,,,,,116.219,116.687,m,1,0.443,,116.687,116.687,,0,23,23,138,1,139,kardeş,1270,57.7038,1174,0.1283,6,notharmonic,1.9,word,m,,,,,,,
,,,,,,,,,,,Ege,001,2023-11-08_19h35.59.776,vowel_harmony,2023.2.3,MacIntel,66.66666667,116.687,117.687,,,,,,,,,,,,,,,,,,,,,,,,,,117.687,118.305,z,1,0.596,,118.305,118.305,,0,24,24,233,1,234,devpi,,,,,5,harmonic,1.8,nw,z,,,,,,,
,,,,,,,,,,,Ege,001,2023-11-08_19h35.59.776,vowel_harmony,2023.2.3,MacIntel,66.66666667,118.305,119.305,,,,,,,,,,,,,,,,,,,,,,,,,,119.305,119.939,m,1,0.611,,119.939,119.939,,0,25,25,96,1,97,dahil,3189,144.8955,3060,0.3345,5,notharmonic,1.7,word,m,,,,,,,
,,,,,,,,,,,Ege,001,2023-11-08_19h35.59.776,vowel_harmony,2023.2.3,MacIntel,66.66666667,119.939,120.939,,,,,,,,,,,,,,,,,,,,,,,,,,120.939,121.489,m,1,0.53,,121.489,121.489,,0,26,26,152,1,153,tedavi,1865,84.7382,1597,0.1746,6,notharmonic,1.8,word,m,,,,,,,
,,,,,,,,,,,Ege,001,2023-11-08_19h35.59.776,vowel_harmony,2023.2.3,MacIntel,66.66666667,121.489,122.49,,,,,,,,,,,,,,,,,,,,,,,,,,122.49,123.007,m,1,0.494,,123.007,123.007,,0,27,27,111,1,112,kahve,2634,119.6785,2283,0.2496,5,notharmonic,1.85,word,m,,,,,,,
,,,,,,,,,,,Ege,001,2023-11-08_19h35.59.776,vowel_harmony,2023.2.3,MacIntel,66.66666667,123.007,124.008,,,,,,,,,,,,,,,,,,,,,,,,,,124.008,124.641,m,1,0.611,,124.641,124.641,,0,28,28,89,1,90,etki,1234,56.0681,1169,0.1278,4,harmonic,1.4,word,m,,,,,,,
,,,,,,,,,,,Ege,001,2023-11-08_19h35.59.776,vowel_harmony,2023.2.3,MacIntel,66.66666667,124.642,125.641,,,,,,,,,,,,,,,,,,,,,,,,,,125.641,126.209,m,1,0.545,,126.209,126.209,,0,29,29,179,1,180,dakika,5891,267.6637,5207,0.5692,6,notharmonic,1.75,word,m,,,,,,,
,,,,,,,,,,,Ege,001,2023-11-08_19h35.59.776,vowel_harmony,2023.2.3,MacIntel,66.66666667,126.209,127.209,,,,,,,,,,,,,,,,,,,,,,,,,,127.209,127.609,m,0,0.374,,127.609,127.609,,0,30,30,226,1,227,tefem,,,,,5,harmonic,1.75,nw,z,,,,,,,
,,,,,,,,,,,Ege,001,2023-11-08_19h35.59.776,vowel_harmony,2023.2.3,MacIntel,66.66666667,127.609,128.609,,,,,,,,,,,,,,,,,,,,,,,,,,128.609,129.076,m,1,0.444,,129.076,129.076,,0,31,31,70,1,71,yarın,3440,156.3,3222,0.3522,5,harmonic,1.85,word,m,,,,,,,
,,,,,,,,,,,Ege,001,2023-11-08_19h35.59.776,vowel_harmony,2023.2.3,MacIntel,66.66666667,129.077,130.076,,,,,,,,,,,,,,,,,,,,,,,,,,130.076,130.71,z,1,0.612,,130.71,130.711,,0,32,32,282,1,283,taöz,,,,,4,notharmonic,1.9,nw,z,,,,,,,
,,,,,,,,,,,Ege,001,2023-11-08_19h35.59.776,vowel_harmony,2023.2.3,MacIntel,66.66666667,130.711,131.711,,,,,,,,,,,,,,,,,,,,,,,,,,131.711,132.211,m,1,0.478,,132.211,132.211,,0,33,33,120,1,121,ihmal,1002,45.5269,977,0.1068,5,notharmonic,1.65,word,m,,,,,,,
,,,,,,,,,,,Ege,001,2023-11-08_19h35.59.776,vowel_harmony,2023.2.3,MacIntel,66.66666667,132.211,133.211,,,,,,,,,,,,,,,,,,,,,,,,,,133.211,133.895,m,1,0.658,,133.895,133.895,,0,34,34,16,1,17,yavaş,5087,231.1331,2886,0.3155,5,harmonic,1.6,word,m,,,,,,,
,,,,,,,,,,,Ege,001,2023-11-08_19h35.59.776,vowel_harmony,2023.2.3,MacIntel,66.66666667,133.895,134.896,,,,,,,,,,,,,,,,,,,,,,,,,,134.896,135.562,m,1,0.646,,135.562,135.562,,0,35,35,168,1,169,kilo,3389,153.9827,2646,0.2893,4,notharmonic,1.65,word,m,,,,,,,
,,,,,,,,,,,Ege,001,2023-11-08_19h35.59.776,vowel_harmony,2023.2.3,MacIntel,66.66666667,135.562,136.564,,,,,,,,,,,,,,,,,,,,,,,,,,136.564,137.197,z,1,0.608,,137.197,137.197,,0,36,36,231,1,232,norgun,,,,,6,harmonic,1.75,nw,z,,,,,,,
,,,,,,,,,,,Ege,001,2023-11-08_19h35.59.776,vowel_harmony,2023.2.3,MacIntel,66.66666667,137.198,138.197,,,,,,,,,,,,,,,,,,,,,,,,,,138.198,138.831,z,1,0.611,,138.831,138.831,,0,37,37,343,1,344,tarne,,,,,5,notharmonic,1.85,nw,z,,,,,,,
,,,,,,,,,,,Ege,001,2023-11-08_19h35.59.776,vowel_harmony,2023.2.3,MacIntel,66.66666667,138.832,139.83,,,,,,,,,,,,,,,,,,,,,,,,,,139.83,140.481,z,0,0.628,,140.481,140.482,,0,38,38,6,1,7,hayal,4498,204.3713,4079,0.4459,5,harmonic,1.45,word,m,,,,,,,
,,,,,,,,,,,Ege,001,2023-11-08_19h35.59.776,vowel_harmony,2023.2.3,MacIntel,66.66666667,140.482,141.482,,,,,,,,,,,,,,,,,,,,,,,,,,141.482,141.832,z,0,0.324,,141.832,141.833,,0,39,39,26,1,27,sebze,1094,49.707,961,0.1051,5,harmonic,1.9,word,m,,,,,,,
,,,,,,,,,,,Ege,001,2023-11-08_19h35.59.776,vowel_harmony,2023.2.3,MacIntel,66.66666667,141.833,142.832,,,,,,,,,,,,,,,,,,,,,,,,,,142.832,143.783,m,1,0.93,,143.783,143.784,,0,40,40,23,1,24,kurum,986,44.7999,882,0.0964,5,harmonic,1.75,word,m,,,,,,,
,,,,,,,,,,,Ege,001,2023-11-08_19h35.59.776,vowel_harmony,2023.2.3,MacIntel,66.66666667,143.784,144.783,,,,,,,,,,,,,,,,,,,,,,,,,,144.783,145.983,m,1,1.181,,145.983,145.983,,0,41,41,165,1,166,gazete,1402,63.7013,1270,0.1388,6,notharmonic,1.8,word,m,,,,,,,
,,,,,,,,,,,Ege,001,2023-11-08_19h35.59.776,vowel_harmony,2023.2.3,MacIntel,66.66666667,145.984,146.985,,,,,,,,,,,,,,,,,,,,,,,,,,146.985,147.718,z,1,0.715,,147.718,147.718,,0,42,42,329,1,330,taif,,,,,4,notharmonic,1.8,nw,z,,,,,,,
,,,,,,,,,,,Ege,001,2023-11-08_19h35.59.776,vowel_harmony,2023.2.3,MacIntel,66.66666667,147.718,148.719,,,,,,,,,,,,,,,,,,,,,,,,,,148.719,149.353,m,1,0.611,,149.353,149.353,,0,43,43,71,1,72,örnek,3463,157.345,3266,0.357,5,harmonic,1.85,word,m,,,,,,,
,,,,,,,,,,,Ege,001,2023-11-08_19h35.59.776,vowel_harmony,2023.2.3,MacIntel,66.66666667,149.353,150.353,,,,,,,,,,,,,,,,,,,,,,,,,,150.353,150.986,m,1,0.612,,150.986,150.986,,0,44,44,156,1,157,medya,1784,81.0579,1495,0.1634,5,notharmonic,1.35,word,m,,,,,,,
,,,,,,,,,,,Ege,001,2023-11-08_19h35.59.776,vowel_harmony,2023.2.3,MacIntel,66.66666667,150.986,151.986,,,,,,,,,,,,,,,,,,,,,,,,,,151.986,152.72,z,1,0.715,,152.72,152.72,,0,45,45,205,1,206,kahay,,,,,5,harmonic,1.9,nw,z,,,,,,,
,,,,,,,,,,,Ege,001,2023-11-08_19h35.59.776,vowel_harmony,2023.2.3,MacIntel,66.66666667,152.721,153.722,,,,,,,,,,,,,,,,,,,,,,,,,,153.722,154.421,m,1,0.673,,154.421,154.421,,0,46,46,132,1,133,modern,2326,105.6842,2031,0.222,6,notharmonic,1.85,word,m,,,,,,,
,,,,,,,,,,,Ege,001,2023-11-08_19h35.59.776,vowel_harmony,2023.2.3,MacIntel,66.66666667,154.421,155.422,,,,,,,,,,,,,,,,,,,,,,,,,,155.422,156.006,m,1,0.56,,156.006,156.006,,0,47,47,143,1,144,kitap,8359,379.7998,6786,0.7418,5,notharmonic,1.9,word,m,,,,,,,
,,,,,,,,,,,Ege,001,2023-11-08_19h35.59.776,vowel_harmony,2023.2.3,MacIntel,66.66666667,156.006,157.006,,,,,,,,,,,,,,,,,,,,,,,,,,157.006,157.472,m,1,0.446,,157.472,157.472,,0,48,48,7,1,8,hizmet,3023,137.3531,2689,0.294,6,harmonic,1.75,word,m,,,,,,,
,,,,,,,,,,,Ege,001,2023-11-08_19h35.59.776,vowel_harmony,2023.2.3,MacIntel,66.66666667,157.472,158.473,,,,,,,,,,,,,,,,,,,,,,,,,,158.473,158.957,m,0,0.464,,158.957,158.957,,0,49,49,292,1,293,kinam,,,,,5,notharmonic,1.85,nw,z,,,,,,,
,,,,,,,,,,,Ege,001,2023-11-08_19h35.59.776,vowel_harmony,2023.2.3,MacIntel,66.66666667,158.958,159.958,,,,,,,,,,,,,,,,,,,,,,,,,,159.958,160.508,m,1,0.532,,160.508,160.508,,0,50,50,173,1,174,sade,1193,54.2052,1114,0.1218,4,notharmonic,1.55,word,m,,,,,,,
,,,,,,,,,,,Ege,001,2023-11-08_19h35.59.776,vowel_harmony,2023.2.3,MacIntel,66.66666667,160.508,161.508,,,,,,,,,,,,,,,,,,,,,,,,,,161.508,161.992,m,1,0.463,,161.992,161.992,,0,51,51,128,1,129,tatil,2152,97.7783,1865,0.2039,5,notharmonic,1.7,word,m,,,,,,,
,,,,,,,,,,,Ege,001,2023-11-08_19h35.59.776,vowel_harmony,2023.2.3,MacIntel,66.66666667,161.992,162.992,,,,,,,,,,,,,,,,,,,,,,,,,,162.992,163.509,m,1,0.492,,163.509,163.509,,0,52,52,146,1,147,mavi,2206,100.2319,1934,0.2114,4,notharmonic,1.45,word,m,,,,,,,
,,,,,,,,,,,Ege,001,2023-11-08_19h35.59.776,vowel_harmony,2023.2.3,MacIntel,66.66666667,163.509,164.509,,,,,,,,,,,,,,,,,,,,,,,,,,164.509,165.043,m,1,0.512,,165.043,165.043,,0,53,53,49,1,50,şeker,4708,213.9128,4170,0.4559,5,harmonic,1.6,word,m,,,,,,,
,,,,,,,,,,,Ege,001,2023-11-08_19h35.59.776,vowel_harmony,2023.2.3,MacIntel,66.66666667,165.043,166.044,,,,,,,,,,,,,,,,,,,,,,,,,,166.044,166.561,m,1,0.494,,166.561,166.561,,0,54,54,28,1,29,parlak,1142,51.888,1088,0.1189,6,harmonic,1.7,word,m,,,,,,,
,,,,,,,,,,,Ege,001,2023-11-08_19h35.59.776,vowel_harmony,2023.2.3,MacIntel,66.66666667,166.561,167.561,,,,,,,,,,,,,,,,,,,,,,,,,,167.561,168.077,m,1,0.499,,168.077,168.077,,0,55,55,54,1,55,yedek,825,37.4847,732,0.08,5,harmonic,1.65,word,m,,,,,,,
,,,,,,,,,,,Ege,001,2023-11-08_19h35.59.776,vowel_harmony,2023.2.3,MacIntel,66.66666667,168.078,169.079,,,,,,,,,,,,,,,,,,,,,,,,,,169.079,169.729,z,1,0.633,,169.729,169.729,,0,56,56,211,1,212,yarum,,,,,5,harmonic,1.75,nw,z,,,,,,,
,,,,,,,,,,,Ege,001,2023-11-08_19h35.59.776,vowel_harmony,2023.2.3,MacIntel,66.66666667,169.73,170.73,,,,,,,,,,,,,,,,,,,,,,,,,,170.73,171.462,z,1,0.714,,171.462,171.462,,0,57,57,303,1,304,fisor,,,,,5,notharmonic,1.9,nw,z,,,,,,,
,,,,,,,,,,,Ege,001,2023-11-08_19h35.59.776,vowel_harmony,2023.2.3,MacIntel,66.66666667,171.462,172.463,,,,,,,,,,,,,,,,,,,,,,,,,,172.463,173.097,z,1,0.611,,173.097,173.097,,0,58,58,300,1,301,nilgi,,,,,5,notharmonic,1.85,nw,z,,,,,,,
,,,,,,,,,,,Ege,001,2023-11-08_19h35.59.776,vowel_harmony,2023.2.3,MacIntel,66.66666667,173.098,174.097,,,,,,,,,,,,,,,,,,,,,,,,,,174.097,174.864,m,0,0.748,,174.864,174.864,,0,59,59,355,1,356,adül,,,,,4,notharmonic,1.85,nw,z,,,,,,,
,,,,,,,,,,,Ege,001,2023-11-08_19h35.59.776,vowel_harmony,2023.2.3,MacIntel,66.66666667,174.864,175.865,,,,,,,,,,,,,,,,,,,,,,,,,,175.865,176.599,z,1,0.713,,176.599,176.599,,0,60,60,296,1,297,işban,,,,,5,notharmonic,1.95,nw,z,,,,,,,
,,,,,,,,,,,Ege,001,2023-11-08_19h35.59.776,vowel_harmony,2023.2.3,MacIntel,66.66666667,176.599,177.599,,,,,,,,,,,,,,,,,,,,,,,,,,177.599,178.233,m,1,0.612,,178.233,178.233,,0,61,61,42,1,43,ürün,2268,103.0489,1954,0.2136,4,harmonic,1.1,word,m,,,,,,,
,,,,,,,,,,,Ege,001,2023-11-08_19h35.59.776,vowel_harmony,2023.2.3,MacIntel,66.66666667,178.233,179.233,,,,,,,,,,,,,,,,,,,,,,,,,,179.233,179.867,z,1,0.615,,179.867,179.868,,0,62,62,328,1,329,kirul,,,,,5,notharmonic,1.95,nw,z,,,,,,,
,,,,,,,,,,,Ege,001,2023-11-08_19h35.59.776,vowel_harmony,2023.2.3,MacIntel,66.66666667,179.868,180.868,,,,,,,,,,,,,,,,,,,,,,,,,,180.868,181.435,m,1,0.546,,181.435,181.435,,0,63,63,15,1,16,hayat,7922,359.9443,7314,0.7996,5,harmonic,1.9,word,m,,,,,,,
,,,,,,,,,,,Ege,001,2023-11-08_19h35.59.776,vowel_harmony,2023.2.3,MacIntel,66.66666667,181.435,182.435,,,,,,,,,,,,,,,,,,,,,,,,,,182.435,183.251,z,1,0.795,,183.251,183.252,,0,64,64,301,1,302,mezak,,,,,5,notharmonic,1.8,nw,z,,,,,,,
,,,,,,,,,,,Ege,001,2023-11-08_19h35.59.776,vowel_harmony,2023.2.3,MacIntel,66.66666667,183.252,184.253,,,,,,,,,,,,,,,,,,,,,,,,,,184.253,184.819,z,1,0.545,,184.819,184.819,,0,65,65,219,1,220,barlum,,,,,6,harmonic,1.9,nw,z,,,,,,,
,,,,,,,,,,,Ege,001,2023-11-08_19h35.59.776,vowel_harmony,2023.2.3,MacIntel,66.66666667,184.819,185.82,,,,,,,,,,,,,,,,,,,,,,,,,,185.82,186.853,m,1,1.013,,186.853,186.853,,0,66,66,159,1,160,vakit,3476,157.9357,3298,0.3605,5,notharmonic,1.65,word,m,,,,,,,
,,,,,,,,,,,Ege,001,2023-11-08_19h35.59.776,vowel_harmony,2023.2.3,MacIntel,66.66666667,186.854,187.854,,,,,,,,,,,,,,,,,,,,,,,,,,187.855,188.604,z,1,0.726,,188.604,188.604,,0,67,67,333,1,334,heyran,,,,,6,notharmonic,1.85,nw,z,,,,,,,
,,,,,,,,,,,Ege,001,2023-11-08_19h35.59.776,vowel_harmony,2023.2.3,MacIntel,66.66666667,188.604,189.605,,,,,,,,,,,,,,,,,,,,,,,,,,189.605,190.171,z,0,0.546,,190.171,190.171,,0,68,68,155,1,156,ilaç,1366,62.0656,1215,0.1328,4,notharmonic,1.75,word,m,,,,,,,
,,,,,,,,,,,Ege,001,2023-11-08_19h35.59.776,vowel_harmony,2023.2.3,MacIntel,66.66666667,190.171,191.173,,,,,,,,,,,,,,,,,,,,,,,,,,191.173,191.706,m,1,0.509,,191.706,191.706,,0,69,69,122,1,123,devam,17666,802.673,16284,1.7802,5,notharmonic,1.55,word,m,,,,,,,
,,,,,,,,,,,Ege,001,2023-11-08_19h35.59.776,vowel_harmony,2023.2.3,MacIntel,66.66666667,191.707,192.706,,,,,,,,,,,,,,,,,,,,,,,,,,192.707,193.239,m,1,0.511,,193.239,193.239,,0,70,70,108,1,109,tarih,2806,127.4935,2483,0.2714,5,notharmonic,1.55,word,m,,,,,,,
,,,,,,,,,,,Ege,001,2023-11-08_19h35.59.776,vowel_harmony,2023.2.3,MacIntel,66.66666667,193.24,194.24,,,,,,,,,,,,,,,,,,,,,,,,,,194.24,194.807,m,1,0.549,,194.807,194.807,,0,71,71,127,1,128,şahane,1153,52.3877,1108,0.1211,6,notharmonic,1.8,word,m,,,,,,,
,,,,,,,,,,,Ege,001,2023-11-08_19h35.59.776,vowel_harmony,2023.2.3,MacIntel,66.66666667,194.807,195.808,,,,,,,,,,,,,,,,,,,,,,,,,,195.808,196.792,m,1,0.962,,196.792,196.792,,0,72,72,147,1,148,işaret,1888,85.7832,1787,0.1954,6,notharmonic,1,word,m,,,,,,,
,,,,,,,,,,,Ege,001,2023-11-08_19h35.59.776,vowel_harmony,2023.2.3,MacIntel,66.66666667,196.792,197.792,,,,,,,,,,,,,,,,,,,,,,,,,,197.792,198.576,z,1,0.762,,198.576,198.576,,0,73,73,197,1,198,ranar,,,,,5,harmonic,1.75,nw,z,,,,,,,
,,,,,,,,,,,Ege,001,2023-11-08_19h35.59.776,vowel_harmony,2023.2.3,MacIntel,66.66666667,198.576,199.575,,,,,,,,,,,,,,,,,,,,,,,,,,199.575,200.309,z,1,0.715,,200.309,200.309,,0,74,74,264,1,265,vepü,,,,,4,harmonic,2,nw,z,,,,,,,
,,,,,,,,,,,Ege,001,2023-11-08_19h35.59.776,vowel_harmony,2023.2.3,MacIntel,66.66666667,200.31,201.311,,,,,,,,,,,,,,,,,,,,,,,,,,201.311,202.228,m,1,0.892,,202.228,202.228,,0,75,75,162,1,163,hariç,1267,57.5675,1233,0.1348,5,notharmonic,1.75,word,m,,,,,,,
,,,,,,,,,,,Ege,001,2023-11-08_19h35.59.776,vowel_harmony,2023.2.3,MacIntel,66.66666667,202.228,203.227,,,,,,,,,,,,,,,,,,,,,,,,,,203.227,204.228,z,1,0.98,,204.228,204.228,,0,76,76,297,1,298,sapet,,,,,5,notharmonic,1.85,nw,z,,,,,,,
,,,,,,,,,,,Ege,001,2023-11-08_19h35.59.776,vowel_harmony,2023.2.3,MacIntel,66.66666667,204.229,205.229,,,,,,,,,,,,,,,,,,,,,,,,,,205.229,206.03,m,1,0.78,,206.03,206.03,,0,77,77,175,1,176,aile,3655,166.0687,3126,0.3417,4,notharmonic,1,word,m,,,,,,,
,,,,,,,,,,,Ege,001,2023-11-08_19h35.59.776,vowel_harmony,2023.2.3,MacIntel,66.66666667,206.03,207.03,,,,,,,,,,,,,,,,,,,,,,,,,,207.03,207.813,z,1,0.763,,207.813,207.813,,0,78,78,183,1,184,orkın,,,,,5,harmonic,1.9,nw,z,,,,,,,
,,,,,,,,,,,Ege,001,2023-11-08_19h35.59.776,vowel_harmony,2023.2.3,MacIntel,66.66666667,207.813,208.814,,,,,,,,,,,,,,,,,,,,,,,,,,208.814,210.13,z,1,1.298,,210.13,210.13,,0,79,79,184,1,185,yapor,,,,,5,harmonic,1.9,nw,z,,,,,,,
,,,,,,,,,,,Ege,001,2023-11-08_19h35.59.776,vowel_harmony,2023.2.3,MacIntel,66.66666667,210.131,211.132,,,,,,,,,,,,,,,,,,,,,,,,,,211.132,212.332,m,0,1.178,,212.332,212.332,,0,80,80,256,1,257,yaruza,,,,,6,harmonic,1.9,nw,z,,,,,,,
,,,,,,,,,,,Ege,001,2023-11-08_19h35.59.776,vowel_harmony,2023.2.3,MacIntel,66.66666667,212.332,213.333,,,,,,,,,,,,,,,,,,,,,,,,,,213.34,214.052,z,1,0.69,,214.052,214.052,,0,81,81,255,1,256,yokın,,,,,5,harmonic,1.85,nw,z,,,,,,,
,,,,,,,,,,,Ege,001,2023-11-08_19h35.59.776,vowel_harmony,2023.2.3,MacIntel,66.66666667,214.053,215.05,,,,,,,,,,,,,,,,,,,,,,,,,,215.05,215.633,m,1,0.56,,215.633,215.633,,0,82,82,62,1,63,cümle,1911,86.8283,1765,0.193,5,harmonic,1.85,word,m,,,,,,,
,,,,,,,,,,,Ege,001,2023-11-08_19h35.59.776,vowel_harmony,2023.2.3,MacIntel,66.66666667,215.633,216.633,,,,,,,,,,,,,,,,,,,,,,,,,,216.634,217.267,z,1,0.616,,217.267,217.268,,0,83,83,232,1,233,kanur,,,,,5,harmonic,1.7,nw,z,,,,,,,
,,,,,,,,,,,Ege,001,2023-11-08_19h35.59.776,vowel_harmony,2023.2.3,MacIntel,66.66666667,217.268,218.268,,,,,,,,,,,,,,,,,,,,,,,,,,218.268,219.002,z,1,0.712,,219.002,219.002,,0,84,84,351,1,352,seğlık,,,,,6,notharmonic,1.9,nw,z,,,,,,,
,,,,,,,,,,,Ege,001,2023-11-08_19h35.59.776,vowel_harmony,2023.2.3,MacIntel,66.66666667,219.002,220.003,,,,,,,,,,,,,,,,,,,,,,,,,,220.003,221.07,m,1,1.045,,221.07,221.07,,0,85,85,3,1,4,minik,2916,132.4915,2594,0.2836,5,harmonic,1.6,word,m,,,,,,,
,,,,,,,,,,,Ege,001,2023-11-08_19h35.59.776,vowel_harmony,2023.2.3,MacIntel,66.66666667,221.07,222.07,,,,,,,,,,,,,,,,,,,,,,,,,,222.07,222.72,z,1,0.63,,222.72,222.72,,0,86,86,190,1,191,reklen,,,,,6,harmonic,1.8,nw,z,,,,,,,
,,,,,,,,,,,Ege,001,2023-11-08_19h35.59.776,vowel_harmony,2023.2.3,MacIntel,66.66666667,222.72,223.721,,,,,,,,,,,,,,,,,,,,,,,,,,223.721,224.487,z,1,0.745,,224.487,224.487,,0,87,87,240,1,241,hoga,,,,,4,harmonic,1.75,nw,z,,,,,,,
,,,,,,,,,,,Ege,001,2023-11-08_19h35.59.776,vowel_harmony,2023.2.3,MacIntel,66.66666667,224.488,225.488,,,,,,,,,,,,,,,,,,,,,,,,,,225.488,226.155,m,1,0.631,,226.155,226.155,,0,88,88,66,1,67,sanık,768,34.8949,699,0.0764,5,harmonic,1.85,word,m,,,,,,,
,,,,,,,,,,,Ege,001,2023-11-08_19h35.59.776,vowel_harmony,2023.2.3,MacIntel,66.66666667,226.155,227.156,,,,,,,,,,,,,,,,,,,,,,,,,,227.156,228.306,m,1,1.129,,228.307,228.307,,0,89,89,2,1,3,radyo,763,34.6677,636,0.0695,5,harmonic,1.85,word,m,,,,,,,
,,,,,,,,,,,Ege,001,2023-11-08_19h35.59.776,vowel_harmony,2023.2.3,MacIntel,66.66666667,228.307,229.299,,,,,,,,,,,,,,,,,,,,,,,,,,229.299,230.077,m,1,0.738,,230.077,230.078,,0,90,90,64,1,65,lise,888,40.3472,816,0.0892,4,harmonic,1.5,word,m,,,,,,,
,,,,,,,,,,,Ege,001,2023-11-08_19h35.59.776,vowel_harmony,2023.2.3,MacIntel,66.66666667,230.078,231.096,,,,,,,,,,,,,,,,,,,,,,,,,,231.096,232.041,z,1,0.919,,232.041,232.041,,0,91,91,278,1,279,sekon,,,,,5,notharmonic,1.85,nw,z,,,,,,,
,,,,,,,,,,,Ege,001,2023-11-08_19h35.59.776,vowel_harmony,2023.2.3,MacIntel,66.66666667,232.041,233.04,,,,,,,,,,,,,,,,,,,,,,,,,,233.04,233.654,m,1,0.59,,233.654,233.654,,0,92,92,130,1,131,hamile,1075,48.8437,877,0.0959,6,notharmonic,1.5,word,m,,,,,,,
,,,,,,,,,,,Ege,001,2023-11-08_19h35.59.776,vowel_harmony,2023.2.3,MacIntel,66.66666667,233.654,234.645,,,,,,,,,,,,,,,,,,,,,,,,,,234.645,235.409,m,1,0.744,,235.409,235.409,,0,93,93,93,1,94,siyah,2944,133.7637,2527,0.2763,5,notharmonic,1.6,word,m,,,,,,,
,,,,,,,,,,,Ege,001,2023-11-08_19h35.59.776,vowel_harmony,2023.2.3,MacIntel,66.66666667,235.41,236.41,,,,,,,,,,,,,,,,,,,,,,,,,,236.41,237.227,z,0,0.799,,237.227,237.227,,0,94,94,12,1,13,konu,5400,245.3546,5110,0.5586,4,harmonic,1,word,m,,,,,,,
,,,,,,,,,,,Ege,001,2023-11-08_19h35.59.776,vowel_harmony,2023.2.3,MacIntel,66.66666667,237.228,238.227,,,,,,,,,,,,,,,,,,,,,,,,,,238.227,239.562,z,1,1.308,,239.562,239.562,,0,95,95,315,1,316,takep,,,,,5,notharmonic,1.85,nw,z,,,,,,,
,,,,,,,,,,,Ege,001,2023-11-08_19h35.59.776,vowel_harmony,2023.2.3,MacIntel,66.66666667,239.562,240.562,,,,,,,,,,,,,,,,,,,,,,,,,,240.562,241.218,z,1,0.634,,241.218,241.218,,0,96,96,356,1,357,mergun,,,,,6,notharmonic,1.95,nw,z,,,,,,,
,,,,,,,,,,,Ege,001,2023-11-08_19h35.59.776,vowel_harmony,2023.2.3,MacIntel,66.66666667,241.219,242.213,,,,,,,,,,,,,,,,,,,,,,,,,,242.213,243.014,m,1,0.78,,243.014,243.014,,0,97,97,142,1,143,siyasi,2909,132.1734,2445,0.2673,6,notharmonic,1.8,word,m,,,,,,,
,,,,,,,,,,,Ege,001,2023-11-08_19h35.59.776,vowel_harmony,2023.2.3,MacIntel,66.66666667,243.014,244.014,,,,,,,,,,,,,,,,,,,,,,,,,,244.014,244.613,m,1,0.578,,244.613,244.613,,0,98,98,78,1,79,ulusal,1551,70.4713,1355,0.1481,6,harmonic,1.75,word,m,,,,,,,
,,,,,,,,,,,Ege,001,2023-11-08_19h35.59.776,vowel_harmony,2023.2.3,MacIntel,66.66666667,244.614,245.614,,,,,,,,,,,,,,,,,,,,,,,,,,245.614,246.148,m,1,0.515,,246.149,246.149,,0,99,99,61,1,62,yıldız,1775,80.649,1532,0.1675,6,harmonic,1.6,word,m,,,,,,,
,,,,,,,,,,,Ege,001,2023-11-08_19h35.59.776,vowel_harmony,2023.2.3,MacIntel,66.66666667,246.149,247.149,,,,,,,,,,,,,,,,,,,,,,,,,,247.149,247.832,m,1,0.663,,247.832,247.832,,0,100,100,151,1,152,ateş,2108,95.7792,1803,0.1971,4,notharmonic,1.65,word,m,,,,,,,
,,,,,,,,,,,Ege,001,2023-11-08_19h35.59.776,vowel_harmony,2023.2.3,MacIntel,66.66666667,247.832,248.832,,,,,,,,,,,,,,,,,,,,,,,,,,248.832,249.517,z,1,0.664,,249.517,249.517,,0,101,101,222,1,223,gelü,,,,,4,harmonic,1.75,nw,z,,,,,,,
,,,,,,,,,,,Ege,001,2023-11-08_19h35.59.776,vowel_harmony,2023.2.3,MacIntel,66.66666667,249.517,250.517,,,,,,,,,,,,,,,,,,,,,,,,,,250.517,251.051,z,1,0.513,,251.051,251.051,,0,102,102,221,1,222,yaypın,,,,,6,harmonic,1.75,nw,z,,,,,,,
,,,,,,,,,,,Ege,001,2023-11-08_19h35.59.776,vowel_harmony,2023.2.3,MacIntel,66.66666667,251.051,252.051,,,,,,,,,,,,,,,,,,,,,,,,,,252.051,252.835,z,1,0.762,,252.835,252.835,,0,103,103,225,1,226,düvem,,,,,5,harmonic,1.7,nw,z,,,,,,,
,,,,,,,,,,,Ege,001,2023-11-08_19h35.59.776,vowel_harmony,2023.2.3,MacIntel,66.66666667,252.835,253.835,,,,,,,,,,,,,,,,,,,,,,,,,,253.835,254.451,m,1,0.595,,254.451,254.451,,0,104,104,1,1,2,erkek,6188,281.1582,5195,0.5679,5,harmonic,1.65,word,m,,,,,,,
,,,,,,,,,,,Ege,001,2023-11-08_19h35.59.776,vowel_harmony,2023.2.3,MacIntel,66.66666667,254.452,255.453,,,,,,,,,,,,,,,,,,,,,,,,,,255.453,256.17,m,1,0.692,,256.17,256.17,,0,105,105,136,1,137,beyaz,5517,250.6706,4788,0.5234,5,notharmonic,1.85,word,m,,,,,,,
,,,,,,,,,,,Ege,001,2023-11-08_19h35.59.776,vowel_harmony,2023.2.3,MacIntel,66.66666667,256.17,257.17,,,,,,,,,,,,,,,,,,,,,,,,,,257.17,257.988,m,1,0.797,,257.988,257.988,,0,106,106,27,1,28,bölge,1283,58.2944,1123,0.1228,5,harmonic,1.65,word,m,,,,,,,
,,,,,,,,,,,Ege,001,2023-11-08_19h35.59.776,vowel_harmony,2023.2.3,MacIntel,66.66666667,257.988,258.988,,,,,,,,,,,,,,,,,,,,,,,,,,258.988,259.837,m,1,0.829,,259.837,259.837,,0,107,107,99,1,100,ilave,3173,144.1685,2619,0.2863,5,notharmonic,1.85,word,m,,,,,,,
,,,,,,,,,,,Ege,001,2023-11-08_19h35.59.776,vowel_harmony,2023.2.3,MacIntel,66.66666667,259.837,260.838,,,,,,,,,,,,,,,,,,,,,,,,,,260.838,261.739,m,1,0.883,,261.739,261.739,,0,108,108,110,1,111,rüya,1062,48.2531,937,0.1024,4,notharmonic,1.75,word,m,,,,,,,
,,,,,,,,,,,Ege,001,2023-11-08_19h35.59.776,vowel_harmony,2023.2.3,MacIntel,66.66666667,261.739,262.74,,,,,,,,,,,,,,,,,,,,,,,,,,262.74,263.464,m,1,0.702,,263.464,263.466,,0,109,109,137,1,138,parti,2613,118.7244,2059,0.2251,5,notharmonic,1.8,word,m,,,,,,,
,,,,,,,,,,,Ege,001,2023-11-08_19h35.59.776,vowel_harmony,2023.2.3,MacIntel,66.66666667,263.466,264.456,,,,,,,,,,,,,,,,,,,,,,,,,,264.456,265.34,m,1,0.859,,265.34,265.34,,0,110,110,116,1,117,daire,621,28.2158,503,0.055,5,notharmonic,1,word,m,,,,,,,
,,,,,,,,,,,Ege,001,2023-11-08_19h35.59.776,vowel_harmony,2023.2.3,MacIntel,66.66666667,265.34,266.341,,,,,,,,,,,,,,,,,,,,,,,,,,266.341,267.008,z,1,0.648,,267.008,267.008,,0,111,111,191,1,192,doab,,,,,4,harmonic,2,nw,z,,,,,,,
,,,,,,,,,,,Ege,001,2023-11-08_19h35.59.776,vowel_harmony,2023.2.3,MacIntel,66.66666667,267.008,268.009,,,,,,,,,,,,,,,,,,,,,,,,,,268.009,268.692,m,1,0.661,,268.692,268.692,,0,112,112,171,1,172,reklam,1565,71.1074,1244,0.136,6,notharmonic,1.9,word,m,,,,,,,
,,,,,,,,,,,Ege,001,2023-11-08_19h35.59.776,vowel_harmony,2023.2.3,MacIntel,66.66666667,268.692,269.693,,,,,,,,,,,,,,,,,,,,,,,,,,269.693,270.293,m,1,0.58,,270.293,270.293,,0,113,113,56,1,57,sağlam,1818,82.6027,1720,0.188,6,harmonic,1.6,word,m,,,,,,,
,,,,,,,,,,,Ege,001,2023-11-08_19h35.59.776,vowel_harmony,2023.2.3,MacIntel,66.66666667,270.294,271.293,,,,,,,,,,,,,,,,,,,,,,,,,,271.293,271.927,z,1,0.613,,271.927,271.927,,0,114,114,325,1,326,garit,,,,,5,notharmonic,1.85,nw,z,,,,,,,
,,,,,,,,,,,Ege,001,2023-11-08_19h35.59.776,vowel_harmony,2023.2.3,MacIntel,66.66666667,271.927,272.928,,,,,,,,,,,,,,,,,,,,,,,,,,272.928,273.544,m,1,0.593,,273.544,273.544,,0,115,115,112,1,113,sezon,2315,105.1844,1917,0.2096,5,notharmonic,1.8,word,m,,,,,,,
,,,,,,,,,,,Ege,001,2023-11-08_19h35.59.776,vowel_harmony,2023.2.3,MacIntel,66.66666667,273.545,274.544,,,,,,,,,,,,,,,,,,,,,,,,,,274.544,275.195,m,1,0.632,,275.195,275.195,,0,116,116,158,1,159,klasik,1871,85.0108,1734,0.1896,6,notharmonic,2,word,m,,,,,,,
,,,,,,,,,,,Ege,001,2023-11-08_19h35.59.776,vowel_harmony,2023.2.3,MacIntel,66.66666667,275.195,276.195,,,,,,,,,,,,,,,,,,,,,,,,,,276.195,276.845,z,1,0.625,,276.845,276.845,,0,117,117,307,1,308,merbat,,,,,6,notharmonic,1.95,nw,z,,,,,,,
,,,,,,,,,,,Ege,001,2023-11-08_19h35.59.776,vowel_harmony,2023.2.3,MacIntel,66.66666667,276.846,277.847,,,,,,,,,,,,,,,,,,,,,,,,,,277.847,278.447,z,1,0.578,,278.447,278.447,,0,118,118,341,1,342,işgan,,,,,5,notharmonic,1.95,nw,z,,,,,,,
,,,,,,,,,,,Ege,001,2023-11-08_19h35.59.776,vowel_harmony,2023.2.3,MacIntel,66.66666667,278.448,279.448,,,,,,,,,,,,,,,,,,,,,,,,,,279.448,280.148,z,1,0.68,,280.148,280.149,,0,119,119,311,1,312,dedya,,,,,5,notharmonic,1.9,nw,z,,,,,,,
,,,,,,,,,,,Ege,001,2023-11-08_19h35.59.776,vowel_harmony,2023.2.3,MacIntel,66.66666667,280.149,281.147,,,,,,,,,,,,,,,,,,,,,,,,,,281.147,281.915,m,1,0.746,,281.916,288.068,space,0,120,120,139,1,140,lira,1253,56.9314,947,0.1035,4,notharmonic,1.4,word,m,6.124,,,,,,
,,,,,,,,,,,Ege,001,2023-11-08_19h35.59.776,vowel_harmony,2023.2.3,MacIntel,66.66666667,288.069,289.068,,,,,,,,,,,,,,,,,,,,,,,,,,289.068,290.82,m,1,1.73,,290.82,290.82,,0,121,121,125,1,126,ikna,1276,57.9764,1173,0.1282,4,notharmonic,1.85,word,m,,,,,,,
,,,,,,,,,,,Ege,001,2023-11-08_19h35.59.776,vowel_harmony,2023.2.3,MacIntel,66.66666667,290.82,291.82,,,,,,,,,,,,,,,,,,,,,,,,,,291.82,292.72,z,1,0.88,,292.72,292.72,,0,122,122,216,1,217,çeyret,,,,,6,harmonic,1.9,nw,z,,,,,,,
,,,,,,,,,,,Ege,001,2023-11-08_19h35.59.776,vowel_harmony,2023.2.3,MacIntel,66.66666667,292.72,293.721,,,,,,,,,,,,,,,,,,,,,,,,,,293.721,294.457,m,1,0.716,,294.457,294.457,,0,123,123,14,1,15,yaşam,4348,197.5559,3918,0.4283,5,harmonic,1.4,word,m,,,,,,,
,,,,,,,,,,,Ege,001,2023-11-08_19h35.59.776,vowel_harmony,2023.2.3,MacIntel,66.66666667,294.457,295.454,,,,,,,,,,,,,,,,,,,,,,,,,,295.454,296.189,z,0,0.712,,296.189,296.189,,0,124,124,117,1,118,nasip,1069,48.5711,1042,0.1139,5,notharmonic,1.8,word,m,,,,,,,
,,,,,,,,,,,Ege,001,2023-11-08_19h35.59.776,vowel_harmony,2023.2.3,MacIntel,66.66666667,296.189,297.189,,,,,,,,,,,,,,,,,,,,,,,,,,297.189,297.873,z,1,0.666,,297.873,297.873,,0,125,125,331,1,332,ehun,,,,,4,notharmonic,1.95,nw,z,,,,,,,
,,,,,,,,,,,Ege,001,2023-11-08_19h35.59.776,vowel_harmony,2023.2.3,MacIntel,66.66666667,297.873,298.872,,,,,,,,,,,,,,,,,,,,,,,,,,298.872,299.679,z,1,0.787,,299.68,299.68,,0,126,126,235,1,236,oşup,,,,,4,harmonic,1.75,nw,z,,,,,,,
,,,,,,,,,,,Ege,001,2023-11-08_19h35.59.776,vowel_harmony,2023.2.3,MacIntel,66.66666667,299.68,300.673,,,,,,,,,,,,,,,,,,,,,,,,,,300.673,301.199,m,1,0.499,,301.199,301.199,,0,127,127,88,1,89,yalnız,5891,267.6637,5440,0.5947,6,harmonic,1.6,word,m,,,,,,,
,,,,,,,,,,,Ege,001,2023-11-08_19h35.59.776,vowel_harmony,2023.2.3,MacIntel,66.66666667,301.199,302.191,,,,,,,,,,,,,,,,,,,,,,,,,,302.191,303.176,z,1,0.961,,303.176,303.176,,0,128,128,308,1,309,hafer,,,,,5,notharmonic,1.85,nw,z,,,,,,,
,,,,,,,,,,,Ege,001,2023-11-08_19h35.59.776,vowel_harmony,2023.2.3,MacIntel,66.66666667,303.177,304.175,,,,,,,,,,,,,,,,,,,,,,,,,,304.175,305.679,z,1,1.485,,305.679,305.68,,0,129,129,193,1,194,yokın,,,,,5,harmonic,1.85,nw,z,,,,,,,
,,,,,,,,,,,Ege,001,2023-11-08_19h35.59.776,vowel_harmony,2023.2.3,MacIntel,66.66666667,305.68,306.677,,,,,,,,,,,,,,,,,,,,,,,,,,306.677,307.345,z,1,0.649,,307.345,307.345,,0,130,130,310,1,311,yandeş,,,,,6,notharmonic,1.95,nw,z,,,,,,,
,,,,,,,,,,,Ege,001,2023-11-08_19h35.59.776,vowel_harmony,2023.2.3,MacIntel,66.66666667,307.345,308.344,,,,,,,,,,,,,,,,,,,,,,,,,,308.344,308.878,z,1,0.515,,308.878,308.878,,0,131,131,195,1,196,netüm,,,,,5,harmonic,1.95,nw,z,,,,,,,
,,,,,,,,,,,Ege,001,2023-11-08_19h35.59.776,vowel_harmony,2023.2.3,MacIntel,66.66666667,308.878,309.879,,,,,,,,,,,,,,,,,,,,,,,,,,309.879,310.411,z,1,0.515,,310.411,310.412,,0,132,132,186,1,187,habık,,,,,5,harmonic,1.9,nw,z,,,,,,,
,,,,,,,,,,,Ege,001,2023-11-08_19h35.59.776,vowel_harmony,2023.2.3,MacIntel,66.66666667,310.412,311.413,,,,,,,,,,,,,,,,,,,,,,,,,,311.413,312.096,m,1,0.666,,312.096,312.096,,0,133,133,84,1,85,ülke,3121,141.8059,2801,0.3062,4,harmonic,1.65,word,m,,,,,,,
,,,,,,,,,,,Ege,001,2023-11-08_19h35.59.776,vowel_harmony,2023.2.3,MacIntel,66.66666667,312.097,313.097,,,,,,,,,,,,,,,,,,,,,,,,,,313.097,313.614,z,1,0.492,,313.614,313.614,,0,134,134,234,1,235,düzöt,,,,,5,harmonic,2.05,nw,z,,,,,,,
,,,,,,,,,,,Ege,001,2023-11-08_19h35.59.776,vowel_harmony,2023.2.3,MacIntel,66.66666667,313.615,314.614,,,,,,,,,,,,,,,,,,,,,,,,,,314.614,315.164,z,1,0.526,,315.164,315.164,,0,135,135,241,1,242,porlam,,,,,6,harmonic,2,nw,z,,,,,,,
,,,,,,,,,,,Ege,001,2023-11-08_19h35.59.776,vowel_harmony,2023.2.3,MacIntel,66.66666667,315.165,316.165,,,,,,,,,,,,,,,,,,,,,,,,,,316.165,316.882,z,1,0.695,,316.882,316.882,,0,136,136,271,1,272,mimal,,,,,5,notharmonic,1.8,nw,z,,,,,,,
,,,,,,,,,,,Ege,001,2023-11-08_19h35.59.776,vowel_harmony,2023.2.3,MacIntel,66.66666667,316.882,317.882,,,,,,,,,,,,,,,,,,,,,,,,,,317.882,318.399,z,0,0.491,,318.399,318.399,,0,137,137,79,1,80,durum,6783,308.1926,6431,0.703,5,harmonic,1.7,word,m,,,,,,,
,,,,,,,,,,,Ege,001,2023-11-08_19h35.59.776,vowel_harmony,2023.2.3,MacIntel,66.66666667,318.399,319.399,,,,,,,,,,,,,,,,,,,,,,,,,,319.399,320.2,m,1,0.781,,320.2,320.2,,0,138,138,178,1,179,dikkat,6230,283.0665,5888,0.6437,6,notharmonic,2.05,word,m,,,,,,,
,,,,,,,,,,,Ege,001,2023-11-08_19h35.59.776,vowel_harmony,2023.2.3,MacIntel,66.66666667,320.2,321.201,,,,,,,,,,,,,,,,,,,,,,,,,,321.201,321.767,z,1,0.544,,321.767,321.767,,0,139,139,306,1,307,otet,,,,,4,notharmonic,1.95,nw,z,,,,,,,
,,,,,,,,,,,Ege,001,2023-11-08_19h35.59.776,vowel_harmony,2023.2.3,MacIntel,66.66666667,321.767,322.768,,,,,,,,,,,,,,,,,,,,,,,,,,322.768,323.435,m,1,0.648,,323.435,323.435,,0,140,140,20,1,21,nefes,2871,130.4469,2553,0.2791,5,harmonic,1.8,word,m,,,,,,,
,,,,,,,,,,,Ege,001,2023-11-08_19h35.59.776,vowel_harmony,2023.2.3,MacIntel,66.66666667,323.435,324.435,,,,,,,,,,,,,,,,,,,,,,,,,,324.435,325.119,z,1,0.664,,325.119,325.12,,0,141,141,182,1,183,orsın,,,,,5,harmonic,1.95,nw,z,,,,,,,
,,,,,,,,,,,Ege,001,2023-11-08_19h35.59.776,vowel_harmony,2023.2.3,MacIntel,66.66666667,325.12,326.12,,,,,,,,,,,,,,,,,,,,,,,,,,326.12,326.87,z,1,0.729,,326.87,326.87,,0,142,142,299,1,300,fihal,,,,,5,notharmonic,1.95,nw,z,,,,,,,
,,,,,,,,,,,Ege,001,2023-11-08_19h35.59.776,vowel_harmony,2023.2.3,MacIntel,66.66666667,326.87,327.87,,,,,,,,,,,,,,,,,,,,,,,,,,327.87,328.987,m,1,1.097,,328.987,328.987,,0,143,143,160,1,161,hakem,603,27.3979,473,0.0517,5,notharmonic,1.3,word,m,,,,,,,
,,,,,,,,,,,Ege,001,2023-11-08_19h35.59.776,vowel_harmony,2023.2.3,MacIntel,66.66666667,328.987,329.987,,,,,,,,,,,,,,,,,,,,,,,,,,329.987,330.604,m,1,0.597,,330.604,330.604,,0,144,144,133,1,134,taze,2268,103.0489,2062,0.2254,4,notharmonic,1.65,word,m,,,,,,,
,,,,,,,,,,,Ege,001,2023-11-08_19h35.59.776,vowel_harmony,2023.2.3,MacIntel,66.66666667,330.605,331.606,,,,,,,,,,,,,,,,,,,,,,,,,,331.606,332.323,m,1,0.696,,332.323,332.323,,0,145,145,53,1,54,gelir,7578,344.3143,7014,0.7668,5,harmonic,1.4,word,m,,,,,,,
,,,,,,,,,,,Ege,001,2023-11-08_19h35.59.776,vowel_harmony,2023.2.3,MacIntel,66.66666667,332.323,333.322,,,,,,,,,,,,,,,,,,,,,,,,,,333.322,334.324,z,1,0.976,,334.324,334.324,,0,146,146,238,1,239,kocı,,,,,4,harmonic,1.95,nw,z,,,,,,,
,,,,,,,,,,,Ege,001,2023-11-08_19h35.59.776,vowel_harmony,2023.2.3,MacIntel,66.66666667,334.324,335.324,,,,,,,,,,,,,,,,,,,,,,,,,,335.324,336.174,m,1,0.833,,336.174,336.174,,0,147,147,36,1,37,meslek,1082,49.1618,976,0.1067,6,harmonic,1.9,word,m,,,,,,,
,,,,,,,,,,,Ege,001,2023-11-08_19h35.59.776,vowel_harmony,2023.2.3,MacIntel,66.66666667,336.174,337.174,,,,,,,,,,,,,,,,,,,,,,,,,,337.174,339.176,,0,,,339.176,339.176,,0,148,148,243,1,244,korguf,,,,,6,harmonic,2,nw,z,,,,,,,
,,,,,,,,,,,Ege,001,2023-11-08_19h35.59.776,vowel_harmony,2023.2.3,MacIntel,66.66666667,339.176,340.175,,,,,,,,,,,,,,,,,,,,,,,,,,340.175,341.326,m,0,1.132,,341.326,341.326,,0,149,149,337,1,338,bakem,,,,,5,notharmonic,1.7,nw,z,,,,,,,
,,,,,,,,,,,Ege,001,2023-11-08_19h35.59.776,vowel_harmony,2023.2.3,MacIntel,66.66666667,341.326,342.327,,,,,,,,,,,,,,,,,,,,,,,,,,342.327,342.977,z,1,0.631,,342.977,342.978,,0,150,150,198,1,199,yarbız,,,,,6,harmonic,1.95,nw,z,,,,,,,
,,,,,,,,,,,Ege,001,2023-11-08_19h35.59.776,vowel_harmony,2023.2.3,MacIntel,66.66666667,342.978,343.978,,,,,,,,,,,,,,,,,,,,,,,,,,343.978,344.627,z,1,0.621,,344.627,344.627,,0,151,151,294,1,295,mesap,,,,,5,notharmonic,1.8,nw,z,,,,,,,
,,,,,,,,,,,Ege,001,2023-11-08_19h35.59.776,vowel_harmony,2023.2.3,MacIntel,66.66666667,344.628,345.629,,,,,,,,,,,,,,,,,,,,,,,,,,345.629,346.662,z,1,1.009,,346.662,346.662,,0,152,152,338,1,339,pardön,,,,,6,notharmonic,1.95,nw,z,,,,,,,
,,,,,,,,,,,Ege,001,2023-11-08_19h35.59.776,vowel_harmony,2023.2.3,MacIntel,66.66666667,346.662,347.663,,,,,,,,,,,,,,,,,,,,,,,,,,347.663,348.196,z,1,0.515,,348.196,348.196,,0,153,153,262,1,263,sauk,,,,,4,harmonic,1.85,nw,z,,,,,,,
,,,,,,,,,,,Ege,001,2023-11-08_19h35.59.776,vowel_harmony,2023.2.3,MacIntel,66.66666667,348.196,349.196,,,,,,,,,,,,,,,,,,,,,,,,,,349.196,349.73,z,1,0.509,,349.73,349.73,,0,154,154,192,1,193,vecö,,,,,4,harmonic,1.95,nw,z,,,,,,,
,,,,,,,,,,,Ege,001,2023-11-08_19h35.59.776,vowel_harmony,2023.2.3,MacIntel,66.66666667,349.731,350.731,,,,,,,,,,,,,,,,,,,,,,,,,,350.731,351.348,m,1,0.597,,351.348,351.348,,0,155,155,167,1,168,adalet,1611,73.1975,1388,0.1517,6,notharmonic,1.65,word,m,,,,,,,
,,,,,,,,,,,Ege,001,2023-11-08_19h35.59.776,vowel_harmony,2023.2.3,MacIntel,66.66666667,351.348,352.348,,,,,,,,,,,,,,,,,,,,,,,,,,352.348,353.166,m,1,0.796,,353.166,353.166,,0,156,156,135,1,136,hafif,3355,152.4379,3101,0.339,5,notharmonic,1.75,word,m,,,,,,,
,,,,,,,,,,,Ege,001,2023-11-08_19h35.59.776,vowel_harmony,2023.2.3,MacIntel,66.66666667,353.166,354.165,,,,,,,,,,,,,,,,,,,,,,,,,,354.165,354.817,z,1,0.631,,354.817,354.817,,0,157,157,349,1,350,harten,,,,,6,notharmonic,1.85,nw,z,,,,,,,
,,,,,,,,,,,Ege,001,2023-11-08_19h35.59.776,vowel_harmony,2023.2.3,MacIntel,66.66666667,354.817,355.816,,,,,,,,,,,,,,,,,,,,,,,,,,355.817,356.6,z,1,0.763,,356.6,356.6,,0,158,158,348,1,349,aife,,,,,4,notharmonic,1.75,nw,z,,,,,,,
,,,,,,,,,,,Ege,001,2023-11-08_19h35.59.776,vowel_harmony,2023.2.3,MacIntel,66.66666667,356.6,357.601,,,,,,,,,,,,,,,,,,,,,,,,,,357.601,358.435,m,1,0.814,,358.435,358.435,,0,159,159,75,1,76,roman,1499,68.1086,1281,0.14,5,harmonic,1.6,word,m,,,,,,,
,,,,,,,,,,,Ege,001,2023-11-08_19h35.59.776,vowel_harmony,2023.2.3,MacIntel,66.66666667,358.435,359.436,,,,,,,,,,,,,,,,,,,,,,,,,,359.436,360.518,z,1,1.06,,360.518,360.518,,0,160,160,358,1,359,yangin,,,,,6,notharmonic,1.9,nw,z,,,,,,,
,,,,,,,,,,,Ege,001,2023-11-08_19h35.59.776,vowel_harmony,2023.2.3,MacIntel,66.66666667,360.519,361.52,,,,,,,,,,,,,,,,,,,,,,,,,,361.52,362.152,z,1,0.613,,362.152,362.152,,0,161,161,258,1,259,karıha,,,,,6,harmonic,1.75,nw,z,,,,,,,
,,,,,,,,,,,Ege,001,2023-11-08_19h35.59.776,vowel_harmony,2023.2.3,MacIntel,66.66666667,362.153,363.154,,,,,,,,,,,,,,,,,,,,,,,,,,363.154,364.837,m,0,1.666,,364.837,364.837,,0,162,162,189,1,190,düvre,,,,,5,harmonic,1.85,nw,z,,,,,,,
,,,,,,,,,,,Ege,001,2023-11-08_19h35.59.776,vowel_harmony,2023.2.3,MacIntel,66.66666667,364.838,365.838,,,,,,,,,,,,,,,,,,,,,,,,,,365.838,366.471,z,1,0.611,,366.471,366.472,,0,163,163,324,1,325,pakeh,,,,,5,notharmonic,1.9,nw,z,,,,,,,
,,,,,,,,,,,Ege,001,2023-11-08_19h35.59.776,vowel_harmony,2023.2.3,MacIntel,66.66666667,366.472,367.472,,,,,,,,,,,,,,,,,,,,,,,,,,367.472,368.306,z,1,0.817,,368.306,368.306,,0,164,164,206,1,207,bevek,,,,,5,harmonic,1.75,nw,z,,,,,,,
,,,,,,,,,,,Ege,001,2023-11-08_19h35.59.776,vowel_harmony,2023.2.3,MacIntel,66.66666667,368.306,369.307,,,,,,,,,,,,,,,,,,,,,,,,,,369.307,369.924,m,1,0.596,,369.924,369.924,,0,165,165,19,1,20,ödül,1063,48.2985,926,0.1012,4,harmonic,1.7,word,m,,,,,,,
,,,,,,,,,,,Ege,001,2023-11-08_19h35.59.776,vowel_harmony,2023.2.3,MacIntel,66.66666667,369.924,370.924,,,,,,,,,,,,,,,,,,,,,,,,,,370.924,371.657,m,1,0.716,,371.657,371.657,,0,166,166,115,1,116,saniye,1088,49.4344,984,0.1076,6,notharmonic,1.35,word,m,,,,,,,
,,,,,,,,,,,Ege,001,2023-11-08_19h35.59.776,vowel_harmony,2023.2.3,MacIntel,66.66666667,371.657,372.658,,,,,,,,,,,,,,,,,,,,,,,,,,372.658,373.258,m,1,0.574,,373.258,373.258,,0,167,167,81,1,82,üretim,1593,72.3796,1283,0.1403,6,harmonic,1.6,word,m,,,,,,,
,,,,,,,,,,,Ege,001,2023-11-08_19h35.59.776,vowel_harmony,2023.2.3,MacIntel,66.66666667,373.258,374.259,,,,,,,,,,,,,,,,,,,,,,,,,,374.259,375.009,z,1,0.73,,375.009,375.009,,0,168,168,345,1,346,bardeş,,,,,6,notharmonic,1.95,nw,z,,,,,,,
,,,,,,,,,,,Ege,001,2023-11-08_19h35.59.776,vowel_harmony,2023.2.3,MacIntel,66.66666667,375.01,376.009,,,,,,,,,,,,,,,,,,,,,,,,,,376.009,376.844,z,1,0.808,,376.844,376.844,,0,169,169,276,1,277,iptap,,,,,5,notharmonic,1.95,nw,z,,,,,,,
,,,,,,,,,,,Ege,001,2023-11-08_19h35.59.776,vowel_harmony,2023.2.3,MacIntel,66.66666667,376.845,377.843,,,,,,,,,,,,,,,,,,,,,,,,,,377.843,378.543,m,1,0.68,,378.543,378.544,,0,170,170,121,1,122,mesaj,1604,72.8794,1386,0.1515,5,notharmonic,1.8,word,m,,,,,,,
,,,,,,,,,,,Ege,001,2023-11-08_19h35.59.776,vowel_harmony,2023.2.3,MacIntel,66.66666667,378.544,379.544,,,,,,,,,,,,,,,,,,,,,,,,,,379.544,380.212,z,1,0.646,,380.212,380.212,,0,171,171,187,1,188,remrin,,,,,6,harmonic,1.9,nw,z,,,,,,,
,,,,,,,,,,,Ege,001,2023-11-08_19h35.59.776,vowel_harmony,2023.2.3,MacIntel,66.66666667,380.212,381.212,,,,,,,,,,,,,,,,,,,,,,,,,,381.213,382.229,z,1,0.995,,382.229,382.229,,0,172,172,285,1,286,iklon,,,,,5,notharmonic,1.85,nw,z,,,,,,,
,,,,,,,,,,,Ege,001,2023-11-08_19h35.59.776,vowel_harmony,2023.2.3,MacIntel,66.66666667,382.229,383.229,,,,,,,,,,,,,,,,,,,,,,,,,,383.229,383.879,m,1,0.63,,383.879,383.88,,0,173,173,40,1,41,tepki,1695,77.0141,1578,0.1725,5,harmonic,1.55,word,m,,,,,,,
,,,,,,,,,,,Ege,001,2023-11-08_19h35.59.776,vowel_harmony,2023.2.3,MacIntel,66.66666667,383.88,384.881,,,,,,,,,,,,,,,,,,,,,,,,,,384.881,385.78,z,1,0.881,,385.78,385.78,,0,174,174,289,1,290,karmen,,,,,6,notharmonic,1.75,nw,z,,,,,,,
,,,,,,,,,,,Ege,001,2023-11-08_19h35.59.776,vowel_harmony,2023.2.3,MacIntel,66.66666667,385.781,386.77,,,,,,,,,,,,,,,,,,,,,,,,,,386.77,387.398,z,1,0.609,,387.398,387.399,,0,175,175,199,1,200,movu,,,,,4,harmonic,1.9,nw,z,,,,,,,
,,,,,,,,,,,Ege,001,2023-11-08_19h35.59.776,vowel_harmony,2023.2.3,MacIntel,66.66666667,387.399,388.399,,,,,,,,,,,,,,,,,,,,,,,,,,388.399,389.198,z,1,0.774,,389.198,389.199,,0,176,176,321,1,322,makih,,,,,5,notharmonic,1.8,nw,z,,,,,,,
,,,,,,,,,,,Ege,001,2023-11-08_19h35.59.776,vowel_harmony,2023.2.3,MacIntel,66.66666667,389.199,390.199,,,,,,,,,,,,,,,,,,,,,,,,,,390.199,390.783,m,1,0.567,,390.784,390.784,,0,177,177,170,1,171,basit,3385,153.801,3177,0.3473,5,notharmonic,1.65,word,m,,,,,,,
,,,,,,,,,,,Ege,001,2023-11-08_19h35.59.776,vowel_harmony,2023.2.3,MacIntel,66.66666667,390.784,391.783,,,,,,,,,,,,,,,,,,,,,,,,,,391.784,392.718,m,1,0.913,,392.718,392.718,,0,178,178,13,1,14,nokta,2085,94.7341,1939,0.212,5,harmonic,1.5,word,m,,,,,,,
,,,,,,,,,,,Ege,001,2023-11-08_19h35.59.776,vowel_harmony,2023.2.3,MacIntel,66.66666667,392.719,393.718,,,,,,,,,,,,,,,,,,,,,,,,,,393.718,395.72,,0,,,395.72,395.72,,0,179,179,119,1,120,kulüp,649,29.488,467,0.0511,5,notharmonic,1.4,word,m,,,,,,,
,,,,,,,,,,,Ege,001,2023-11-08_19h35.59.776,vowel_harmony,2023.2.3,MacIntel,66.66666667,395.72,396.72,,,,,,,,,,,,,,,,,,,,,,,,,,396.72,397.603,m,1,0.863,,397.604,397.604,,0,180,180,94,1,95,final,876,39.802,778,0.0851,5,notharmonic,1,word,m,,,,,,,
,,,,,,,,,,,Ege,001,2023-11-08_19h35.59.776,vowel_harmony,2023.2.3,MacIntel,66.66666667,397.604,398.603,,,,,,,,,,,,,,,,,,,,,,,,,,398.603,399.403,z,1,0.779,,399.403,399.403,,0,181,181,214,1,215,vecü,,,,,4,harmonic,1.95,nw,z,,,,,,,
,,,,,,,,,,,Ege,001,2023-11-08_19h35.59.776,vowel_harmony,2023.2.3,MacIntel,66.66666667,399.404,400.404,,,,,,,,,,,,,,,,,,,,,,,,,,400.404,401.271,m,1,0.847,,401.271,401.271,,0,182,182,41,1,42,zengin,2193,99.6412,2015,0.2203,6,harmonic,1.65,word,m,,,,,,,
,,,,,,,,,,,Ege,001,2023-11-08_19h35.59.776,vowel_harmony,2023.2.3,MacIntel,66.66666667,401.272,402.271,,,,,,,,,,,,,,,,,,,,,,,,,,402.271,402.938,z,1,0.647,,402.938,402.939,,0,183,183,313,1,314,ikas,,,,,4,notharmonic,1.85,nw,z,,,,,,,
,,,,,,,,,,,Ege,001,2023-11-08_19h35.59.776,vowel_harmony,2023.2.3,MacIntel,66.66666667,402.939,403.94,,,,,,,,,,,,,,,,,,,,,,,,,,403.94,404.806,m,1,0.848,,404.806,404.806,,0,184,184,174,1,175,bugün,13879,630.6067,12842,1.4039,5,notharmonic,1.85,word,m,,,,,,,
,,,,,,,,,,,Ege,001,2023-11-08_19h35.59.776,vowel_harmony,2023.2.3,MacIntel,66.66666667,404.806,405.806,,,,,,,,,,,,,,,,,,,,,,,,,,405.806,406.445,z,1,0.617,,406.445,406.445,,0,185,185,357,1,358,işarek,,,,,6,notharmonic,1.95,nw,z,,,,,,,
,,,,,,,,,,,Ege,001,2023-11-08_19h35.59.776,vowel_harmony,2023.2.3,MacIntel,66.66666667,406.445,407.441,,,,,,,,,,,,,,,,,,,,,,,,,,407.441,408.108,z,1,0.647,,408.108,408.108,,0,186,186,347,1,348,tekram,,,,,6,notharmonic,1.95,nw,z,,,,,,,
,,,,,,,,,,,Ege,001,2023-11-08_19h35.59.776,vowel_harmony,2023.2.3,MacIntel,66.66666667,408.108,409.108,,,,,,,,,,,,,,,,,,,,,,,,,,409.108,410.142,m,1,1.015,,410.142,410.142,,0,187,187,69,1,70,forma,719,32.6685,597,0.0653,5,harmonic,1.8,word,m,,,,,,,
,,,,,,,,,,,Ege,001,2023-11-08_19h35.59.776,vowel_harmony,2023.2.3,MacIntel,66.66666667,410.143,411.143,,,,,,,,,,,,,,,,,,,,,,,,,,411.143,411.777,m,1,0.614,,411.777,411.777,,0,188,188,22,1,23,anlam,1730,78.6043,1617,0.1768,5,harmonic,1.25,word,m,,,,,,,
,,,,,,,,,,,Ege,001,2023-11-08_19h35.59.776,vowel_harmony,2023.2.3,MacIntel,66.66666667,411.777,412.777,,,,,,,,,,,,,,,,,,,,,,,,,,412.777,413.311,m,1,0.512,,413.311,413.311,,0,189,189,30,1,31,çevre,1662,75.5147,1409,0.154,5,harmonic,1.55,word,m,,,,,,,
,,,,,,,,,,,Ege,001,2023-11-08_19h35.59.776,vowel_harmony,2023.2.3,MacIntel,66.66666667,413.311,414.31,,,,,,,,,,,,,,,,,,,,,,,,,,414.31,414.861,z,1,0.53,,414.861,414.861,,0,190,190,260,1,261,yarlam,,,,,6,harmonic,1.75,nw,z,,,,,,,
,,,,,,,,,,,Ege,001,2023-11-08_19h35.59.776,vowel_harmony,2023.2.3,MacIntel,66.66666667,414.861,415.862,,,,,,,,,,,,,,,,,,,,,,,,,,415.862,416.561,m,1,0.675,,416.561,416.561,,0,191,191,4,1,5,metre,1156,52.5241,1015,0.111,5,harmonic,1.7,word,m,,,,,,,
,,,,,,,,,,,Ege,001,2023-11-08_19h35.59.776,vowel_harmony,2023.2.3,MacIntel,66.66666667,416.562,417.557,,,,,,,,,,,,,,,,,,,,,,,,,,417.558,418.327,m,1,0.744,,418.327,418.327,,0,192,192,87,1,88,mümkün,6604,300.0596,6264,0.6848,6,harmonic,1.9,word,m,,,,,,,
,,,,,,,,,,,Ege,001,2023-11-08_19h35.59.776,vowel_harmony,2023.2.3,MacIntel,66.66666667,418.327,419.329,,,,,,,,,,,,,,,,,,,,,,,,,,419.329,420.414,m,1,1.065,,420.414,420.414,,0,193,193,123,1,124,haber,4559,207.1429,4151,0.4538,5,notharmonic,1.85,word,m,,,,,,,
,,,,,,,,,,,Ege,001,2023-11-08_19h35.59.776,vowel_harmony,2023.2.3,MacIntel,66.66666667,420.415,421.414,,,,,,,,,,,,,,,,,,,,,,,,,,421.414,422.214,m,1,0.775,,422.214,422.214,,0,194,194,98,1,99,paket,1532,69.608,1392,0.1522,5,notharmonic,1.55,word,m,,,,,,,
,,,,,,,,,,,Ege,001,2023-11-08_19h35.59.776,vowel_harmony,2023.2.3,MacIntel,66.66666667,422.214,423.215,,,,,,,,,,,,,,,,,,,,,,,,,,423.215,423.932,z,1,0.698,,423.932,423.932,,0,195,195,251,1,252,oştay,,,,,5,harmonic,1.95,nw,z,,,,,,,
,,,,,,,,,,,Ege,001,2023-11-08_19h35.59.776,vowel_harmony,2023.2.3,MacIntel,66.66666667,423.932,424.932,,,,,,,,,,,,,,,,,,,,,,,,,,424.932,425.616,z,1,0.66,,425.616,425.616,,0,196,196,181,1,182,rapkı,,,,,5,harmonic,1.85,nw,z,,,,,,,
,,,,,,,,,,,Ege,001,2023-11-08_19h35.59.776,vowel_harmony,2023.2.3,MacIntel,66.66666667,425.617,426.617,,,,,,,,,,,,,,,,,,,,,,,,,,426.617,427.318,m,1,0.675,,427.318,427.318,,0,197,197,74,1,75,başarı,1398,63.5196,1300,0.1421,6,harmonic,1.2,word,m,,,,,,,
,,,,,,,,,,,Ege,001,2023-11-08_19h35.59.776,vowel_harmony,2023.2.3,MacIntel,66.66666667,427.318,428.318,,,,,,,,,,,,,,,,,,,,,,,,,,428.318,429.067,m,1,0.729,,429.067,429.067,,0,198,198,38,1,39,dönem,2820,128.1296,2437,0.2664,5,harmonic,1.4,word,m,,,,,,,
,,,,,,,,,,,Ege,001,2023-11-08_19h35.59.776,vowel_harmony,2023.2.3,MacIntel,66.66666667,429.068,430.068,,,,,,,,,,,,,,,,,,,,,,,,,,430.068,430.819,z,1,0.733,,430.819,430.819,,0,199,199,259,1,260,hayuk,,,,,5,harmonic,1.95,nw,z,,,,,,,
,,,,,,,,,,,Ege,001,2023-11-08_19h35.59.776,vowel_harmony,2023.2.3,MacIntel,66.66666667,430.82,431.82,,,,,,,,,,,,,,,,,,,,,,,,,,431.82,432.37,m,1,0.526,,432.37,432.37,,0,200,200,141,1,142,madde,3793,172.3389,3389,0.3705,5,notharmonic,1.7,word,m,,,,,,,
,,,,,,,,,,,Ege,001,2023-11-08_19h35.59.776,vowel_harmony,2023.2.3,MacIntel,66.66666667,432.37,433.37,,,,,,,,,,,,,,,,,,,,,,,,,,433.37,434.187,z,1,0.794,,434.187,434.187,,0,201,201,327,1,328,parkeş,,,,,6,notharmonic,1.9,nw,z,,,,,,,
,,,,,,,,,,,Ege,001,2023-11-08_19h35.59.776,vowel_harmony,2023.2.3,MacIntel,66.66666667,434.187,435.187,,,,,,,,,,,,,,,,,,,,,,,,,,435.187,436.255,m,1,1.05,,436.255,436.255,,0,202,202,29,1,30,huzur,1911,86.8283,1799,0.1967,5,harmonic,1.8,word,m,,,,,,,
,,,,,,,,,,,Ege,001,2023-11-08_19h35.59.776,vowel_harmony,2023.2.3,MacIntel,66.66666667,436.255,437.255,,,,,,,,,,,,,,,,,,,,,,,,,,437.255,438.423,z,1,1.148,,438.423,438.423,,0,203,203,237,1,238,taşal,,,,,5,harmonic,1.8,nw,z,,,,,,,
,,,,,,,,,,,Ege,001,2023-11-08_19h35.59.776,vowel_harmony,2023.2.3,MacIntel,66.66666667,438.423,439.422,,,,,,,,,,,,,,,,,,,,,,,,,,439.422,440.29,z,1,0.845,,440.291,440.291,,0,204,204,317,1,318,mevul,,,,,5,notharmonic,1.95,nw,z,,,,,,,
,,,,,,,,,,,Ege,001,2023-11-08_19h35.59.776,vowel_harmony,2023.2.3,MacIntel,66.66666667,440.291,441.291,,,,,,,,,,,,,,,,,,,,,,,,,,441.291,442.391,m,0,1.081,,442.391,442.392,,0,205,205,213,1,214,kaun,,,,,4,harmonic,1.7,nw,z,,,,,,,
,,,,,,,,,,,Ege,001,2023-11-08_19h35.59.776,vowel_harmony,2023.2.3,MacIntel,66.66666667,442.392,443.392,,,,,,,,,,,,,,,,,,,,,,,,,,443.392,444.108,m,1,0.698,,444.108,444.108,,0,206,206,164,1,165,sinema,1575,71.5618,1304,0.1426,6,notharmonic,1.8,word,m,,,,,,,
,,,,,,,,,,,Ege,001,2023-11-08_19h35.59.776,vowel_harmony,2023.2.3,MacIntel,66.66666667,444.108,445.109,,,,,,,,,,,,,,,,,,,,,,,,,,445.109,445.827,m,1,0.698,,445.827,445.827,,0,207,207,97,1,98,mevcut,3007,136.6262,2842,0.3107,6,notharmonic,1.95,word,m,,,,,,,
,,,,,,,,,,,Ege,001,2023-11-08_19h35.59.776,vowel_harmony,2023.2.3,MacIntel,66.66666667,445.827,446.826,,,,,,,,,,,,,,,,,,,,,,,,,,446.826,447.61,m,1,0.759,,447.61,447.61,,0,208,208,102,1,103,esas,1965,89.2818,1795,0.1962,4,notharmonic,1.75,word,m,,,,,,,
,,,,,,,,,,,Ege,001,2023-11-08_19h35.59.776,vowel_harmony,2023.2.3,MacIntel,66.66666667,447.61,448.61,,,,,,,,,,,,,,,,,,,,,,,,,,448.61,449.278,z,1,0.648,,449.278,449.278,,0,209,209,248,1,249,şegim,,,,,5,harmonic,1.9,nw,z,,,,,,,
,,,,,,,,,,,Ege,001,2023-11-08_19h35.59.776,vowel_harmony,2023.2.3,MacIntel,66.66666667,449.279,450.278,,,,,,,,,,,,,,,,,,,,,,,,,,450.278,450.978,m,1,0.681,,450.978,450.978,,0,210,210,95,1,96,takip,4996,226.9984,4651,0.5084,5,notharmonic,1.55,word,m,,,,,,,
,,,,,,,,,,,Ege,001,2023-11-08_19h35.59.776,vowel_harmony,2023.2.3,MacIntel,66.66666667,450.978,451.979,,,,,,,,,,,,,,,,,,,,,,,,,,451.979,452.629,z,1,0.63,,452.629,452.629,,0,211,211,215,1,216,aydo,,,,,4,harmonic,1.9,nw,z,,,,,,,
,,,,,,,,,,,Ege,001,2023-11-08_19h35.59.776,vowel_harmony,2023.2.3,MacIntel,66.66666667,452.629,453.63,,,,,,,,,,,,,,,,,,,,,,,,,,453.63,454.313,m,1,0.664,,454.313,454.313,,0,212,212,63,1,64,sultan,1756,79.7857,1368,0.1496,6,harmonic,1.55,word,m,,,,,,,
,,,,,,,,,,,Ege,001,2023-11-08_19h35.59.776,vowel_harmony,2023.2.3,MacIntel,66.66666667,454.313,455.314,,,,,,,,,,,,,,,,,,,,,,,,,,455.314,456.347,z,1,1.011,,456.347,456.347,,0,213,213,320,1,321,finak,,,,,5,notharmonic,1.85,nw,z,,,,,,,
,,,,,,,,,,,Ege,001,2023-11-08_19h35.59.776,vowel_harmony,2023.2.3,MacIntel,66.66666667,456.347,457.348,,,,,,,,,,,,,,,,,,,,,,,,,,457.348,457.999,z,1,0.631,,457.999,457.999,,0,214,214,254,1,255,millek,,,,,6,harmonic,1.8,nw,z,,,,,,,
,,,,,,,,,,,Ege,001,2023-11-08_19h35.59.776,vowel_harmony,2023.2.3,MacIntel,66.66666667,457.999,458.997,,,,,,,,,,,,,,,,,,,,,,,,,,458.997,459.566,z,1,0.547,,459.566,459.566,,0,215,215,359,1,360,kardez,,,,,6,notharmonic,1.95,nw,z,,,,,,,
,,,,,,,,,,,Ege,001,2023-11-08_19h35.59.776,vowel_harmony,2023.2.3,MacIntel,66.66666667,459.566,460.567,,,,,,,,,,,,,,,,,,,,,,,,,,460.567,461.416,m,1,0.831,,461.416,461.416,,0,216,216,76,1,77,ilişki,1675,76.1054,1524,0.1666,6,harmonic,1.8,word,m,,,,,,,
,,,,,,,,,,,Ege,001,2023-11-08_19h35.59.776,vowel_harmony,2023.2.3,MacIntel,66.66666667,461.417,462.417,,,,,,,,,,,,,,,,,,,,,,,,,,462.417,463.851,m,1,1.416,,463.851,463.851,,0,217,217,50,1,51,kanun,1198,54.4324,1010,0.1104,5,harmonic,1.6,word,m,,,,,,,
,,,,,,,,,,,Ege,001,2023-11-08_19h35.59.776,vowel_harmony,2023.2.3,MacIntel,66.66666667,463.851,464.852,,,,,,,,,,,,,,,,,,,,,,,,,,464.852,465.835,z,1,0.956,,465.835,465.835,,0,218,218,228,1,229,haytam,,,,,6,harmonic,1.75,nw,z,,,,,,,
,,,,,,,,,,,Ege,001,2023-11-08_19h35.59.776,vowel_harmony,2023.2.3,MacIntel,66.66666667,465.835,466.836,,,,,,,,,,,,,,,,,,,,,,,,,,466.836,467.536,z,1,0.681,,467.536,467.536,,0,219,219,212,1,213,ortat,,,,,5,harmonic,1.7,nw,z,,,,,,,
,,,,,,,,,,,Ege,001,2023-11-08_19h35.59.776,vowel_harmony,2023.2.3,MacIntel,66.66666667,467.536,468.536,,,,,,,,,,,,,,,,,,,,,,,,,,468.536,469.338,m,1,0.78,,469.338,469.338,,0,220,220,35,1,36,hava,4975,226.0443,4398,0.4808,4,harmonic,1,word,m,,,,,,,
,,,,,,,,,,,Ege,001,2023-11-08_19h35.59.776,vowel_harmony,2023.2.3,MacIntel,66.66666667,469.338,470.337,,,,,,,,,,,,,,,,,,,,,,,,,,470.337,471.254,m,1,0.893,,471.254,471.255,,0,221,221,8,1,9,güven,1433,65.1098,1300,0.1421,5,harmonic,1.35,word,m,,,,,,,
,,,,,,,,,,,Ege,001,2023-11-08_19h35.59.776,vowel_harmony,2023.2.3,MacIntel,66.66666667,471.255,472.255,,,,,,,,,,,,,,,,,,,,,,,,,,472.255,472.856,m,1,0.581,,472.856,472.856,,0,222,222,131,1,132,hakim,1677,76.1962,1559,0.1704,5,notharmonic,1,word,m,,,,,,,
,,,,,,,,,,,Ege,001,2023-11-08_19h35.59.776,vowel_harmony,2023.2.3,MacIntel,66.66666667,472.856,473.855,,,,,,,,,,,,,,,,,,,,,,,,,,473.855,474.656,z,1,0.77,,474.656,474.656,,0,223,223,218,1,219,tezöl,,,,,5,harmonic,2,nw,z,,,,,,,
,,,,,,,,,,,Ege,001,2023-11-08_19h35.59.776,vowel_harmony,2023.2.3,MacIntel,66.66666667,474.657,475.656,,,,,,,,,,,,,,,,,,,,,,,,,,475.656,476.29,m,1,0.609,,476.29,476.29,,0,224,224,21,1,22,duygu,1877,85.2834,1760,0.1924,5,harmonic,1.8,word,m,,,,,,,
,,,,,,,,,,,Ege,001,2023-11-08_19h35.59.776,vowel_harmony,2023.2.3,MacIntel,66.66666667,476.291,477.292,,,,,,,,,,,,,,,,,,,,,,,,,,477.292,477.825,m,1,0.514,,477.825,477.825,,0,225,225,82,1,83,aday,1028,46.7082,873,0.0954,4,harmonic,1.45,word,m,,,,,,,
,,,,,,,,,,,Ege,001,2023-11-08_19h35.59.776,vowel_harmony,2023.2.3,MacIntel,66.66666667,477.825,478.824,,,,,,,,,,,,,,,,,,,,,,,,,,478.825,479.442,z,1,0.596,,479.442,479.443,,0,226,226,242,1,243,kahon,,,,,5,harmonic,1.85,nw,z,,,,,,,
,,,,,,,,,,,Ege,001,2023-11-08_19h35.59.776,vowel_harmony,2023.2.3,MacIntel,66.66666667,479.443,480.443,,,,,,,,,,,,,,,,,,,,,,,,,,480.443,481.393,z,1,0.928,,481.393,481.393,,0,227,227,326,1,327,ailo,,,,,4,notharmonic,1.75,nw,z,,,,,,,
,,,,,,,,,,,Ege,001,2023-11-08_19h35.59.776,vowel_harmony,2023.2.3,MacIntel,66.66666667,481.393,482.394,,,,,,,,,,,,,,,,,,,,,,,,,,482.394,483.093,z,1,0.679,,483.093,483.094,,0,228,228,224,1,225,ertre,,,,,5,harmonic,1.95,nw,z,,,,,,,
,,,,,,,,,,,Ege,001,2023-11-08_19h35.59.776,vowel_harmony,2023.2.3,MacIntel,66.66666667,483.094,484.095,,,,,,,,,,,,,,,,,,,,,,,,,,484.095,484.885,z,1,0.764,,484.885,484.885,,0,229,229,353,1,354,ikno,,,,,4,notharmonic,1.95,nw,z,,,,,,,
,,,,,,,,,,,Ege,001,2023-11-08_19h35.59.776,vowel_harmony,2023.2.3,MacIntel,66.66666667,484.886,485.879,,,,,,,,,,,,,,,,,,,,,,,,,,485.879,486.478,m,1,0.576,,486.478,486.478,,0,230,230,18,1,19,normal,4154,188.7413,3788,0.4141,6,harmonic,1.75,word,m,,,,,,,
,,,,,,,,,,,Ege,001,2023-11-08_19h35.59.776,vowel_harmony,2023.2.3,MacIntel,66.66666667,486.478,487.479,,,,,,,,,,,,,,,,,,,,,,,,,,487.479,488.029,m,1,0.532,,488.029,488.029,,0,231,231,73,1,74,millet,1658,75.3329,1508,0.1649,6,harmonic,1.7,word,m,,,,,,,
,,,,,,,,,,,Ege,001,2023-11-08_19h35.59.776,vowel_harmony,2023.2.3,MacIntel,66.66666667,488.029,489.029,,,,,,,,,,,,,,,,,,,,,,,,,,489.029,489.713,m,1,0.667,,489.713,489.713,,0,232,232,31,1,32,fazla,18293,831.1614,16694,1.825,5,harmonic,1,word,m,,,,,,,
,,,,,,,,,,,Ege,001,2023-11-08_19h35.59.776,vowel_harmony,2023.2.3,MacIntel,66.66666667,489.714,490.713,,,,,,,,,,,,,,,,,,,,,,,,,,490.713,491.348,m,0,0.612,,491.348,491.348,,0,233,233,239,1,240,şekik,,,,,5,harmonic,1.7,nw,z,,,,,,,
,,,,,,,,,,,Ege,001,2023-11-08_19h35.59.776,vowel_harmony,2023.2.3,MacIntel,66.66666667,491.348,492.347,,,,,,,,,,,,,,,,,,,,,,,,,,492.347,493.148,z,1,0.78,,493.148,493.148,,0,234,234,335,1,336,lilo,,,,,4,notharmonic,1.8,nw,z,,,,,,,
,,,,,,,,,,,Ege,001,2023-11-08_19h35.59.776,vowel_harmony,2023.2.3,MacIntel,66.66666667,493.148,494.149,,,,,,,,,,,,,,,,,,,,,,,,,,494.149,494.666,m,1,0.494,,494.666,494.666,,0,235,235,44,1,45,kayıt,1234,56.0681,1058,0.1157,5,harmonic,1.35,word,m,,,,,,,
,,,,,,,,,,,Ege,001,2023-11-08_19h35.59.776,vowel_harmony,2023.2.3,MacIntel,66.66666667,494.667,495.666,,,,,,,,,,,,,,,,,,,,,,,,,,495.666,496.3,m,1,0.613,,496.3,496.3,,0,236,236,46,1,47,takım,4370,198.5555,3726,0.4073,5,harmonic,1.7,word,m,,,,,,,
,,,,,,,,,,,Ege,001,2023-11-08_19h35.59.776,vowel_harmony,2023.2.3,MacIntel,66.66666667,496.3,497.301,,,,,,,,,,,,,,,,,,,,,,,,,,497.301,497.95,z,1,0.631,,497.95,497.95,,0,237,237,265,1,266,parula,,,,,6,harmonic,1.75,nw,z,,,,,,,
,,,,,,,,,,,Ege,001,2023-11-08_19h35.59.776,vowel_harmony,2023.2.3,MacIntel,66.66666667,497.95,498.95,,,,,,,,,,,,,,,,,,,,,,,,,,498.951,499.401,m,0,0.433,,499.401,499.401,,0,238,238,230,1,231,bikir,,,,,5,harmonic,1.75,nw,z,,,,,,,
,,,,,,,,,,,Ege,001,2023-11-08_19h35.59.776,vowel_harmony,2023.2.3,MacIntel,66.66666667,499.402,500.401,,,,,,,,,,,,,,,,,,,,,,,,,,500.401,500.935,m,1,0.517,,500.935,500.935,,0,239,239,114,1,115,nisan,2321,105.457,2044,0.2235,5,notharmonic,1.6,word,m,,,,,,,
,,,,,,,,,,,Ege,001,2023-11-08_19h35.59.776,vowel_harmony,2023.2.3,MacIntel,66.66666667,500.936,501.936,,,,,,,,,,,,,,,,,,,,,,,,,,501.936,502.57,z,1,0.607,,502.57,503.821,space,0,240,240,283,1,284,fahe,,,,,4,notharmonic,1.95,nw,z,1.233,,,,,,
,,,,,,,,,,,Ege,001,2023-11-08_19h35.59.776,vowel_harmony,2023.2.3,MacIntel,66.66666667,503.821,504.821,,,,,,,,,,,,,,,,,,,,,,,,,,504.821,505.57,z,1,0.728,,505.57,505.57,,0,241,241,302,1,303,işgar,,,,,5,notharmonic,1.9,nw,z,,,,,,,
,,,,,,,,,,,Ege,001,2023-11-08_19h35.59.776,vowel_harmony,2023.2.3,MacIntel,66.66666667,505.571,506.572,,,,,,,,,,,,,,,,,,,,,,,,,,506.572,507.222,m,1,0.629,,507.222,507.222,,0,242,242,10,1,11,bardak,1728,78.5135,1569,0.1715,6,harmonic,1.6,word,m,,,,,,,
,,,,,,,,,,,Ege,001,2023-11-08_19h35.59.776,vowel_harmony,2023.2.3,MacIntel,66.66666667,507.223,508.222,,,,,,,,,,,,,,,,,,,,,,,,,,508.222,509.489,m,1,1.247,,509.489,509.489,,0,243,243,140,1,141,sahil,481,21.8547,443,0.0484,5,notharmonic,1.45,word,m,,,,,,,
,,,,,,,,,,,Ege,001,2023-11-08_19h35.59.776,vowel_harmony,2023.2.3,MacIntel,66.66666667,509.489,510.49,,,,,,,,,,,,,,,,,,,,,,,,,,510.49,511.307,m,1,0.796,,511.307,511.307,,0,244,244,5,1,6,bebek,3301,149.9843,2794,0.3054,5,harmonic,1.6,word,m,,,,,,,
,,,,,,,,,,,Ege,001,2023-11-08_19h35.59.776,vowel_harmony,2023.2.3,MacIntel,66.66666667,511.308,512.307,,,,,,,,,,,,,,,,,,,,,,,,,,512.307,512.94,m,1,0.61,,512.941,512.941,,0,245,245,149,1,150,ceza,2611,118.6335,2169,0.2371,4,notharmonic,1.5,word,m,,,,,,,
,,,,,,,,,,,Ege,001,2023-11-08_19h35.59.776,vowel_harmony,2023.2.3,MacIntel,66.66666667,512.941,513.941,,,,,,,,,,,,,,,,,,,,,,,,,,513.941,514.509,m,1,0.548,,514.509,514.509,,0,246,246,166,1,167,maden,402,18.2653,339,0.0371,5,notharmonic,1.45,word,m,,,,,,,
,,,,,,,,,,,Ege,001,2023-11-08_19h35.59.776,vowel_harmony,2023.2.3,MacIntel,66.66666667,514.509,515.509,,,,,,,,,,,,,,,,,,,,,,,,,,515.509,516.126,z,1,0.593,,516.126,516.126,,0,247,247,200,1,201,duşın,,,,,5,harmonic,1.9,nw,z,,,,,,,
,,,,,,,,,,,Ege,001,2023-11-08_19h35.59.776,vowel_harmony,2023.2.3,MacIntel,66.66666667,516.126,517.126,,,,,,,,,,,,,,,,,,,,,,,,,,517.126,517.693,m,1,0.549,,517.693,517.693,,0,248,248,150,1,151,sabit,1046,47.5261,915,0.1,5,notharmonic,1.75,word,m,,,,,,,
,,,,,,,,,,,Ege,001,2023-11-08_19h35.59.776,vowel_harmony,2023.2.3,MacIntel,66.66666667,517.693,518.693,,,,,,,,,,,,,,,,,,,,,,,,,,518.693,519.261,z,1,0.551,,519.261,519.261,,0,249,249,273,1,274,nimal,,,,,5,notharmonic,1.9,nw,z,,,,,,,
,,,,,,,,,,,Ege,001,2023-11-08_19h35.59.776,vowel_harmony,2023.2.3,MacIntel,66.66666667,519.261,520.262,,,,,,,,,,,,,,,,,,,,,,,,,,520.262,520.845,z,1,0.563,,520.845,520.845,,0,250,250,319,1,320,biho,,,,,4,notharmonic,2,nw,z,,,,,,,
,,,,,,,,,,,Ege,001,2023-11-08_19h35.59.776,vowel_harmony,2023.2.3,MacIntel,66.66666667,520.845,521.845,,,,,,,,,,,,,,,,,,,,,,,,,,521.845,522.296,m,1,0.431,,522.296,522.296,,0,251,251,86,1,87,gerçek,8983,408.1519,8058,0.8809,6,harmonic,1.7,word,m,,,,,,,
,,,,,,,,,,,Ege,001,2023-11-08_19h35.59.776,vowel_harmony,2023.2.3,MacIntel,66.66666667,522.296,523.296,,,,,,,,,,,,,,,,,,,,,,,,,,523.296,523.896,z,1,0.58,,523.896,523.896,,0,252,252,209,1,210,sapor,,,,,5,harmonic,1.8,nw,z,,,,,,,
,,,,,,,,,,,Ege,001,2023-11-08_19h35.59.776,vowel_harmony,2023.2.3,MacIntel,66.66666667,523.896,524.897,,,,,,,,,,,,,,,,,,,,,,,,,,524.897,525.58,m,1,0.664,,525.58,525.581,,0,253,253,60,1,61,doğu,2105,95.6429,1823,0.1993,4,harmonic,1.05,word,m,,,,,,,
,,,,,,,,,,,Ege,001,2023-11-08_19h35.59.776,vowel_harmony,2023.2.3,MacIntel,66.66666667,525.581,526.581,,,,,,,,,,,,,,,,,,,,,,,,,,526.581,527.215,z,1,0.613,,527.215,527.215,,0,254,254,188,1,189,tonık,,,,,5,harmonic,1.85,nw,z,,,,,,,
,,,,,,,,,,,Ege,001,2023-11-08_19h35.59.776,vowel_harmony,2023.2.3,MacIntel,66.66666667,527.215,528.215,,,,,,,,,,,,,,,,,,,,,,,,,,528.215,528.937,z,1,0.7,,528.938,528.938,,0,255,255,208,1,209,yayram,,,,,6,harmonic,1.85,nw,z,,,,,,,
,,,,,,,,,,,Ege,001,2023-11-08_19h35.59.776,vowel_harmony,2023.2.3,MacIntel,66.66666667,528.939,529.933,,,,,,,,,,,,,,,,,,,,,,,,,,529.933,530.566,z,1,0.61,,530.566,530.566,,0,256,256,352,1,353,yılden,,,,,6,notharmonic,1.8,nw,z,,,,,,,
,,,,,,,,,,,Ege,001,2023-11-08_19h35.59.776,vowel_harmony,2023.2.3,MacIntel,66.66666667,530.566,531.567,,,,,,,,,,,,,,,,,,,,,,,,,,531.567,532.134,z,1,0.545,,532.134,532.134,,0,257,257,245,1,246,bıyan,,,,,5,harmonic,1.7,nw,z,,,,,,,
,,,,,,,,,,,Ege,001,2023-11-08_19h35.59.776,vowel_harmony,2023.2.3,MacIntel,66.66666667,532.134,533.134,,,,,,,,,,,,,,,,,,,,,,,,,,533.134,533.818,m,1,0.662,,533.818,533.818,,0,258,258,58,1,59,ayak,2143,97.3694,1931,0.2111,4,harmonic,1,word,m,,,,,,,
,,,,,,,,,,,Ege,001,2023-11-08_19h35.59.776,vowel_harmony,2023.2.3,MacIntel,66.66666667,533.818,534.818,,,,,,,,,,,,,,,,,,,,,,,,,,534.818,535.335,m,1,0.497,,535.335,535.335,,0,259,259,39,1,40,yaygın,1061,48.2076,1019,0.1114,6,harmonic,1.35,word,m,,,,,,,
,,,,,,,,,,,Ege,001,2023-11-08_19h35.59.776,vowel_harmony,2023.2.3,MacIntel,66.66666667,535.336,536.336,,,,,,,,,,,,,,,,,,,,,,,,,,536.336,537.12,z,1,0.765,,537.12,537.12,,0,260,260,350,1,351,resun,,,,,5,notharmonic,1.85,nw,z,,,,,,,
,,,,,,,,,,,Ege,001,2023-11-08_19h35.59.776,vowel_harmony,2023.2.3,MacIntel,66.66666667,537.12,538.121,,,,,,,,,,,,,,,,,,,,,,,,,,538.121,538.57,m,1,0.427,,538.57,538.57,,0,261,261,92,1,93,sahne,1380,62.7017,1238,0.1353,5,notharmonic,1.65,word,m,,,,,,,
,,,,,,,,,,,Ege,001,2023-11-08_19h35.59.776,vowel_harmony,2023.2.3,MacIntel,66.66666667,538.57,539.57,,,,,,,,,,,,,,,,,,,,,,,,,,539.57,540.308,z,1,0.721,,540.309,540.309,,0,262,262,293,1,294,esnan,,,,,5,notharmonic,1.85,nw,z,,,,,,,
,,,,,,,,,,,Ege,001,2023-11-08_19h35.59.776,vowel_harmony,2023.2.3,MacIntel,66.66666667,540.309,541.305,,,,,,,,,,,,,,,,,,,,,,,,,,541.305,542.055,z,1,0.733,,542.056,542.056,,0,263,263,253,1,254,meslet,,,,,6,harmonic,1.85,nw,z,,,,,,,
,,,,,,,,,,,Ege,001,2023-11-08_19h35.59.776,vowel_harmony,2023.2.3,MacIntel,66.66666667,542.056,543.056,,,,,,,,,,,,,,,,,,,,,,,,,,543.056,543.705,m,1,0.632,,543.705,543.705,,0,264,264,129,1,130,tahmin,2353,106.911,2273,0.2485,6,notharmonic,1.6,word,m,,,,,,,
,,,,,,,,,,,Ege,001,2023-11-08_19h35.59.776,vowel_harmony,2023.2.3,MacIntel,66.66666667,543.706,544.706,,,,,,,,,,,,,,,,,,,,,,,,,,544.706,545.357,z,1,0.628,,545.357,545.357,,0,265,265,287,1,288,haköm,,,,,5,notharmonic,1.9,nw,z,,,,,,,
,,,,,,,,,,,Ege,001,2023-11-08_19h35.59.776,vowel_harmony,2023.2.3,MacIntel,66.66666667,545.357,546.357,,,,,,,,,,,,,,,,,,,,,,,,,,546.357,547.174,z,0,0.799,,547.174,547.174,,0,266,266,67,1,68,bayram,1948,88.5094,1648,0.1802,6,harmonic,1.85,word,m,,,,,,,
,,,,,,,,,,,Ege,001,2023-11-08_19h35.59.776,vowel_harmony,2023.2.3,MacIntel,66.66666667,547.174,548.175,,,,,,,,,,,,,,,,,,,,,,,,,,548.175,549.108,z,0,0.913,,549.108,549.108,,0,267,267,51,1,52,ilginç,2803,127.3572,2690,0.2941,6,harmonic,1.8,word,m,,,,,,,
,,,,,,,,,,,Ege,001,2023-11-08_19h35.59.776,vowel_harmony,2023.2.3,MacIntel,66.66666667,549.108,550.109,,,,,,,,,,,,,,,,,,,,,,,,,,550.109,550.893,m,1,0.759,,550.893,550.893,,0,268,268,172,1,173,milyar,1496,67.9723,1078,0.1178,6,notharmonic,1.85,word,m,,,,,,,
,,,,,,,,,,,Ege,001,2023-11-08_19h35.59.776,vowel_harmony,2023.2.3,MacIntel,66.66666667,550.893,551.893,,,,,,,,,,,,,,,,,,,,,,,,,,551.893,552.659,z,1,0.748,,552.659,552.66,,0,269,269,204,1,205,gerkez,,,,,6,harmonic,1.9,nw,z,,,,,,,
,,,,,,,,,,,Ege,001,2023-11-08_19h35.59.776,vowel_harmony,2023.2.3,MacIntel,66.66666667,552.66,553.66,,,,,,,,,,,,,,,,,,,,,,,,,,553.66,554.51,z,1,0.831,,554.51,554.51,,0,270,270,185,1,186,örtin,,,,,5,harmonic,1.9,nw,z,,,,,,,
,,,,,,,,,,,Ege,001,2023-11-08_19h35.59.776,vowel_harmony,2023.2.3,MacIntel,66.66666667,554.51,555.511,,,,,,,,,,,,,,,,,,,,,,,,,,555.511,556.578,m,1,1.046,,556.578,556.578,,0,271,271,48,1,49,teşvik,932,42.3464,867,0.0948,6,harmonic,1.8,word,m,,,,,,,
,,,,,,,,,,,Ege,001,2023-11-08_19h35.59.776,vowel_harmony,2023.2.3,MacIntel,66.66666667,556.578,557.579,,,,,,,,,,,,,,,,,,,,,,,,,,557.579,558.296,m,1,0.698,,558.296,558.296,,0,272,272,0,1,1,sanat,3121,141.8059,2485,0.2717,5,harmonic,1.4,word,m,,,,,,,
,,,,,,,,,,,Ege,001,2023-11-08_19h35.59.776,vowel_harmony,2023.2.3,MacIntel,66.66666667,558.296,559.296,,,,,,,,,,,,,,,,,,,,,,,,,,559.296,559.914,m,1,0.593,,559.914,559.914,,0,273,273,163,1,164,limon,1658,75.3329,1481,0.1619,5,notharmonic,1.75,word,m,,,,,,,
,,,,,,,,,,,Ege,001,2023-11-08_19h35.59.776,vowel_harmony,2023.2.3,MacIntel,66.66666667,559.914,560.915,,,,,,,,,,,,,,,,,,,,,,,,,,560.916,561.58,m,1,0.645,,561.58,561.58,,0,274,274,113,1,114,model,1200,54.5232,1082,0.1183,5,notharmonic,1.75,word,m,,,,,,,
,,,,,,,,,,,Ege,001,2023-11-08_19h35.59.776,vowel_harmony,2023.2.3,MacIntel,66.66666667,561.581,562.581,,,,,,,,,,,,,,,,,,,,,,,,,,562.581,563.164,m,1,0.564,,563.165,563.165,,0,275,275,118,1,119,meşhur,1092,49.6161,1057,0.1156,6,notharmonic,1.9,word,m,,,,,,,
,,,,,,,,,,,Ege,001,2023-11-08_19h35.59.776,vowel_harmony,2023.2.3,MacIntel,66.66666667,563.165,564.165,,,,,,,,,,,,,,,,,,,,,,,,,,564.165,564.833,m,1,0.648,,564.833,564.833,,0,276,276,45,1,46,bilgi,5981,271.7529,5353,0.5852,5,harmonic,1.5,word,m,,,,,,,
,,,,,,,,,,,Ege,001,2023-11-08_19h35.59.776,vowel_harmony,2023.2.3,MacIntel,66.66666667,564.833,565.832,,,,,,,,,,,,,,,,,,,,,,,,,,565.832,566.633,z,1,0.779,,566.633,566.633,,0,277,277,202,1,203,güvin,,,,,5,harmonic,1.95,nw,z,,,,,,,
,,,,,,,,,,,Ege,001,2023-11-08_19h35.59.776,vowel_harmony,2023.2.3,MacIntel,66.66666667,566.634,567.634,,,,,,,,,,,,,,,,,,,,,,,,,,567.634,568.401,z,1,0.746,,568.401,568.401,,0,278,278,342,1,343,kulön,,,,,5,notharmonic,1.9,nw,z,,,,,,,
,,,,,,,,,,,Ege,001,2023-11-08_19h35.59.776,vowel_harmony,2023.2.3,MacIntel,66.66666667,568.401,569.402,,,,,,,,,,,,,,,,,,,,,,,,,,569.402,569.951,m,1,0.531,,569.951,569.951,,0,279,279,100,1,101,düşman,1065,48.3894,962,0.1052,6,notharmonic,1.85,word,m,,,,,,,
,,,,,,,,,,,Ege,001,2023-11-08_19h35.59.776,vowel_harmony,2023.2.3,MacIntel,66.66666667,569.951,570.952,,,,,,,,,,,,,,,,,,,,,,,,,,570.952,572.036,z,1,1.065,,572.036,572.036,,0,280,280,340,1,341,minya,,,,,5,notharmonic,1.95,nw,z,,,,,,,
,,,,,,,,,,,Ege,001,2023-11-08_19h35.59.776,vowel_harmony,2023.2.3,MacIntel,66.66666667,572.036,573.036,,,,,,,,,,,,,,,,,,,,,,,,,,573.036,573.904,z,1,0.847,,573.904,573.904,,0,281,281,252,1,253,anlgı,,,,,5,harmonic,1.9,nw,z,,,,,,,
,,,,,,,,,,,Ege,001,2023-11-08_19h35.59.776,vowel_harmony,2023.2.3,MacIntel,66.66666667,573.904,574.904,,,,,,,,,,,,,,,,,,,,,,,,,,574.904,575.804,m,1,0.88,,575.804,575.804,,0,282,282,157,1,158,aktif,1062,48.2531,986,0.1078,5,notharmonic,1.9,word,m,,,,,,,
,,,,,,,,,,,Ege,001,2023-11-08_19h35.59.776,vowel_harmony,2023.2.3,MacIntel,66.66666667,575.804,576.805,,,,,,,,,,,,,,,,,,,,,,,,,,576.805,577.706,m,1,0.877,,577.706,577.706,,0,283,283,24,1,25,yorgun,1153,52.3877,1108,0.1211,6,harmonic,1.55,word,m,,,,,,,
,,,,,,,,,,,Ege,001,2023-11-08_19h35.59.776,vowel_harmony,2023.2.3,MacIntel,66.66666667,577.706,578.706,,,,,,,,,,,,,,,,,,,,,,,,,,578.706,579.439,z,1,0.713,,579.439,579.439,,0,284,284,334,1,335,işgan,,,,,5,notharmonic,1.95,nw,z,,,,,,,
,,,,,,,,,,,Ege,001,2023-11-08_19h35.59.776,vowel_harmony,2023.2.3,MacIntel,66.66666667,579.439,580.44,,,,,,,,,,,,,,,,,,,,,,,,,,580.44,581.073,m,0,0.613,,581.073,581.073,,0,285,285,207,1,208,örtre,,,,,5,harmonic,1.85,nw,z,,,,,,,
,,,,,,,,,,,Ege,001,2023-11-08_19h35.59.776,vowel_harmony,2023.2.3,MacIntel,66.66666667,581.073,582.073,,,,,,,,,,,,,,,,,,,,,,,,,,582.073,582.824,z,0,0.729,,582.824,582.824,,0,286,286,106,1,107,esnaf,315,14.3124,284,0.031,5,notharmonic,1.55,word,m,,,,,,,
,,,,,,,,,,,Ege,001,2023-11-08_19h35.59.776,vowel_harmony,2023.2.3,MacIntel,66.66666667,582.824,583.826,,,,,,,,,,,,,,,,,,,,,,,,,,583.826,584.558,z,1,0.712,,584.558,584.558,,0,287,287,272,1,273,daken,,,,,5,notharmonic,1.8,nw,z,,,,,,,
,,,,,,,,,,,Ege,001,2023-11-08_19h35.59.776,vowel_harmony,2023.2.3,MacIntel,66.66666667,584.558,585.559,,,,,,,,,,,,,,,,,,,,,,,,,,585.559,586.06,m,1,0.476,,586.06,586.06,,0,288,288,153,1,154,inşaat,432,19.6284,376,0.0411,6,notharmonic,1.6,word,m,,,,,,,
,,,,,,,,,,,Ege,001,2023-11-08_19h35.59.776,vowel_harmony,2023.2.3,MacIntel,66.66666667,586.06,587.06,,,,,,,,,,,,,,,,,,,,,,,,,,587.06,587.76,z,1,0.677,,587.76,587.761,,0,289,289,339,1,340,asmel,,,,,5,notharmonic,1.95,nw,z,,,,,,,
,,,,,,,,,,,Ege,001,2023-11-08_19h35.59.776,vowel_harmony,2023.2.3,MacIntel,66.66666667,587.761,588.761,,,,,,,,,,,,,,,,,,,,,,,,,,588.761,589.577,z,1,0.793,,589.577,589.578,,0,290,290,268,1,269,haldum,,,,,6,harmonic,2,nw,z,,,,,,,
,,,,,,,,,,,Ege,001,2023-11-08_19h35.59.776,vowel_harmony,2023.2.3,MacIntel,66.66666667,589.578,590.578,,,,,,,,,,,,,,,,,,,,,,,,,,590.578,591.762,z,1,1.162,,591.762,591.762,,0,291,291,286,1,287,cedan,,,,,5,notharmonic,1.8,nw,z,,,,,,,
,,,,,,,,,,,Ege,001,2023-11-08_19h35.59.776,vowel_harmony,2023.2.3,MacIntel,66.66666667,591.762,592.762,,,,,,,,,,,,,,,,,,,,,,,,,,592.762,593.446,m,1,0.658,,593.446,593.446,,0,292,292,25,1,26,rapor,703,31.9415,617,0.0675,5,harmonic,1.8,word,m,,,,,,,
,,,,,,,,,,,Ege,001,2023-11-08_19h35.59.776,vowel_harmony,2023.2.3,MacIntel,66.66666667,593.447,594.447,,,,,,,,,,,,,,,,,,,,,,,,,,594.447,595.046,z,1,0.579,,595.046,595.046,,0,293,293,201,1,202,ergiy,,,,,5,harmonic,1.85,nw,z,,,,,,,
,,,,,,,,,,,Ege,001,2023-11-08_19h35.59.776,vowel_harmony,2023.2.3,MacIntel,66.66666667,595.046,596.047,,,,,,,,,,,,,,,,,,,,,,,,,,596.047,596.697,m,1,0.63,,596.697,596.698,,0,294,294,59,1,60,köpek,1044,47.4352,901,0.0985,5,harmonic,1.75,word,m,,,,,,,
,,,,,,,,,,,Ege,001,2023-11-08_19h35.59.776,vowel_harmony,2023.2.3,MacIntel,66.66666667,596.698,597.699,,,,,,,,,,,,,,,,,,,,,,,,,,597.699,598.548,m,1,0.825,,598.548,598.548,,0,295,295,126,1,127,adet,4367,198.4192,3768,0.4119,4,notharmonic,1.4,word,m,,,,,,,
,,,,,,,,,,,Ege,001,2023-11-08_19h35.59.776,vowel_harmony,2023.2.3,MacIntel,66.66666667,598.548,599.549,,,,,,,,,,,,,,,,,,,,,,,,,,599.549,600.316,m,1,0.746,,600.316,600.316,,0,296,296,154,1,155,sakin,1855,84.2838,1635,0.1787,5,notharmonic,1.05,word,m,,,,,,,
,,,,,,,,,,,Ege,001,2023-11-08_19h35.59.776,vowel_harmony,2023.2.3,MacIntel,66.66666667,600.317,601.316,,,,,,,,,,,,,,,,,,,,,,,,,,601.316,601.933,m,1,0.595,,601.934,601.934,,0,297,297,107,1,108,merak,5806,263.8016,5524,0.6039,5,notharmonic,1.65,word,m,,,,,,,
,,,,,,,,,,,Ege,001,2023-11-08_19h35.59.776,vowel_harmony,2023.2.3,MacIntel,66.66666667,601.934,602.934,,,,,,,,,,,,,,,,,,,,,,,,,,602.934,603.534,m,1,0.581,,603.534,603.534,,0,298,298,17,1,18,yakın,7990,363.0339,7595,0.8303,5,harmonic,1.8,word,m,,,,,,,
,,,,,,,,,,,Ege,001,2023-11-08_19h35.59.776,vowel_harmony,2023.2.3,MacIntel,66.66666667,603.534,604.534,,,,,,,,,,,,,,,,,,,,,,,,,,604.534,605.135,z,1,0.581,,605.135,605.135,,0,299,299,298,1,299,yelsın,,,,,6,notharmonic,1.95,nw,z,,,,,,,
,,,,,,,,,,,Ege,001,2023-11-08_19h35.59.776,vowel_harmony,2023.2.3,MacIntel,66.66666667,605.136,606.136,,,,,,,,,,,,,,,,,,,,,,,,,,606.136,606.786,z,1,0.629,,606.786,606.786,,0,300,300,304,1,305,annö,,,,,4,notharmonic,1.95,nw,z,,,,,,,
,,,,,,,,,,,Ege,001,2023-11-08_19h35.59.776,vowel_harmony,2023.2.3,MacIntel,66.66666667,606.787,607.786,,,,,,,,,,,,,,,,,,,,,,,,,,607.786,608.47,z,1,0.662,,608.47,608.471,,0,301,301,318,1,319,yorgün,,,,,6,notharmonic,1.9,nw,z,,,,,,,
,,,,,,,,,,,Ege,001,2023-11-08_19h35.59.776,vowel_harmony,2023.2.3,MacIntel,66.66666667,608.471,609.47,,,,,,,,,,,,,,,,,,,,,,,,,,609.47,609.988,m,1,0.496,,609.988,609.988,,0,302,302,148,1,149,selam,1868,84.8745,1764,0.1928,5,notharmonic,1.35,word,m,,,,,,,
,,,,,,,,,,,Ege,001,2023-11-08_19h35.59.776,vowel_harmony,2023.2.3,MacIntel,66.66666667,609.988,610.988,,,,,,,,,,,,,,,,,,,,,,,,,,610.988,611.52,z,1,0.511,,611.52,611.521,,0,303,303,257,1,258,zerü,,,,,4,harmonic,1.8,nw,z,,,,,,,
,,,,,,,,,,,Ege,001,2023-11-08_19h35.59.776,vowel_harmony,2023.2.3,MacIntel,66.66666667,611.521,612.522,,,,,,,,,,,,,,,,,,,,,,,,,,612.522,613.122,z,1,0.579,,613.122,613.123,,0,304,304,279,1,280,tadde,,,,,5,notharmonic,1.8,nw,z,,,,,,,
,,,,,,,,,,,Ege,001,2023-11-08_19h35.59.776,vowel_harmony,2023.2.3,MacIntel,66.66666667,613.123,614.123,,,,,,,,,,,,,,,,,,,,,,,,,,614.123,614.623,z,1,0.478,,614.623,614.623,,0,305,305,274,1,275,pisan,,,,,5,notharmonic,1.75,nw,z,,,,,,,
,,,,,,,,,,,Ege,001,2023-11-08_19h35.59.776,vowel_harmony,2023.2.3,MacIntel,66.66666667,614.623,615.623,,,,,,,,,,,,,,,,,,,,,,,,,,615.623,616.29,z,1,0.646,,616.291,616.291,,0,306,306,236,1,237,toklam,,,,,6,harmonic,1.85,nw,z,,,,,,,
,,,,,,,,,,,Ege,001,2023-11-08_19h35.59.776,vowel_harmony,2023.2.3,MacIntel,66.66666667,616.291,617.291,,,,,,,,,,,,,,,,,,,,,,,,,,617.291,617.908,m,1,0.593,,617.908,617.908,,0,307,307,52,1,53,resim,2506,113.8627,2188,0.2392,5,harmonic,1.4,word,m,,,,,,,
,,,,,,,,,,,Ege,001,2023-11-08_19h35.59.776,vowel_harmony,2023.2.3,MacIntel,66.66666667,617.908,618.908,,,,,,,,,,,,,,,,,,,,,,,,,,618.908,619.475,z,1,0.544,,619.475,619.476,,0,308,308,267,1,268,nokuma,,,,,6,harmonic,1.75,nw,z,,,,,,,
,,,,,,,,,,,Ege,001,2023-11-08_19h35.59.776,vowel_harmony,2023.2.3,MacIntel,66.66666667,619.476,620.476,,,,,,,,,,,,,,,,,,,,,,,,,,620.476,621.059,m,1,0.561,,621.059,621.059,,0,309,309,80,1,81,merkez,1445,65.6551,1255,0.1372,6,harmonic,1.8,word,m,,,,,,,
,,,,,,,,,,,Ege,001,2023-11-08_19h35.59.776,vowel_harmony,2023.2.3,MacIntel,66.66666667,621.059,622.059,,,,,,,,,,,,,,,,,,,,,,,,,,622.059,622.677,z,1,0.597,,622.677,622.677,,0,310,310,203,1,204,döves,,,,,5,harmonic,1.8,nw,z,,,,,,,
,,,,,,,,,,,Ege,001,2023-11-08_19h35.59.776,vowel_harmony,2023.2.3,MacIntel,66.66666667,622.677,623.677,,,,,,,,,,,,,,,,,,,,,,,,,,623.677,624.161,z,1,0.463,,624.161,624.161,,0,311,311,196,1,197,bilön,,,,,5,harmonic,1.9,nw,z,,,,,,,
,,,,,,,,,,,Ege,001,2023-11-08_19h35.59.776,vowel_harmony,2023.2.3,MacIntel,66.66666667,624.161,625.161,,,,,,,,,,,,,,,,,,,,,,,,,,625.161,625.745,m,1,0.559,,625.745,625.745,,0,312,312,33,1,34,moda,1381,62.7472,1231,0.1346,4,harmonic,1.55,word,m,,,,,,,
,,,,,,,,,,,Ege,001,2023-11-08_19h35.59.776,vowel_harmony,2023.2.3,MacIntel,66.66666667,625.745,626.744,,,,,,,,,,,,,,,,,,,,,,,,,,626.744,627.429,m,1,0.664,,627.429,627.429,,0,313,313,34,1,35,hoca,1893,86.0104,1526,0.1668,4,harmonic,1.45,word,m,,,,,,,
,,,,,,,,,,,Ege,001,2023-11-08_19h35.59.776,vowel_harmony,2023.2.3,MacIntel,66.66666667,627.429,628.429,,,,,,,,,,,,,,,,,,,,,,,,,,628.429,629.163,z,1,0.713,,629.163,629.163,,0,314,314,266,1,267,düştön,,,,,6,harmonic,1.9,nw,z,,,,,,,
,,,,,,,,,,,Ege,001,2023-11-08_19h35.59.776,vowel_harmony,2023.2.3,MacIntel,66.66666667,629.164,630.163,,,,,,,,,,,,,,,,,,,,,,,,,,630.163,630.764,m,1,0.578,,630.764,630.764,,0,315,315,103,1,104,tane,5623,255.4868,5075,0.5548,4,notharmonic,1.3,word,m,,,,,,,
,,,,,,,,,,,Ege,001,2023-11-08_19h35.59.776,vowel_harmony,2023.2.3,MacIntel,66.66666667,630.764,631.767,,,,,,,,,,,,,,,,,,,,,,,,,,631.767,632.765,z,1,0.974,,632.765,632.765,,0,316,316,270,1,271,miyaj,,,,,5,notharmonic,1.9,nw,z,,,,,,,
,,,,,,,,,,,Ege,001,2023-11-08_19h35.59.776,vowel_harmony,2023.2.3,MacIntel,66.66666667,632.765,633.765,,,,,,,,,,,,,,,,,,,,,,,,,,633.765,634.348,z,1,0.559,,634.348,634.349,,0,317,317,275,1,276,tahçe,,,,,5,notharmonic,1.95,nw,z,,,,,,,
,,,,,,,,,,,Ege,001,2023-11-08_19h35.59.776,vowel_harmony,2023.2.3,MacIntel,66.66666667,634.349,635.35,,,,,,,,,,,,,,,,,,,,,,,,,,635.35,635.915,m,1,0.548,,635.916,635.916,,0,318,318,68,1,69,ücret,734,33.35,634,0.0693,5,harmonic,1.85,word,m,,,,,,,
,,,,,,,,,,,Ege,001,2023-11-08_19h35.59.776,vowel_harmony,2023.2.3,MacIntel,66.66666667,635.916,636.916,,,,,,,,,,,,,,,,,,,,,,,,,,636.916,637.75,z,1,0.814,,637.75,637.75,,0,319,319,346,1,347,kidan,,,,,5,notharmonic,1.8,nw,z,,,,,,,
,,,,,,,,,,,Ege,001,2023-11-08_19h35.59.776,vowel_harmony,2023.2.3,MacIntel,66.66666667,637.75,638.751,,,,,,,,,,,,,,,,,,,,,,,,,,638.751,639.351,m,1,0.576,,639.351,639.352,,0,320,320,145,1,146,iddia,2430,110.4096,2295,0.2509,5,notharmonic,1.85,word,m,,,,,,,
,,,,,,,,,,,Ege,001,2023-11-08_19h35.59.776,vowel_harmony,2023.2.3,MacIntel,66.66666667,639.352,640.351,,,,,,,,,,,,,,,,,,,,,,,,,,640.351,641.152,m,1,0.782,,641.152,641.152,,0,321,321,57,1,58,bölüm,1910,86.7828,1605,0.1755,5,harmonic,1.45,word,m,,,,,,,
,,,,,,,,,,,Ege,001,2023-11-08_19h35.59.776,vowel_harmony,2023.2.3,MacIntel,66.66666667,641.152,642.153,,,,,,,,,,,,,,,,,,,,,,,,,,642.153,642.719,z,1,0.546,,642.719,642.719,,0,322,322,316,1,317,misaf,,,,,5,notharmonic,1.85,nw,z,,,,,,,
,,,,,,,,,,,Ege,001,2023-11-08_19h35.59.776,vowel_harmony,2023.2.3,MacIntel,66.66666667,642.72,643.72,,,,,,,,,,,,,,,,,,,,,,,,,,643.72,644.303,z,1,0.561,,644.303,644.303,,0,323,323,336,1,337,diyam,,,,,5,notharmonic,1.85,nw,z,,,,,,,
,,,,,,,,,,,Ege,001,2023-11-08_19h35.59.776,vowel_harmony,2023.2.3,MacIntel,66.66666667,644.303,645.303,,,,,,,,,,,,,,,,,,,,,,,,,,645.303,645.971,m,1,0.645,,645.971,645.971,,0,324,324,104,1,105,cevap,5232,237.7213,4822,0.5271,5,notharmonic,1.85,word,m,,,,,,,
,,,,,,,,,,,Ege,001,2023-11-08_19h35.59.776,vowel_harmony,2023.2.3,MacIntel,66.66666667,645.971,646.974,,,,,,,,,,,,,,,,,,,,,,,,,,646.975,647.671,m,1,0.653,,647.671,647.671,,0,325,325,32,1,33,temel,4231,192.2399,3851,0.421,5,harmonic,1.55,word,m,,,,,,,
,,,,,,,,,,,Ege,001,2023-11-08_19h35.59.776,vowel_harmony,2023.2.3,MacIntel,66.66666667,647.672,648.672,,,,,,,,,,,,,,,,,,,,,,,,,,648.672,649.355,z,1,0.659,,649.355,649.355,,0,326,326,250,1,251,kakuk,,,,,5,harmonic,1.9,nw,z,,,,,,,
,,,,,,,,,,,Ege,001,2023-11-08_19h35.59.776,vowel_harmony,2023.2.3,MacIntel,66.66666667,649.355,650.356,,,,,,,,,,,,,,,,,,,,,,,,,,650.356,651.19,z,1,0.809,,651.19,651.19,,0,327,327,323,1,324,devak,,,,,5,notharmonic,1.75,nw,z,,,,,,,
,,,,,,,,,,,Ege,001,2023-11-08_19h35.59.776,vowel_harmony,2023.2.3,MacIntel,66.66666667,651.19,652.19,,,,,,,,,,,,,,,,,,,,,,,,,,652.19,652.957,z,1,0.745,,652.957,652.957,,0,328,328,291,1,292,mepan,,,,,5,notharmonic,1.75,nw,z,,,,,,,
,,,,,,,,,,,Ege,001,2023-11-08_19h35.59.776,vowel_harmony,2023.2.3,MacIntel,66.66666667,652.957,653.957,,,,,,,,,,,,,,,,,,,,,,,,,,653.957,654.724,m,1,0.74,,654.724,654.724,,0,329,329,109,1,110,milyon,3936,178.8362,2958,0.3234,6,notharmonic,1.75,word,m,,,,,,,
,,,,,,,,,,,Ege,001,2023-11-08_19h35.59.776,vowel_harmony,2023.2.3,MacIntel,66.66666667,654.725,655.725,,,,,,,,,,,,,,,,,,,,,,,,,,655.725,656.209,m,1,0.464,,656.209,656.209,,0,330,330,85,1,86,geçmiş,4195,190.6042,4039,0.4415,6,harmonic,1.55,word,m,,,,,,,
,,,,,,,,,,,Ege,001,2023-11-08_19h35.59.776,vowel_harmony,2023.2.3,MacIntel,66.66666667,656.21,657.209,,,,,,,,,,,,,,,,,,,,,,,,,,657.209,657.809,m,1,0.582,,657.809,657.809,,0,331,331,43,1,44,geniş,3380,153.5738,3185,0.3482,5,harmonic,1.35,word,m,,,,,,,
,,,,,,,,,,,Ege,001,2023-11-08_19h35.59.776,vowel_harmony,2023.2.3,MacIntel,66.66666667,657.81,658.811,,,,,,,,,,,,,,,,,,,,,,,,,,658.811,659.428,z,1,0.597,,659.428,659.428,,0,332,332,290,1,291,aipa,,,,,4,notharmonic,1.95,nw,z,,,,,,,
,,,,,,,,,,,Ege,001,2023-11-08_19h35.59.776,vowel_harmony,2023.2.3,MacIntel,66.66666667,659.428,660.427,,,,,,,,,,,,,,,,,,,,,,,,,,660.427,660.995,m,1,0.544,,660.995,660.995,,0,333,333,11,1,12,umut,1988,90.3268,1818,0.1987,4,harmonic,1.55,word,m,,,,,,,
,,,,,,,,,,,Ege,001,2023-11-08_19h35.59.776,vowel_harmony,2023.2.3,MacIntel,66.66666667,660.995,661.971,,,,,,,,,,,,,,,,,,,,,,,,,,661.971,662.509,z,1,0.516,,662.509,662.509,,0,334,334,309,1,310,yorgen,,,,,6,notharmonic,1.9,nw,z,,,,,,,
,,,,,,,,,,,Ege,001,2023-11-08_19h35.59.776,vowel_harmony,2023.2.3,MacIntel,66.66666667,662.51,663.513,,,,,,,,,,,,,,,,,,,,,,,,,,663.513,664.012,z,0,0.478,,664.012,664.012,,0,335,335,77,1,78,ufak,3252,147.758,2980,0.3258,4,harmonic,1.5,word,m,,,,,,,
,,,,,,,,,,,Ege,001,2023-11-08_19h35.59.776,vowel_harmony,2023.2.3,MacIntel,66.66666667,664.012,665.014,,,,,,,,,,,,,,,,,,,,,,,,,,665.014,665.53,m,1,0.497,,665.53,665.53,,0,336,336,124,1,125,ilan,1579,71.7435,1499,0.1639,4,notharmonic,1,word,m,,,,,,,
,,,,,,,,,,,Ege,001,2023-11-08_19h35.59.776,vowel_harmony,2023.2.3,MacIntel,66.66666667,665.53,666.53,,,,,,,,,,,,,,,,,,,,,,,,,,666.53,667.047,m,1,0.496,,667.047,667.047,,0,337,337,176,1,177,harika,4682,212.7315,4422,0.4834,6,notharmonic,1.9,word,m,,,,,,,
,,,,,,,,,,,Ege,001,2023-11-08_19h35.59.776,vowel_harmony,2023.2.3,MacIntel,66.66666667,667.047,668.048,,,,,,,,,,,,,,,,,,,,,,,,,,668.048,668.782,z,1,0.713,,668.782,668.782,,0,338,338,344,1,345,barika,,,,,6,notharmonic,1.75,nw,z,,,,,,,
,,,,,,,,,,,Ege,001,2023-11-08_19h35.59.776,vowel_harmony,2023.2.3,MacIntel,66.66666667,668.782,669.782,,,,,,,,,,,,,,,,,,,,,,,,,,669.782,670.399,z,1,0.594,,670.399,670.4,,0,339,339,229,1,230,tonam,,,,,5,harmonic,1.8,nw,z,,,,,,,
,,,,,,,,,,,Ege,001,2023-11-08_19h35.59.776,vowel_harmony,2023.2.3,MacIntel,66.66666667,670.4,671.399,,,,,,,,,,,,,,,,,,,,,,,,,,671.399,671.982,z,1,0.563,,671.982,671.983,,0,340,340,246,1,247,orkın,,,,,5,harmonic,1.9,nw,z,,,,,,,
,,,,,,,,,,,Ege,001,2023-11-08_19h35.59.776,vowel_harmony,2023.2.3,MacIntel,66.66666667,671.983,672.984,,,,,,,,,,,,,,,,,,,,,,,,,,672.984,673.534,z,1,0.529,,673.534,673.534,,0,341,341,281,1,282,afel,,,,,4,notharmonic,1.8,nw,z,,,,,,,
,,,,,,,,,,,Ege,001,2023-11-08_19h35.59.776,vowel_harmony,2023.2.3,MacIntel,66.66666667,673.534,674.534,,,,,,,,,,,,,,,,,,,,,,,,,,674.534,675.051,m,1,0.497,,675.051,675.051,,0,342,342,9,1,10,karar,8108,368.3954,7436,0.8129,5,harmonic,1.6,word,m,,,,,,,
,,,,,,,,,,,Ege,001,2023-11-08_19h35.59.776,vowel_harmony,2023.2.3,MacIntel,66.66666667,675.051,676.051,,,,,,,,,,,,,,,,,,,,,,,,,,676.051,676.752,z,1,0.681,,676.752,676.753,,0,343,343,322,1,323,normin,,,,,6,notharmonic,1.95,nw,z,,,,,,,
,,,,,,,,,,,Ege,001,2023-11-08_19h35.59.776,vowel_harmony,2023.2.3,MacIntel,66.66666667,676.753,677.752,,,,,,,,,,,,,,,,,,,,,,,,,,677.752,678.57,m,1,0.796,,678.57,678.57,,0,344,344,65,1,66,fikir,2552,115.9528,2413,0.2638,5,harmonic,1.9,word,m,,,,,,,
,,,,,,,,,,,Ege,001,2023-11-08_19h35.59.776,vowel_harmony,2023.2.3,MacIntel,66.66666667,678.57,679.57,,,,,,,,,,,,,,,,,,,,,,,,,,679.57,680.67,z,1,1.078,,680.67,680.67,,0,345,345,312,1,313,şahmin,,,,,6,notharmonic,1.8,nw,z,,,,,,,
,,,,,,,,,,,Ege,001,2023-11-08_19h35.59.776,vowel_harmony,2023.2.3,MacIntel,66.66666667,680.67,681.671,,,,,,,,,,,,,,,,,,,,,,,,,,681.671,682.338,z,1,0.65,,682.338,682.338,,0,346,346,330,1,331,vahçe,,,,,5,notharmonic,1.9,nw,z,,,,,,,
,,,,,,,,,,,Ege,001,2023-11-08_19h35.59.776,vowel_harmony,2023.2.3,MacIntel,66.66666667,682.338,683.339,,,,,,,,,,,,,,,,,,,,,,,,,,683.339,684.238,z,1,0.881,,684.238,684.238,,0,347,347,210,1,211,şevci,,,,,5,harmonic,1.75,nw,z,,,,,,,
,,,,,,,,,,,Ege,001,2023-11-08_19h35.59.776,vowel_harmony,2023.2.3,MacIntel,66.66666667,684.238,685.24,,,,,,,,,,,,,,,,,,,,,,,,,,685.24,686.139,z,1,0.877,,686.139,686.139,,0,348,348,332,1,333,tahane,,,,,6,notharmonic,1.85,nw,z,,,,,,,
,,,,,,,,,,,Ege,001,2023-11-08_19h35.59.776,vowel_harmony,2023.2.3,MacIntel,66.66666667,686.139,687.14,,,,,,,,,,,,,,,,,,,,,,,,,,687.14,687.691,z,1,0.528,,687.691,687.691,,0,349,349,220,1,221,denbi,,,,,5,harmonic,1.75,nw,z,,,,,,,
,,,,,,,,,,,Ege,001,2023-11-08_19h35.59.776,vowel_harmony,2023.2.3,MacIntel,66.66666667,687.691,688.691,,,,,,,,,,,,,,,,,,,,,,,,,,688.692,689.291,m,1,0.58,,689.292,689.292,,0,350,350,169,1,170,hikaye,1555,70.653,1405,0.1536,6,notharmonic,1.8,word,m,,,,,,,
,,,,,,,,,,,Ege,001,2023-11-08_19h35.59.776,vowel_harmony,2023.2.3,MacIntel,66.66666667,689.292,690.291,,,,,,,,,,,,,,,,,,,,,,,,,,690.291,691.176,m,1,0.866,,691.176,691.176,,0,351,351,47,1,48,kaza,740,33.6227,679,0.0742,4,harmonic,1.85,word,m,,,,,,,
,,,,,,,,,,,Ege,001,2023-11-08_19h35.59.776,vowel_harmony,2023.2.3,MacIntel,66.66666667,691.176,692.175,,,,,,,,,,,,,,,,,,,,,,,,,,692.175,692.809,z,1,0.615,,692.809,692.809,,0,352,352,288,1,289,molit,,,,,5,notharmonic,1.95,nw,z,,,,,,,
,,,,,,,,,,,Ege,001,2023-11-08_19h35.59.776,vowel_harmony,2023.2.3,MacIntel,66.66666667,692.81,693.811,,,,,,,,,,,,,,,,,,,,,,,,,,693.811,694.461,m,1,0.63,,694.461,694.461,,0,353,353,144,1,145,garip,2567,116.6343,2355,0.2574,5,notharmonic,1.65,word,m,,,,,,,
,,,,,,,,,,,Ege,001,2023-11-08_19h35.59.776,vowel_harmony,2023.2.3,MacIntel,66.66666667,694.461,695.46,,,,,,,,,,,,,,,,,,,,,,,,,,695.461,696.244,z,1,0.765,,696.244,696.244,,0,354,354,249,1,250,hurıt,,,,,5,harmonic,1.95,nw,z,,,,,,,
,,,,,,,,,,,Ege,001,2023-11-08_19h35.59.776,vowel_harmony,2023.2.3,MacIntel,66.66666667,696.244,697.245,,,,,,,,,,,,,,,,,,,,,,,,,,697.245,697.845,z,1,0.583,,697.845,697.845,,0,355,355,280,1,281,adalek,,,,,6,notharmonic,1.85,nw,z,,,,,,,
,,,,,,,,,,,Ege,001,2023-11-08_19h35.59.776,vowel_harmony,2023.2.3,MacIntel,66.66666667,697.846,698.845,,,,,,,,,,,,,,,,,,,,,,,,,,698.845,699.48,m,1,0.615,,699.48,699.48,,0,356,356,91,1,92,ifade,6177,280.6584,5726,0.626,5,notharmonic,1.7,word,m,,,,,,,
,,,,,,,,,,,Ege,001,2023-11-08_19h35.59.776,vowel_harmony,2023.2.3,MacIntel,66.66666667,699.48,700.48,,,,,,,,,,,,,,,,,,,,,,,,,,700.48,701.314,m,1,0.811,,701.314,701.314,,0,357,357,105,1,106,sahip,10887,494.6621,9847,1.0765,5,notharmonic,1.25,word,m,,,,,,,
,,,,,,,,,,,Ege,001,2023-11-08_19h35.59.776,vowel_harmony,2023.2.3,MacIntel,66.66666667,701.314,702.315,,,,,,,,,,,,,,,,,,,,,,,,,,702.315,703.014,z,1,0.679,,703.015,703.015,,0,358,358,277,1,278,balsin,,,,,6,notharmonic,1.85,nw,z,,,,,,,
,,,,,,,,,,,Ege,001,2023-11-08_19h35.59.776,vowel_harmony,2023.2.3,MacIntel,66.66666667,703.015,704.015,,,,,,,,,,,,,,,,,,,,,,,,,,704.015,704.548,m,1,0.512,,704.548,704.548,,0,359,359,177,1,178,tekrar,10788,490.1639,9352,1.0224,6,notharmonic,1.85,word,m,,,,,,,
,,,,,,,,,,,Ege,001,2023-11-08_19h35.59.776,vowel_harmony,2023.2.3,MacIntel,66.66666667,,,,,,,,,,,,,,,,,,,,,,,,,,,,,,,,,,,,,,,,,,,,,,,,,,,,,,,704.549,706.1,space,1.523,