Welcome_screen.started,Welcome_screen.stopped,key_respwelcome.keys,key_respwelcome.rt,key_respwelcome.duration,intro_x.thisRepN,intro_x.thisTrialN,intro_x.thisN,intro_x.thisIndex,intro_x.ran,Introduction,participant,session,date,expName,psychopyVersion,OS,frameRate,Fixation.started,Fixation.stopped,Studypractice.started,Studypractice.stopped,key_respstudy.keys,key_respstudy.corr,key_respstudy.rt,key_respstudy.duration,rt,corr,Feedback.started,Feedback.stopped,practice_loop.thisRepN,practice_loop.thisTrialN,practice_loop.thisN,practice_loop.thisIndex,practice_loop.ran,item_nr_p,target_p,isHarmonic_p,target_cond_p,CorrAns_p,Instraction.started,Instraction.stopped,key_respınstraction.keys,key_respınstraction.rt,key_respınstraction.duration,TestTrial.started,TestTrial.stopped,key_respTest.keys,key_respTest.corr,key_respTest.rt,key_respTest.duration,Pause.started,Pause.stopped,key_resp_xx.keys,test_loop.thisRepN,test_loop.thisTrialN,test_loop.thisN,test_loop.thisIndex,test_loop.ran,item_nr,target,BlogFreq_A1,BlogFreqpm_A1,BlogCD_A1,BlogCDPc_A1,WordLength_A1,isHarmonic_A1,old20,target_cond,CorrAns,key_resp_xx.rt,key_resp_xx.duration,Goodbye_screen.started,Goodbye_screen.stopped,key_respgoodbye.keys,key_respgoodbye.rt,key_respgoodbye.duration
0.014,2.3065,space,2.2641,,0,0,0,0,1,"Deneye hoş geldiniz,

Devam etmek için BOŞLUK tuşuna basınız.",hüsna,001,2023-11-08_11h32.17.588,vowel_harmony,2023.2.3,Win32,48.60976084,,,,,,,,,,,,,,,,,,,,,,,,,,,,,,,,,,,,,,,,,,,,,,,,,,,,,,,,,,,
2.3069,11.1176,space,8.7858,,0,1,1,1,1,"Bu çalışma Valencia Üniversitesi kapsamında yürütülmektedir. Deneydeki göreviniz, ekrana çıkacak Türkçe sözcüklerin kelime olup olmadığını belirlemenizdir. Eğer sözcük gerçek bir kelime ise ""m"" tuşuna, değil ise ""z"" tuşuna basınız.   

Devam etmek için BOŞLUK tuşuna basınız.",hüsna,001,2023-11-08_11h32.17.588,vowel_harmony,2023.2.3,Win32,48.60976084,,,,,,,,,,,,,,,,,,,,,,,,,,,,,,,,,,,,,,,,,,,,,,,,,,,,,,,,,,,
11.1182,19.3663,space,8.2298,,0,2,2,2,1,"Her sözcük için en fazla iki saniyede cevap vermeniz beklenmektedir. Aksi takdirde deney bir sonraki sözcük ile devam eder. 
Bu çalışmada oldukça hızlı ve doğru cevaplama yapmanız beklenmektedir.

Devam etmek için BOŞLUK tuşuna basınız.",hüsna,001,2023-11-08_11h32.17.588,vowel_harmony,2023.2.3,Win32,48.60976084,,,,,,,,,,,,,,,,,,,,,,,,,,,,,,,,,,,,,,,,,,,,,,,,,,,,,,,,,,,
19.367,40.2598,space,20.8675,,0,3,3,3,1,"Çalışmaya başlamadan önce ufak bir pratik yer almaktadır.
Kelimedir: ""m""
Kelime değildir: ""z""

Pratik teste başlamak için BOŞLUK tuşuna basınız. ",hüsna,001,2023-11-08_11h32.17.588,vowel_harmony,2023.2.3,Win32,48.60976084,,,,,,,,,,,,,,,,,,,,,,,,,,,,,,,,,,,,,,,,,,,,,,,,,,,,,,,,,,,
,,,,,,,,,,,hüsna,001,2023-11-08_11h32.17.588,vowel_harmony,2023.2.3,Win32,48.60976084,40.275,41.2604,41.2605,48.0094,z,1,6.7269,,6.7269,1,48.0095,49.5087,0,0,0,14,1,15,pimer,harmonic,nw,z,,,,,,,,,,,,,,,,,,,,,,,,,,,,,,,,,,,,,
,,,,,,,,,,,hüsna,001,2023-11-08_11h32.17.588,vowel_harmony,2023.2.3,Win32,48.60976084,49.5094,50.5091,50.5092,52.9457,m,1,2.4168,,2.4168,1,52.9458,54.4455,0,1,1,6,1,7,pilot,notharmonic,word,m,,,,,,,,,,,,,,,,,,,,,,,,,,,,,,,,,,,,,
,,,,,,,,,,,hüsna,001,2023-11-08_11h32.17.588,vowel_harmony,2023.2.3,Win32,48.60976084,54.446,55.4453,55.4453,57.4661,z,1,1.9966,,1.9966,1,57.4661,58.9656,0,2,2,9,1,10,orat,harmonic,nw,z,,,,,,,,,,,,,,,,,,,,,,,,,,,,,,,,,,,,,
,,,,,,,,,,,hüsna,001,2023-11-08_11h32.17.588,vowel_harmony,2023.2.3,Win32,48.60976084,58.9663,59.9655,59.9655,61.9237,m,0,1.9334,,1.9334,0,61.9237,63.4235,0,3,3,8,1,9,tahip,notharmonic,nw,z,,,,,,,,,,,,,,,,,,,,,,,,,,,,,,,,,,,,,
,,,,,,,,,,,hüsna,001,2023-11-08_11h32.17.588,vowel_harmony,2023.2.3,Win32,48.60976084,63.4241,64.4235,64.4236,66.5064,z,1,2.059,,2.059,1,66.5065,68.0063,0,4,4,13,1,14,pilar,notharmonic,nw,z,,,,,,,,,,,,,,,,,,,,,,,,,,,,,,,,,,,,,
,,,,,,,,,,,hüsna,001,2023-11-08_11h32.17.588,vowel_harmony,2023.2.3,Win32,48.60976084,68.0068,69.0064,69.0065,70.5481,z,1,1.5256,,1.5256,1,70.5481,72.0474,0,5,5,11,1,12,geki,harmonic,nw,z,,,,,,,,,,,,,,,,,,,,,,,,,,,,,,,,,,,,,
,,,,,,,,,,,hüsna,001,2023-11-08_11h32.17.588,vowel_harmony,2023.2.3,Win32,48.60976084,72.0479,73.0474,73.0474,73.7766,m,1,0.7084,,0.7084,1,73.7767,75.2763,0,6,6,3,1,4,ihlal,notharmonic,word,m,,,,,,,,,,,,,,,,,,,,,,,,,,,,,,,,,,,,,
,,,,,,,,,,,hüsna,001,2023-11-08_11h32.17.588,vowel_harmony,2023.2.3,Win32,48.60976084,75.2768,76.2763,76.2764,77.4218,z,1,1.1217,,1.1217,1,77.4218,78.9218,0,7,7,15,1,16,mımal,harmonic,nw,z,,,,,,,,,,,,,,,,,,,,,,,,,,,,,,,,,,,,,
,,,,,,,,,,,hüsna,001,2023-11-08_11h32.17.588,vowel_harmony,2023.2.3,Win32,48.60976084,78.9222,79.9217,79.9217,81.984,m,1,2.0381,,2.0381,1,81.984,83.4836,0,8,8,4,1,5,mimar,notharmonic,word,m,,,,,,,,,,,,,,,,,,,,,,,,,,,,,,,,,,,,,
,,,,,,,,,,,hüsna,001,2023-11-08_11h32.17.588,vowel_harmony,2023.2.3,Win32,48.60976084,83.4841,84.4835,84.4835,85.9,m,1,1.3971,,1.3971,1,85.9,87.4,0,9,9,1,1,2,veri,harmonic,word,m,,,,,,,,,,,,,,,,,,,,,,,,,,,,,,,,,,,,,
,,,,,,,,,,,hüsna,001,2023-11-08_11h32.17.588,vowel_harmony,2023.2.3,Win32,48.60976084,87.4006,88.3998,88.3998,90.2746,z,1,1.8574,,1.8574,1,90.2746,91.7744,0,10,10,12,1,13,ihlot,notharmonic,nw,z,,,,,,,,,,,,,,,,,,,,,,,,,,,,,,,,,,,,,
,,,,,,,,,,,hüsna,001,2023-11-08_11h32.17.588,vowel_harmony,2023.2.3,Win32,48.60976084,91.7751,92.7741,92.7742,93.8992,m,1,1.1009,,1.1009,1,93.8992,95.3989,0,11,11,5,1,6,bahçe,notharmonic,word,m,,,,,,,,,,,,,,,,,,,,,,,,,,,,,,,,,,,,,
,,,,,,,,,,,hüsna,001,2023-11-08_11h32.17.588,vowel_harmony,2023.2.3,Win32,48.60976084,95.3996,96.3987,96.3987,97.0238,m,1,0.603,,0.603,1,97.0239,98.5249,0,12,12,0,1,1,ihale,notharmonic,word,m,,,,,,,,,,,,,,,,,,,,,,,,,,,,,,,,,,,,,
,,,,,,,,,,,hüsna,001,2023-11-08_11h32.17.588,vowel_harmony,2023.2.3,Win32,48.60976084,98.525,99.5236,99.5236,100.1483,m,1,0.6055,,0.6055,1,100.1483,101.6482,0,13,13,2,1,3,memur,notharmonic,word,m,,,,,,,,,,,,,,,,,,,,,,,,,,,,,,,,,,,,,
,,,,,,,,,,,hüsna,001,2023-11-08_11h32.17.588,vowel_harmony,2023.2.3,Win32,48.60976084,101.6487,102.648,102.6481,103.7521,z,1,1.0866,,1.0866,1,103.7521,105.2519,0,14,14,10,1,11,mahne,notharmonic,nw,z,,,,,,,,,,,,,,,,,,,,,,,,,,,,,,,,,,,,,
,,,,,,,,,,,hüsna,001,2023-11-08_11h32.17.588,vowel_harmony,2023.2.3,Win32,48.60976084,105.2524,106.2516,106.2516,107.0227,m,1,0.7499,,0.7499,1,107.0227,108.5223,0,15,15,7,1,8,oran,harmonic,word,m,,,,,,,,,,,,,,,,,,,,,,,,,,,,,,,,,,,,,
,,,,,,,,,,,hüsna,001,2023-11-08_11h32.17.588,vowel_harmony,2023.2.3,Win32,48.60976084,,,,,,,,,,,,,,,,,,,,,,,108.5231,117.3346,space,8.7866,,,,,,,,,,,,,,,,,,,,,,,,,,,,,,,,,
,,,,,,,,,,,hüsna,001,2023-11-08_11h32.17.588,vowel_harmony,2023.2.3,Win32,48.60976084,117.3673,118.3544,,,,,,,,,,,,,,,,,,,,,,,,,,118.3548,119.0633,m,1,0.6842,,119.0636,119.0642,,0,0,0,29,1,30,huzur,1911,86.8283,1799,0.1967,5,harmonic,1.8,word,m,,,,,,,
,,,,,,,,,,,hüsna,001,2023-11-08_11h32.17.588,vowel_harmony,2023.2.3,Win32,48.60976084,119.0646,120.0627,,,,,,,,,,,,,,,,,,,,,,,,,,120.0628,120.8333,m,1,0.7454,,120.8334,120.8335,,0,1,1,41,1,42,zengin,2193,99.6412,2015,0.2203,6,harmonic,1.65,word,m,,,,,,,
,,,,,,,,,,,hüsna,001,2023-11-08_11h32.17.588,vowel_harmony,2023.2.3,Win32,48.60976084,120.834,121.8333,,,,,,,,,,,,,,,,,,,,,,,,,,121.8334,123.1662,z,1,1.3093,,123.1662,123.1664,,0,2,2,231,1,232,norgun,,,,,6,harmonic,1.75,nw,z,,,,,,,
,,,,,,,,,,,hüsna,001,2023-11-08_11h32.17.588,vowel_harmony,2023.2.3,Win32,48.60976084,123.1668,124.1668,,,,,,,,,,,,,,,,,,,,,,,,,,124.1669,125.2496,z,1,1.0591,,125.2498,125.2499,,0,3,3,233,1,234,devpi,,,,,5,harmonic,1.8,nw,z,,,,,,,
,,,,,,,,,,,hüsna,001,2023-11-08_11h32.17.588,vowel_harmony,2023.2.3,Win32,48.60976084,125.2504,126.2493,,,,,,,,,,,,,,,,,,,,,,,,,,126.2494,127.4576,z,1,1.1868,,127.4577,127.4579,,0,4,4,314,1,315,seral,,,,,5,notharmonic,1.7,nw,z,,,,,,,
,,,,,,,,,,,hüsna,001,2023-11-08_11h32.17.588,vowel_harmony,2023.2.3,Win32,48.60976084,127.4647,128.4573,,,,,,,,,,,,,,,,,,,,,,,,,,128.4574,129.1448,m,1,0.672,,129.1449,129.1451,,0,5,5,43,1,44,geniş,3380,153.5738,3185,0.3482,5,harmonic,1.35,word,m,,,,,,,
,,,,,,,,,,,hüsna,001,2023-11-08_11h32.17.588,vowel_harmony,2023.2.3,Win32,48.60976084,129.1455,130.1449,,,,,,,,,,,,,,,,,,,,,,,,,,130.145,131.3945,z,1,1.2314,,131.3946,131.3946,,0,6,6,224,1,225,ertre,,,,,5,harmonic,1.95,nw,z,,,,,,,
,,,,,,,,,,,hüsna,001,2023-11-08_11h32.17.588,vowel_harmony,2023.2.3,Win32,48.60976084,131.4018,132.3944,,,,,,,,,,,,,,,,,,,,,,,,,,132.3946,133.1029,m,1,0.6882,,133.103,133.1033,,0,7,7,96,1,97,dahil,3189,144.8955,3060,0.3345,5,notharmonic,1.7,word,m,,,,,,,
,,,,,,,,,,,hüsna,001,2023-11-08_11h32.17.588,vowel_harmony,2023.2.3,Win32,48.60976084,133.1037,134.1026,,,,,,,,,,,,,,,,,,,,,,,,,,134.1026,134.8318,m,1,0.7039,,134.8318,134.832,,0,8,8,157,1,158,aktif,1062,48.2531,986,0.1078,5,notharmonic,1.9,word,m,,,,,,,
,,,,,,,,,,,hüsna,001,2023-11-08_11h32.17.588,vowel_harmony,2023.2.3,Win32,48.60976084,134.8325,135.8317,,,,,,,,,,,,,,,,,,,,,,,,,,135.8317,136.5816,m,1,0.7263,,136.5817,136.5818,,0,9,9,6,1,7,hayal,4498,204.3713,4079,0.4459,5,harmonic,1.45,word,m,,,,,,,
,,,,,,,,,,,hüsna,001,2023-11-08_11h32.17.588,vowel_harmony,2023.2.3,Win32,48.60976084,136.5824,137.5813,,,,,,,,,,,,,,,,,,,,,,,,,,137.5813,138.4772,z,1,0.8716,,138.4772,138.4774,,0,10,10,251,1,252,oştay,,,,,5,harmonic,1.95,nw,z,,,,,,,
,,,,,,,,,,,hüsna,001,2023-11-08_11h32.17.588,vowel_harmony,2023.2.3,Win32,48.60976084,138.4779,139.477,,,,,,,,,,,,,,,,,,,,,,,,,,139.477,140.2894,m,1,0.7882,,140.2894,140.2896,,0,11,11,89,1,90,etki,1234,56.0681,1169,0.1278,4,harmonic,1.4,word,m,,,,,,,
,,,,,,,,,,,hüsna,001,2023-11-08_11h32.17.588,vowel_harmony,2023.2.3,Win32,48.60976084,140.2901,141.2893,,,,,,,,,,,,,,,,,,,,,,,,,,141.2894,141.8936,m,1,0.5799,,141.8937,141.8941,,0,12,12,92,1,93,sahne,1380,62.7017,1238,0.1353,5,notharmonic,1.65,word,m,,,,,,,
,,,,,,,,,,,hüsna,001,2023-11-08_11h32.17.588,vowel_harmony,2023.2.3,Win32,48.60976084,141.8945,142.8935,,,,,,,,,,,,,,,,,,,,,,,,,,142.8935,143.6433,z,1,0.7303,,143.6434,143.6435,,0,13,13,234,1,235,düzöt,,,,,5,harmonic,2.05,nw,z,,,,,,,
,,,,,,,,,,,hüsna,001,2023-11-08_11h32.17.588,vowel_harmony,2023.2.3,Win32,48.60976084,143.6441,144.6435,,,,,,,,,,,,,,,,,,,,,,,,,,144.6436,145.7473,z,1,1.08,,145.7474,145.7476,,0,14,14,212,1,213,ortat,,,,,5,harmonic,1.7,nw,z,,,,,,,
,,,,,,,,,,,hüsna,001,2023-11-08_11h32.17.588,vowel_harmony,2023.2.3,Win32,48.60976084,145.748,146.7469,,,,,,,,,,,,,,,,,,,,,,,,,,146.747,147.8301,z,1,1.0633,,147.8302,147.8302,,0,15,15,225,1,226,düvem,,,,,5,harmonic,1.7,nw,z,,,,,,,
,,,,,,,,,,,hüsna,001,2023-11-08_11h32.17.588,vowel_harmony,2023.2.3,Win32,48.60976084,147.8307,148.8302,,,,,,,,,,,,,,,,,,,,,,,,,,148.8302,149.7675,z,1,0.9131,,149.7676,149.7678,,0,16,16,181,1,182,rapkı,,,,,5,harmonic,1.85,nw,z,,,,,,,
,,,,,,,,,,,hüsna,001,2023-11-08_11h32.17.588,vowel_harmony,2023.2.3,Win32,48.60976084,149.7682,150.7683,,,,,,,,,,,,,,,,,,,,,,,,,,150.7683,151.4133,m,1,0.6209,,151.4134,151.4136,,0,17,17,7,1,8,hizmet,3023,137.3531,2689,0.294,6,harmonic,1.75,word,m,,,,,,,
,,,,,,,,,,,hüsna,001,2023-11-08_11h32.17.588,vowel_harmony,2023.2.3,Win32,48.60976084,151.4141,152.4129,,,,,,,,,,,,,,,,,,,,,,,,,,152.4129,153.4337,z,1,0.9969,,153.4337,153.4339,,0,18,18,215,1,216,aydo,,,,,4,harmonic,1.9,nw,z,,,,,,,
,,,,,,,,,,,hüsna,001,2023-11-08_11h32.17.588,vowel_harmony,2023.2.3,Win32,48.60976084,153.4345,154.4336,,,,,,,,,,,,,,,,,,,,,,,,,,154.4336,155.267,m,1,0.809,,155.2671,155.2673,,0,19,19,171,1,172,reklam,1565,71.1074,1244,0.136,6,notharmonic,1.9,word,m,,,,,,,
,,,,,,,,,,,hüsna,001,2023-11-08_11h32.17.588,vowel_harmony,2023.2.3,Win32,48.60976084,155.2678,156.2669,,,,,,,,,,,,,,,,,,,,,,,,,,156.2669,157.1,m,1,0.8095,,157.1,157.1002,,0,20,20,70,1,71,yarın,3440,156.3,3222,0.3522,5,harmonic,1.85,word,m,,,,,,,
,,,,,,,,,,,hüsna,001,2023-11-08_11h32.17.588,vowel_harmony,2023.2.3,Win32,48.60976084,157.1006,158.1,,,,,,,,,,,,,,,,,,,,,,,,,,158.1,159.1207,z,1,0.9998,,159.1209,159.121,,0,21,21,300,1,301,nilgi,,,,,5,notharmonic,1.85,nw,z,,,,,,,
,,,,,,,,,,,hüsna,001,2023-11-08_11h32.17.588,vowel_harmony,2023.2.3,Win32,48.60976084,159.1215,160.1206,,,,,,,,,,,,,,,,,,,,,,,,,,160.1206,161.0786,z,1,0.9375,,161.0787,161.0788,,0,22,22,323,1,324,devak,,,,,5,notharmonic,1.75,nw,z,,,,,,,
,,,,,,,,,,,hüsna,001,2023-11-08_11h32.17.588,vowel_harmony,2023.2.3,Win32,48.60976084,161.0793,162.0791,,,,,,,,,,,,,,,,,,,,,,,,,,162.0791,162.8702,m,1,0.7742,,162.8702,162.8704,,0,23,23,28,1,29,parlak,1142,51.888,1088,0.1189,6,harmonic,1.7,word,m,,,,,,,
,,,,,,,,,,,hüsna,001,2023-11-08_11h32.17.588,vowel_harmony,2023.2.3,Win32,48.60976084,162.8709,163.8701,,,,,,,,,,,,,,,,,,,,,,,,,,163.8702,164.9948,z,1,1.1008,,164.9948,164.9949,,0,24,24,203,1,204,döves,,,,,5,harmonic,1.8,nw,z,,,,,,,
,,,,,,,,,,,hüsna,001,2023-11-08_11h32.17.588,vowel_harmony,2023.2.3,Win32,48.60976084,164.9955,165.9949,,,,,,,,,,,,,,,,,,,,,,,,,,165.9949,166.6408,m,1,0.6246,,166.6409,166.6411,,0,25,25,124,1,125,ilan,1579,71.7435,1499,0.1639,4,notharmonic,1,word,m,,,,,,,
,,,,,,,,,,,hüsna,001,2023-11-08_11h32.17.588,vowel_harmony,2023.2.3,Win32,48.60976084,166.6415,167.6404,,,,,,,,,,,,,,,,,,,,,,,,,,167.6404,168.3277,m,1,0.6638,,168.3278,168.328,,0,26,26,153,1,154,inşaat,432,19.6284,376,0.0411,6,notharmonic,1.6,word,m,,,,,,,
,,,,,,,,,,,hüsna,001,2023-11-08_11h32.17.588,vowel_harmony,2023.2.3,Win32,48.60976084,168.3284,169.3276,,,,,,,,,,,,,,,,,,,,,,,,,,169.3276,171.3276,,0,,,171.3277,171.3279,,0,27,27,23,1,24,kurum,986,44.7999,882,0.0964,5,harmonic,1.75,word,m,,,,,,,
,,,,,,,,,,,hüsna,001,2023-11-08_11h32.17.588,vowel_harmony,2023.2.3,Win32,48.60976084,171.3284,172.3273,,,,,,,,,,,,,,,,,,,,,,,,,,172.3273,172.9106,m,1,0.5633,,172.9108,172.911,,0,28,28,8,1,9,güven,1433,65.1098,1300,0.1421,5,harmonic,1.35,word,m,,,,,,,
,,,,,,,,,,,hüsna,001,2023-11-08_11h32.17.588,vowel_harmony,2023.2.3,Win32,48.60976084,172.9113,173.9104,,,,,,,,,,,,,,,,,,,,,,,,,,173.9104,174.7647,z,1,0.8303,,174.7648,174.7649,,0,29,29,306,1,307,otet,,,,,4,notharmonic,1.95,nw,z,,,,,,,
,,,,,,,,,,,hüsna,001,2023-11-08_11h32.17.588,vowel_harmony,2023.2.3,Win32,48.60976084,174.7654,175.7644,,,,,,,,,,,,,,,,,,,,,,,,,,175.7645,176.4934,m,1,0.7049,,176.4934,176.4936,,0,30,30,167,1,168,adalet,1611,73.1975,1388,0.1517,6,notharmonic,1.65,word,m,,,,,,,
,,,,,,,,,,,hüsna,001,2023-11-08_11h32.17.588,vowel_harmony,2023.2.3,Win32,48.60976084,176.4941,177.4935,,,,,,,,,,,,,,,,,,,,,,,,,,177.4935,178.1807,m,1,0.6636,,178.1808,178.1809,,0,31,31,18,1,19,normal,4154,188.7413,3788,0.4141,6,harmonic,1.75,word,m,,,,,,,
,,,,,,,,,,,hüsna,001,2023-11-08_11h32.17.588,vowel_harmony,2023.2.3,Win32,48.60976084,178.1814,179.1807,,,,,,,,,,,,,,,,,,,,,,,,,,179.1807,179.8473,m,0,0.6498,,179.8473,179.8475,,0,32,32,213,1,214,kaun,,,,,4,harmonic,1.7,nw,z,,,,,,,
,,,,,,,,,,,hüsna,001,2023-11-08_11h32.17.588,vowel_harmony,2023.2.3,Win32,48.60976084,179.8481,180.8472,,,,,,,,,,,,,,,,,,,,,,,,,,180.8472,182.2637,m,0,1.393,,182.2637,182.2639,,0,33,33,184,1,185,yapor,,,,,5,harmonic,1.9,nw,z,,,,,,,
,,,,,,,,,,,hüsna,001,2023-11-08_11h32.17.588,vowel_harmony,2023.2.3,Win32,48.60976084,182.2645,183.2635,,,,,,,,,,,,,,,,,,,,,,,,,,183.2635,184.2217,z,1,0.9339,,184.2217,184.222,,0,34,34,274,1,275,pisan,,,,,5,notharmonic,1.75,nw,z,,,,,,,
,,,,,,,,,,,hüsna,001,2023-11-08_11h32.17.588,vowel_harmony,2023.2.3,Win32,48.60976084,184.2226,185.2215,,,,,,,,,,,,,,,,,,,,,,,,,,185.2216,185.9923,m,1,0.7504,,185.9923,185.9923,,0,35,35,46,1,47,takım,4370,198.5555,3726,0.4073,5,harmonic,1.7,word,m,,,,,,,
,,,,,,,,,,,hüsna,001,2023-11-08_11h32.17.588,vowel_harmony,2023.2.3,Win32,48.60976084,185.9931,186.9922,,,,,,,,,,,,,,,,,,,,,,,,,,186.9923,187.7423,z,1,0.7265,,187.7425,187.7426,,0,36,36,346,1,347,kidan,,,,,5,notharmonic,1.8,nw,z,,,,,,,
,,,,,,,,,,,hüsna,001,2023-11-08_11h32.17.588,vowel_harmony,2023.2.3,Win32,48.60976084,187.7433,188.7422,,,,,,,,,,,,,,,,,,,,,,,,,,188.7422,189.4919,z,1,0.7274,,189.492,189.4922,,0,37,37,217,1,218,sanfız,,,,,6,harmonic,1.85,nw,z,,,,,,,
,,,,,,,,,,,hüsna,001,2023-11-08_11h32.17.588,vowel_harmony,2023.2.3,Win32,48.60976084,189.4928,190.492,,,,,,,,,,,,,,,,,,,,,,,,,,190.492,191.0335,m,1,0.5173,,191.0336,191.0338,,0,38,38,165,1,166,gazete,1402,63.7013,1270,0.1388,6,notharmonic,1.8,word,m,,,,,,,
,,,,,,,,,,,hüsna,001,2023-11-08_11h32.17.588,vowel_harmony,2023.2.3,Win32,48.60976084,191.0344,192.0334,,,,,,,,,,,,,,,,,,,,,,,,,,192.0335,192.7836,z,1,0.7268,,192.7837,192.7838,,0,39,39,200,1,201,duşın,,,,,5,harmonic,1.9,nw,z,,,,,,,
,,,,,,,,,,,hüsna,001,2023-11-08_11h32.17.588,vowel_harmony,2023.2.3,Win32,48.60976084,192.7842,193.7832,,,,,,,,,,,,,,,,,,,,,,,,,,193.7832,194.4706,z,1,0.6664,,194.4707,194.4709,,0,40,40,270,1,271,miyaj,,,,,5,notharmonic,1.9,nw,z,,,,,,,
,,,,,,,,,,,hüsna,001,2023-11-08_11h32.17.588,vowel_harmony,2023.2.3,Win32,48.60976084,194.4714,195.4703,,,,,,,,,,,,,,,,,,,,,,,,,,195.4704,196.0954,m,1,0.6078,,196.0955,196.0957,,0,41,41,49,1,50,şeker,4708,213.9128,4170,0.4559,5,harmonic,1.6,word,m,,,,,,,
,,,,,,,,,,,hüsna,001,2023-11-08_11h32.17.588,vowel_harmony,2023.2.3,Win32,48.60976084,196.0961,197.0954,,,,,,,,,,,,,,,,,,,,,,,,,,197.0954,197.8453,z,1,0.7257,,197.8453,197.8455,,0,42,42,273,1,274,nimal,,,,,5,notharmonic,1.9,nw,z,,,,,,,
,,,,,,,,,,,hüsna,001,2023-11-08_11h32.17.588,vowel_harmony,2023.2.3,Win32,48.60976084,197.846,198.8452,,,,,,,,,,,,,,,,,,,,,,,,,,198.8452,199.5539,z,1,0.6843,,199.554,199.5542,,0,43,43,284,1,285,deval,,,,,5,notharmonic,1.75,nw,z,,,,,,,
,,,,,,,,,,,hüsna,001,2023-11-08_11h32.17.588,vowel_harmony,2023.2.3,Win32,48.60976084,199.5545,200.5532,,,,,,,,,,,,,,,,,,,,,,,,,,200.5532,201.1366,m,1,0.5592,,201.1366,201.1368,,0,44,44,178,1,179,dikkat,6230,283.0665,5888,0.6437,6,notharmonic,2.05,word,m,,,,,,,
,,,,,,,,,,,hüsna,001,2023-11-08_11h32.17.588,vowel_harmony,2023.2.3,Win32,48.60976084,201.1373,202.1362,,,,,,,,,,,,,,,,,,,,,,,,,,202.1363,202.6988,m,1,0.5383,,202.6988,202.699,,0,45,45,56,1,57,sağlam,1818,82.6027,1720,0.188,6,harmonic,1.6,word,m,,,,,,,
,,,,,,,,,,,hüsna,001,2023-11-08_11h32.17.588,vowel_harmony,2023.2.3,Win32,48.60976084,202.6996,203.6987,,,,,,,,,,,,,,,,,,,,,,,,,,203.6988,204.428,m,1,0.7099,,204.4281,204.4284,,0,46,46,13,1,14,nokta,2085,94.7341,1939,0.212,5,harmonic,1.5,word,m,,,,,,,
,,,,,,,,,,,hüsna,001,2023-11-08_11h32.17.588,vowel_harmony,2023.2.3,Win32,48.60976084,204.4287,205.4276,,,,,,,,,,,,,,,,,,,,,,,,,,205.4276,206.4274,z,1,0.9773,,206.4275,206.4277,,0,47,47,228,1,229,haytam,,,,,6,harmonic,1.75,nw,z,,,,,,,
,,,,,,,,,,,hüsna,001,2023-11-08_11h32.17.588,vowel_harmony,2023.2.3,Win32,48.60976084,206.4283,207.4272,,,,,,,,,,,,,,,,,,,,,,,,,,207.4273,208.6774,z,1,1.2288,,208.6775,208.6776,,0,48,48,307,1,308,merbat,,,,,6,notharmonic,1.95,nw,z,,,,,,,
,,,,,,,,,,,hüsna,001,2023-11-08_11h32.17.588,vowel_harmony,2023.2.3,Win32,48.60976084,208.678,209.6773,,,,,,,,,,,,,,,,,,,,,,,,,,209.6774,210.3228,m,0,0.628,,210.3229,210.323,,0,49,49,315,1,316,takep,,,,,5,notharmonic,1.85,nw,z,,,,,,,
,,,,,,,,,,,hüsna,001,2023-11-08_11h32.17.588,vowel_harmony,2023.2.3,Win32,48.60976084,210.3235,211.3227,,,,,,,,,,,,,,,,,,,,,,,,,,211.3227,212.1353,m,1,0.7885,,212.1353,212.1354,,0,50,50,78,1,79,ulusal,1551,70.4713,1355,0.1481,6,harmonic,1.75,word,m,,,,,,,
,,,,,,,,,,,hüsna,001,2023-11-08_11h32.17.588,vowel_harmony,2023.2.3,Win32,48.60976084,212.1359,213.1351,,,,,,,,,,,,,,,,,,,,,,,,,,213.1351,213.8643,m,1,0.7047,,213.8644,213.8646,,0,51,51,135,1,136,hafif,3355,152.4379,3101,0.339,5,notharmonic,1.75,word,m,,,,,,,
,,,,,,,,,,,hüsna,001,2023-11-08_11h32.17.588,vowel_harmony,2023.2.3,Win32,48.60976084,213.8651,214.8641,,,,,,,,,,,,,,,,,,,,,,,,,,214.8647,215.5098,m,1,0.6297,,215.5098,215.5099,,0,52,52,80,1,81,merkez,1445,65.6551,1255,0.1372,6,harmonic,1.8,word,m,,,,,,,
,,,,,,,,,,,hüsna,001,2023-11-08_11h32.17.588,vowel_harmony,2023.2.3,Win32,48.60976084,215.5104,216.5097,,,,,,,,,,,,,,,,,,,,,,,,,,216.5098,217.739,z,1,1.205,,217.7391,217.7392,,0,53,53,304,1,305,annö,,,,,4,notharmonic,1.95,nw,z,,,,,,,
,,,,,,,,,,,hüsna,001,2023-11-08_11h32.17.588,vowel_harmony,2023.2.3,Win32,48.60976084,217.7395,218.7386,,,,,,,,,,,,,,,,,,,,,,,,,,218.7386,219.5093,m,1,0.7467,,219.5094,219.5096,,0,54,54,104,1,105,cevap,5232,237.7213,4822,0.5271,5,notharmonic,1.85,word,m,,,,,,,
,,,,,,,,,,,hüsna,001,2023-11-08_11h32.17.588,vowel_harmony,2023.2.3,Win32,48.60976084,219.5101,220.5092,,,,,,,,,,,,,,,,,,,,,,,,,,220.5092,221.6342,z,1,1.1014,,221.6342,221.6343,,0,55,55,289,1,290,karmen,,,,,6,notharmonic,1.75,nw,z,,,,,,,
,,,,,,,,,,,hüsna,001,2023-11-08_11h32.17.588,vowel_harmony,2023.2.3,Win32,48.60976084,221.6349,222.6339,,,,,,,,,,,,,,,,,,,,,,,,,,222.6339,223.5087,z,1,0.8538,,223.5088,223.5088,,0,56,56,309,1,310,yorgen,,,,,6,notharmonic,1.9,nw,z,,,,,,,
,,,,,,,,,,,hüsna,001,2023-11-08_11h32.17.588,vowel_harmony,2023.2.3,Win32,48.60976084,223.5092,224.5086,,,,,,,,,,,,,,,,,,,,,,,,,,224.5086,225.5084,m,1,0.9754,,225.5085,225.5086,,0,57,57,126,1,127,adet,4367,198.4192,3768,0.4119,4,notharmonic,1.4,word,m,,,,,,,
,,,,,,,,,,,hüsna,001,2023-11-08_11h32.17.588,vowel_harmony,2023.2.3,Win32,48.60976084,225.5091,226.5084,,,,,,,,,,,,,,,,,,,,,,,,,,226.5084,227.0293,m,1,0.4962,,227.0293,227.0296,,0,58,58,111,1,112,kahve,2634,119.6785,2283,0.2496,5,notharmonic,1.85,word,m,,,,,,,
,,,,,,,,,,,hüsna,001,2023-11-08_11h32.17.588,vowel_harmony,2023.2.3,Win32,48.60976084,227.0301,228.0293,,,,,,,,,,,,,,,,,,,,,,,,,,228.0293,228.7582,z,1,0.7092,,228.7583,228.7584,,0,59,59,246,1,247,orkın,,,,,5,harmonic,1.9,nw,z,,,,,,,
,,,,,,,,,,,hüsna,001,2023-11-08_11h32.17.588,vowel_harmony,2023.2.3,Win32,48.60976084,228.7589,229.758,,,,,,,,,,,,,,,,,,,,,,,,,,229.7581,230.5289,m,1,0.7465,,230.529,230.5291,,0,60,60,170,1,171,basit,3385,153.801,3177,0.3473,5,notharmonic,1.65,word,m,,,,,,,
,,,,,,,,,,,hüsna,001,2023-11-08_11h32.17.588,vowel_harmony,2023.2.3,Win32,48.60976084,230.5297,231.5287,,,,,,,,,,,,,,,,,,,,,,,,,,231.5287,232.2162,z,1,0.6634,,232.2162,232.2165,,0,61,61,264,1,265,vepü,,,,,4,harmonic,2,nw,z,,,,,,,
,,,,,,,,,,,hüsna,001,2023-11-08_11h32.17.588,vowel_harmony,2023.2.3,Win32,48.60976084,232.2171,233.2162,,,,,,,,,,,,,,,,,,,,,,,,,,233.2162,233.9452,z,1,0.7044,,233.9452,233.9453,,0,62,62,351,1,352,seğlık,,,,,6,notharmonic,1.9,nw,z,,,,,,,
,,,,,,,,,,,hüsna,001,2023-11-08_11h32.17.588,vowel_harmony,2023.2.3,Win32,48.60976084,233.9461,234.945,,,,,,,,,,,,,,,,,,,,,,,,,,234.945,235.9033,m,1,0.9343,,235.9033,235.9035,,0,63,63,26,1,27,sebze,1094,49.707,961,0.1051,5,harmonic,1.9,word,m,,,,,,,
,,,,,,,,,,,hüsna,001,2023-11-08_11h32.17.588,vowel_harmony,2023.2.3,Win32,48.60976084,235.904,236.903,,,,,,,,,,,,,,,,,,,,,,,,,,236.9031,237.7989,z,1,0.8718,,237.7989,237.799,,0,64,64,258,1,259,karıha,,,,,6,harmonic,1.75,nw,z,,,,,,,
,,,,,,,,,,,hüsna,001,2023-11-08_11h32.17.588,vowel_harmony,2023.2.3,Win32,48.60976084,237.7996,238.7987,,,,,,,,,,,,,,,,,,,,,,,,,,238.7987,239.5278,m,1,0.7049,,239.5278,239.528,,0,65,65,156,1,157,medya,1784,81.0579,1495,0.1634,5,notharmonic,1.35,word,m,,,,,,,
,,,,,,,,,,,hüsna,001,2023-11-08_11h32.17.588,vowel_harmony,2023.2.3,Win32,48.60976084,239.5285,240.5277,,,,,,,,,,,,,,,,,,,,,,,,,,240.5277,241.1319,m,1,0.5802,,241.1319,241.1321,,0,66,66,0,1,1,sanat,3121,141.8059,2485,0.2717,5,harmonic,1.4,word,m,,,,,,,
,,,,,,,,,,,hüsna,001,2023-11-08_11h32.17.588,vowel_harmony,2023.2.3,Win32,48.60976084,241.1325,242.1317,,,,,,,,,,,,,,,,,,,,,,,,,,242.1318,242.7564,m,1,0.6085,,242.7564,242.7565,,0,67,67,91,1,92,ifade,6177,280.6584,5726,0.626,5,notharmonic,1.7,word,m,,,,,,,
,,,,,,,,,,,hüsna,001,2023-11-08_11h32.17.588,vowel_harmony,2023.2.3,Win32,48.60976084,242.7568,243.7566,,,,,,,,,,,,,,,,,,,,,,,,,,243.7566,244.4023,m,1,0.6302,,244.4024,244.4024,,0,68,68,17,1,18,yakın,7990,363.0339,7595,0.8303,5,harmonic,1.8,word,m,,,,,,,
,,,,,,,,,,,hüsna,001,2023-11-08_11h32.17.588,vowel_harmony,2023.2.3,Win32,48.60976084,244.4028,245.4024,,,,,,,,,,,,,,,,,,,,,,,,,,245.4024,245.9645,m,1,0.5385,,245.9646,245.9647,,0,69,69,101,1,102,imza,1358,61.7021,1253,0.137,4,notharmonic,1.65,word,m,,,,,,,
,,,,,,,,,,,hüsna,001,2023-11-08_11h32.17.588,vowel_harmony,2023.2.3,Win32,48.60976084,245.9649,246.9645,,,,,,,,,,,,,,,,,,,,,,,,,,246.9645,247.5476,m,1,0.5595,,247.5477,247.5478,,0,70,70,108,1,109,tarih,2806,127.4935,2483,0.2714,5,notharmonic,1.55,word,m,,,,,,,
,,,,,,,,,,,hüsna,001,2023-11-08_11h32.17.588,vowel_harmony,2023.2.3,Win32,48.60976084,247.5484,248.5475,,,,,,,,,,,,,,,,,,,,,,,,,,248.5475,249.1724,z,1,0.6039,,249.1724,249.1725,,0,71,71,282,1,283,taöz,,,,,4,notharmonic,1.9,nw,z,,,,,,,
,,,,,,,,,,,hüsna,001,2023-11-08_11h32.17.588,vowel_harmony,2023.2.3,Win32,48.60976084,249.1729,250.1725,,,,,,,,,,,,,,,,,,,,,,,,,,250.1725,250.8182,m,1,0.6216,,250.8183,250.8184,,0,72,72,149,1,150,ceza,2611,118.6335,2169,0.2371,4,notharmonic,1.5,word,m,,,,,,,
,,,,,,,,,,,hüsna,001,2023-11-08_11h32.17.588,vowel_harmony,2023.2.3,Win32,48.60976084,250.819,251.8179,,,,,,,,,,,,,,,,,,,,,,,,,,251.8179,252.943,z,1,1.1053,,252.9431,252.9432,,0,73,73,261,1,262,kardok,,,,,6,harmonic,1.95,nw,z,,,,,,,
,,,,,,,,,,,hüsna,001,2023-11-08_11h32.17.588,vowel_harmony,2023.2.3,Win32,48.60976084,252.9438,253.9426,,,,,,,,,,,,,,,,,,,,,,,,,,253.9427,254.7761,z,1,0.8095,,254.7763,254.7764,,0,74,74,344,1,345,barika,,,,,6,notharmonic,1.75,nw,z,,,,,,,
,,,,,,,,,,,hüsna,001,2023-11-08_11h32.17.588,vowel_harmony,2023.2.3,Win32,48.60976084,254.7769,255.7758,,,,,,,,,,,,,,,,,,,,,,,,,,255.7759,256.401,m,1,0.6066,,256.401,256.4011,,0,75,75,73,1,74,millet,1658,75.3329,1508,0.1649,6,harmonic,1.7,word,m,,,,,,,
,,,,,,,,,,,hüsna,001,2023-11-08_11h32.17.588,vowel_harmony,2023.2.3,Win32,48.60976084,256.4016,257.4008,,,,,,,,,,,,,,,,,,,,,,,,,,257.4008,258.0466,m,0,0.6212,,258.0466,258.0467,,0,76,76,357,1,358,işarek,,,,,6,notharmonic,1.95,nw,z,,,,,,,
,,,,,,,,,,,hüsna,001,2023-11-08_11h32.17.588,vowel_harmony,2023.2.3,Win32,48.60976084,258.047,259.0463,,,,,,,,,,,,,,,,,,,,,,,,,,259.0463,259.9213,z,1,0.8516,,259.9213,259.9215,,0,77,77,352,1,353,yılden,,,,,6,notharmonic,1.8,nw,z,,,,,,,
,,,,,,,,,,,hüsna,001,2023-11-08_11h32.17.588,vowel_harmony,2023.2.3,Win32,48.60976084,259.9221,260.9211,,,,,,,,,,,,,,,,,,,,,,,,,,260.9211,262.0459,m,1,1.1044,,262.0459,262.046,,0,78,78,125,1,126,ikna,1276,57.9764,1173,0.1282,4,notharmonic,1.85,word,m,,,,,,,
,,,,,,,,,,,hüsna,001,2023-11-08_11h32.17.588,vowel_harmony,2023.2.3,Win32,48.60976084,262.0465,263.0459,,,,,,,,,,,,,,,,,,,,,,,,,,263.046,264.3164,z,1,1.2548,,264.3164,264.3172,,0,79,79,279,1,280,tadde,,,,,5,notharmonic,1.8,nw,z,,,,,,,
,,,,,,,,,,,hüsna,001,2023-11-08_11h32.17.588,vowel_harmony,2023.2.3,Win32,48.60976084,264.3174,265.3165,,,,,,,,,,,,,,,,,,,,,,,,,,265.3166,265.9211,m,1,0.58,,265.9211,265.9212,,0,80,80,5,1,6,bebek,3301,149.9843,2794,0.3054,5,harmonic,1.6,word,m,,,,,,,
,,,,,,,,,,,hüsna,001,2023-11-08_11h32.17.588,vowel_harmony,2023.2.3,Win32,48.60976084,265.9213,266.9202,,,,,,,,,,,,,,,,,,,,,,,,,,266.9204,267.5245,m,1,0.5829,,267.5246,267.5247,,0,81,81,98,1,99,paket,1532,69.608,1392,0.1522,5,notharmonic,1.55,word,m,,,,,,,
,,,,,,,,,,,hüsna,001,2023-11-08_11h32.17.588,vowel_harmony,2023.2.3,Win32,48.60976084,267.5253,268.5245,,,,,,,,,,,,,,,,,,,,,,,,,,268.5245,269.2117,z,1,0.6626,,269.2118,269.212,,0,82,82,240,1,241,hoga,,,,,4,harmonic,1.75,nw,z,,,,,,,
,,,,,,,,,,,hüsna,001,2023-11-08_11h32.17.588,vowel_harmony,2023.2.3,Win32,48.60976084,269.2124,270.2118,,,,,,,,,,,,,,,,,,,,,,,,,,270.2118,270.9199,z,1,0.6849,,270.92,270.9201,,0,83,83,338,1,339,pardön,,,,,6,notharmonic,1.95,nw,z,,,,,,,
,,,,,,,,,,,hüsna,001,2023-11-08_11h32.17.588,vowel_harmony,2023.2.3,Win32,48.60976084,270.9205,271.9199,,,,,,,,,,,,,,,,,,,,,,,,,,271.9199,272.5657,z,1,0.6215,,272.5657,272.5658,,0,84,84,298,1,299,yelsın,,,,,6,notharmonic,1.95,nw,z,,,,,,,
,,,,,,,,,,,hüsna,001,2023-11-08_11h32.17.588,vowel_harmony,2023.2.3,Win32,48.60976084,272.5663,273.5656,,,,,,,,,,,,,,,,,,,,,,,,,,273.5656,274.1278,m,1,0.5442,,274.1278,274.128,,0,85,85,59,1,60,köpek,1044,47.4352,901,0.0985,5,harmonic,1.75,word,m,,,,,,,
,,,,,,,,,,,hüsna,001,2023-11-08_11h32.17.588,vowel_harmony,2023.2.3,Win32,48.60976084,274.1285,275.1276,,,,,,,,,,,,,,,,,,,,,,,,,,275.1276,275.8361,m,1,0.6839,,275.8361,275.8363,,0,86,86,148,1,149,selam,1868,84.8745,1764,0.1928,5,notharmonic,1.35,word,m,,,,,,,
,,,,,,,,,,,hüsna,001,2023-11-08_11h32.17.588,vowel_harmony,2023.2.3,Win32,48.60976084,275.8368,276.8359,,,,,,,,,,,,,,,,,,,,,,,,,,276.8359,277.4609,z,1,0.603,,277.4609,277.462,,0,87,87,193,1,194,yokın,,,,,5,harmonic,1.85,nw,z,,,,,,,
,,,,,,,,,,,hüsna,001,2023-11-08_11h32.17.588,vowel_harmony,2023.2.3,Win32,48.60976084,277.4622,278.461,,,,,,,,,,,,,,,,,,,,,,,,,,278.461,279.0231,m,1,0.538,,279.0232,279.0233,,0,88,88,172,1,173,milyar,1496,67.9723,1078,0.1178,6,notharmonic,1.85,word,m,,,,,,,
,,,,,,,,,,,hüsna,001,2023-11-08_11h32.17.588,vowel_harmony,2023.2.3,Win32,48.60976084,279.0239,280.0229,,,,,,,,,,,,,,,,,,,,,,,,,,280.0229,280.8354,m,1,0.7884,,280.8355,280.8356,,0,89,89,54,1,55,yedek,825,37.4847,732,0.08,5,harmonic,1.65,word,m,,,,,,,
,,,,,,,,,,,hüsna,001,2023-11-08_11h32.17.588,vowel_harmony,2023.2.3,Win32,48.60976084,280.8361,281.8353,,,,,,,,,,,,,,,,,,,,,,,,,,281.8353,282.5644,z,1,0.7049,,282.5645,282.5646,,0,90,90,277,1,278,balsin,,,,,6,notharmonic,1.85,nw,z,,,,,,,
,,,,,,,,,,,hüsna,001,2023-11-08_11h32.17.588,vowel_harmony,2023.2.3,Win32,48.60976084,282.5651,283.5642,,,,,,,,,,,,,,,,,,,,,,,,,,283.5642,284.3142,z,1,0.7263,,284.3143,284.3143,,0,91,91,350,1,351,resun,,,,,5,notharmonic,1.85,nw,z,,,,,,,
,,,,,,,,,,,hüsna,001,2023-11-08_11h32.17.588,vowel_harmony,2023.2.3,Win32,48.60976084,284.3148,285.3141,,,,,,,,,,,,,,,,,,,,,,,,,,285.3141,285.9391,z,1,0.6008,,285.9391,285.9391,,0,92,92,353,1,354,ikno,,,,,4,notharmonic,1.95,nw,z,,,,,,,
,,,,,,,,,,,hüsna,001,2023-11-08_11h32.17.588,vowel_harmony,2023.2.3,Win32,48.60976084,285.9396,286.939,,,,,,,,,,,,,,,,,,,,,,,,,,286.939,287.6681,z,1,0.709,,287.6681,287.6683,,0,93,93,247,1,248,hafgın,,,,,6,harmonic,2,nw,z,,,,,,,
,,,,,,,,,,,hüsna,001,2023-11-08_11h32.17.588,vowel_harmony,2023.2.3,Win32,48.60976084,287.6688,288.6678,,,,,,,,,,,,,,,,,,,,,,,,,,288.6679,289.3138,z,1,0.6222,,289.3138,289.3139,,0,94,94,313,1,314,ikas,,,,,4,notharmonic,1.85,nw,z,,,,,,,
,,,,,,,,,,,hüsna,001,2023-11-08_11h32.17.588,vowel_harmony,2023.2.3,Win32,48.60976084,289.3144,290.3133,,,,,,,,,,,,,,,,,,,,,,,,,,290.3133,290.9176,z,1,0.5809,,290.9176,290.9177,,0,95,95,180,1,181,ayaro,,,,,5,harmonic,1.8,nw,z,,,,,,,
,,,,,,,,,,,hüsna,001,2023-11-08_11h32.17.588,vowel_harmony,2023.2.3,Win32,48.60976084,290.9183,291.9174,,,,,,,,,,,,,,,,,,,,,,,,,,291.9174,292.5841,m,1,0.6425,,292.5841,292.5842,,0,96,96,116,1,117,daire,621,28.2158,503,0.055,5,notharmonic,1,word,m,,,,,,,
,,,,,,,,,,,hüsna,001,2023-11-08_11h32.17.588,vowel_harmony,2023.2.3,Win32,48.60976084,292.5848,293.5838,,,,,,,,,,,,,,,,,,,,,,,,,,293.5838,294.459,m,1,0.8518,,294.459,294.459,,0,97,97,105,1,106,sahip,10887,494.6621,9847,1.0765,5,notharmonic,1.25,word,m,,,,,,,
,,,,,,,,,,,hüsna,001,2023-11-08_11h32.17.588,vowel_harmony,2023.2.3,Win32,48.60976084,294.4596,295.4586,,,,,,,,,,,,,,,,,,,,,,,,,,295.4587,295.9794,m,1,0.4992,,295.9794,295.9795,,0,98,98,110,1,111,rüya,1062,48.2531,937,0.1024,4,notharmonic,1.75,word,m,,,,,,,
,,,,,,,,,,,hüsna,001,2023-11-08_11h32.17.588,vowel_harmony,2023.2.3,Win32,48.60976084,295.98,296.9795,,,,,,,,,,,,,,,,,,,,,,,,,,296.9796,298.0209,m,1,1.0205,,298.0209,298.0211,,0,99,99,48,1,49,teşvik,932,42.3464,867,0.0948,6,harmonic,1.8,word,m,,,,,,,
,,,,,,,,,,,hüsna,001,2023-11-08_11h32.17.588,vowel_harmony,2023.2.3,Win32,48.60976084,298.0217,299.0209,,,,,,,,,,,,,,,,,,,,,,,,,,299.021,299.7292,m,1,0.6843,,299.7292,299.7294,,0,100,100,128,1,129,tatil,2152,97.7783,1865,0.2039,5,notharmonic,1.7,word,m,,,,,,,
,,,,,,,,,,,hüsna,001,2023-11-08_11h32.17.588,vowel_harmony,2023.2.3,Win32,48.60976084,299.73,300.729,,,,,,,,,,,,,,,,,,,,,,,,,,300.729,301.4372,m,1,0.6843,,301.4372,301.4372,,0,101,101,88,1,89,yalnız,5891,267.6637,5440,0.5947,6,harmonic,1.6,word,m,,,,,,,
,,,,,,,,,,,hüsna,001,2023-11-08_11h32.17.588,vowel_harmony,2023.2.3,Win32,48.60976084,301.4377,302.4369,,,,,,,,,,,,,,,,,,,,,,,,,,302.4369,303.2079,m,1,0.7467,,303.2079,303.2081,,0,102,102,144,1,145,garip,2567,116.6343,2355,0.2574,5,notharmonic,1.65,word,m,,,,,,,
,,,,,,,,,,,hüsna,001,2023-11-08_11h32.17.588,vowel_harmony,2023.2.3,Win32,48.60976084,303.2085,304.2076,,,,,,,,,,,,,,,,,,,,,,,,,,304.2076,304.8743,z,1,0.6431,,304.8744,304.8745,,0,103,103,303,1,304,fisor,,,,,5,notharmonic,1.9,nw,z,,,,,,,
,,,,,,,,,,,hüsna,001,2023-11-08_11h32.17.588,vowel_harmony,2023.2.3,Win32,48.60976084,304.8751,305.8742,,,,,,,,,,,,,,,,,,,,,,,,,,305.8742,307.0614,z,1,1.1662,,307.0614,307.0614,,0,104,104,345,1,346,bardeş,,,,,6,notharmonic,1.95,nw,z,,,,,,,
,,,,,,,,,,,hüsna,001,2023-11-08_11h32.17.588,vowel_harmony,2023.2.3,Win32,48.60976084,307.0618,308.0614,,,,,,,,,,,,,,,,,,,,,,,,,,308.0614,308.7071,m,0,0.6218,,308.7072,308.7073,,0,105,105,248,1,249,şegim,,,,,5,harmonic,1.9,nw,z,,,,,,,
,,,,,,,,,,,hüsna,001,2023-11-08_11h32.17.588,vowel_harmony,2023.2.3,Win32,48.60976084,308.7079,309.7069,,,,,,,,,,,,,,,,,,,,,,,,,,309.7069,310.3944,z,1,0.672,,310.3944,310.3945,,0,106,106,335,1,336,lilo,,,,,4,notharmonic,1.8,nw,z,,,,,,,
,,,,,,,,,,,hüsna,001,2023-11-08_11h32.17.588,vowel_harmony,2023.2.3,Win32,48.60976084,310.3949,311.3943,,,,,,,,,,,,,,,,,,,,,,,,,,311.3943,312.2274,m,1,0.8093,,312.2275,312.2277,,0,107,107,30,1,31,çevre,1662,75.5147,1409,0.154,5,harmonic,1.55,word,m,,,,,,,
,,,,,,,,,,,hüsna,001,2023-11-08_11h32.17.588,vowel_harmony,2023.2.3,Win32,48.60976084,312.2282,313.2273,,,,,,,,,,,,,,,,,,,,,,,,,,313.2274,313.8317,m,1,0.5807,,313.8317,313.8318,,0,108,108,4,1,5,metre,1156,52.5241,1015,0.111,5,harmonic,1.7,word,m,,,,,,,
,,,,,,,,,,,hüsna,001,2023-11-08_11h32.17.588,vowel_harmony,2023.2.3,Win32,48.60976084,313.8324,314.8313,,,,,,,,,,,,,,,,,,,,,,,,,,314.8313,315.4149,m,1,0.5594,,315.4149,315.4149,,0,109,109,25,1,26,rapor,703,31.9415,617,0.0675,5,harmonic,1.8,word,m,,,,,,,
,,,,,,,,,,,hüsna,001,2023-11-08_11h32.17.588,vowel_harmony,2023.2.3,Win32,48.60976084,315.4155,316.4147,,,,,,,,,,,,,,,,,,,,,,,,,,316.4147,317.1644,z,1,0.7257,,317.1644,317.1645,,0,110,110,244,1,245,kaof,,,,,4,harmonic,1.9,nw,z,,,,,,,
,,,,,,,,,,,hüsna,001,2023-11-08_11h32.17.588,vowel_harmony,2023.2.3,Win32,48.60976084,317.165,318.1645,,,,,,,,,,,,,,,,,,,,,,,,,,318.1645,318.6851,m,1,0.4966,,318.6851,318.6851,,0,111,111,100,1,101,düşman,1065,48.3894,962,0.1052,6,notharmonic,1.85,word,m,,,,,,,
,,,,,,,,,,,hüsna,001,2023-11-08_11h32.17.588,vowel_harmony,2023.2.3,Win32,48.60976084,318.6856,319.685,,,,,,,,,,,,,,,,,,,,,,,,,,319.685,320.3518,m,0,0.6436,,320.3518,320.3519,,0,112,112,301,1,302,mezak,,,,,5,notharmonic,1.8,nw,z,,,,,,,
,,,,,,,,,,,hüsna,001,2023-11-08_11h32.17.588,vowel_harmony,2023.2.3,Win32,48.60976084,320.3524,321.3513,,,,,,,,,,,,,,,,,,,,,,,,,,321.3514,321.9763,z,1,0.6071,,321.9764,321.9765,,0,113,113,218,1,219,tezöl,,,,,5,harmonic,2,nw,z,,,,,,,
,,,,,,,,,,,hüsna,001,2023-11-08_11h32.17.588,vowel_harmony,2023.2.3,Win32,48.60976084,321.977,322.9763,,,,,,,,,,,,,,,,,,,,,,,,,,322.9764,323.6013,m,1,0.6041,,323.6013,323.6015,,0,114,114,112,1,113,sezon,2315,105.1844,1917,0.2096,5,notharmonic,1.8,word,m,,,,,,,
,,,,,,,,,,,hüsna,001,2023-11-08_11h32.17.588,vowel_harmony,2023.2.3,Win32,48.60976084,323.6021,324.6012,,,,,,,,,,,,,,,,,,,,,,,,,,324.6013,325.3512,z,1,0.7259,,325.3512,325.3513,,0,115,115,237,1,238,taşal,,,,,5,harmonic,1.8,nw,z,,,,,,,
,,,,,,,,,,,hüsna,001,2023-11-08_11h32.17.588,vowel_harmony,2023.2.3,Win32,48.60976084,325.3519,326.3508,,,,,,,,,,,,,,,,,,,,,,,,,,326.3508,326.9759,m,1,0.6011,,326.976,326.9762,,0,116,116,16,1,17,yavaş,5087,231.1331,2886,0.3155,5,harmonic,1.6,word,m,,,,,,,
,,,,,,,,,,,hüsna,001,2023-11-08_11h32.17.588,vowel_harmony,2023.2.3,Win32,48.60976084,326.9767,327.9759,,,,,,,,,,,,,,,,,,,,,,,,,,327.9759,328.7465,m,1,0.7466,,328.7465,328.7466,,0,117,117,45,1,46,bilgi,5981,271.7529,5353,0.5852,5,harmonic,1.5,word,m,,,,,,,
,,,,,,,,,,,hüsna,001,2023-11-08_11h32.17.588,vowel_harmony,2023.2.3,Win32,48.60976084,328.7471,329.7465,,,,,,,,,,,,,,,,,,,,,,,,,,329.7465,330.5589,z,1,0.7945,,330.5589,330.5591,,0,118,118,347,1,348,tekram,,,,,6,notharmonic,1.95,nw,z,,,,,,,
,,,,,,,,,,,hüsna,001,2023-11-08_11h32.17.588,vowel_harmony,2023.2.3,Win32,48.60976084,330.5594,331.5586,,,,,,,,,,,,,,,,,,,,,,,,,,331.5586,332.2043,m,1,0.6218,,332.2043,332.2045,,0,119,119,44,1,45,kayıt,1234,56.0681,1058,0.1157,5,harmonic,1.35,word,m,,,,,,,
,,,,,,,,,,,hüsna,001,2023-11-08_11h32.17.588,vowel_harmony,2023.2.3,Win32,48.60976084,332.205,333.2047,,,,,,,,,,,,,,,,,,,,,,,,,,333.2048,333.7252,m,1,0.5021,,333.7253,341.1202,space,0,120,120,24,1,25,yorgun,1153,52.3877,1108,0.1211,6,harmonic,1.55,word,m,7.3775,,,,,,
,,,,,,,,,,,hüsna,001,2023-11-08_11h32.17.588,vowel_harmony,2023.2.3,Win32,48.60976084,341.1272,342.1198,,,,,,,,,,,,,,,,,,,,,,,,,,342.1199,343.3489,m,1,1.2058,,343.349,343.349,,0,121,121,107,1,108,merak,5806,263.8016,5524,0.6039,5,notharmonic,1.65,word,m,,,,,,,
,,,,,,,,,,,hüsna,001,2023-11-08_11h32.17.588,vowel_harmony,2023.2.3,Win32,48.60976084,343.3497,344.3487,,,,,,,,,,,,,,,,,,,,,,,,,,344.3487,345.0986,z,1,0.7262,,345.0987,345.0988,,0,122,122,205,1,206,kahay,,,,,5,harmonic,1.9,nw,z,,,,,,,
,,,,,,,,,,,hüsna,001,2023-11-08_11h32.17.588,vowel_harmony,2023.2.3,Win32,48.60976084,345.0994,346.0985,,,,,,,,,,,,,,,,,,,,,,,,,,346.0985,347.3067,z,1,1.1843,,347.3067,347.3068,,0,123,123,327,1,328,parkeş,,,,,6,notharmonic,1.9,nw,z,,,,,,,
,,,,,,,,,,,hüsna,001,2023-11-08_11h32.17.588,vowel_harmony,2023.2.3,Win32,48.60976084,347.3154,348.3068,,,,,,,,,,,,,,,,,,,,,,,,,,348.3069,349.1189,z,1,0.7941,,349.1189,349.1191,,0,124,124,296,1,297,işban,,,,,5,notharmonic,1.95,nw,z,,,,,,,
,,,,,,,,,,,hüsna,001,2023-11-08_11h32.17.588,vowel_harmony,2023.2.3,Win32,48.60976084,349.1196,350.1189,,,,,,,,,,,,,,,,,,,,,,,,,,350.119,350.8065,z,1,0.6644,,350.8065,350.8067,,0,125,125,201,1,202,ergiy,,,,,5,harmonic,1.85,nw,z,,,,,,,
,,,,,,,,,,,hüsna,001,2023-11-08_11h32.17.588,vowel_harmony,2023.2.3,Win32,48.60976084,350.8073,351.8064,,,,,,,,,,,,,,,,,,,,,,,,,,351.8064,352.7855,z,1,0.9547,,352.7856,352.7857,,0,126,126,255,1,256,yokın,,,,,5,harmonic,1.85,nw,z,,,,,,,
,,,,,,,,,,,hüsna,001,2023-11-08_11h32.17.588,vowel_harmony,2023.2.3,Win32,48.60976084,352.7862,353.7853,,,,,,,,,,,,,,,,,,,,,,,,,,353.7853,354.5351,m,1,0.7325,,354.5351,354.5353,,0,127,127,152,1,153,tedavi,1865,84.7382,1597,0.1746,6,notharmonic,1.8,word,m,,,,,,,
,,,,,,,,,,,hüsna,001,2023-11-08_11h32.17.588,vowel_harmony,2023.2.3,Win32,48.60976084,354.5358,355.5351,,,,,,,,,,,,,,,,,,,,,,,,,,355.5352,356.3057,z,1,0.747,,356.3057,356.3059,,0,128,128,209,1,210,sapor,,,,,5,harmonic,1.8,nw,z,,,,,,,
,,,,,,,,,,,hüsna,001,2023-11-08_11h32.17.588,vowel_harmony,2023.2.3,Win32,48.60976084,356.3065,357.3056,,,,,,,,,,,,,,,,,,,,,,,,,,357.3057,358.139,z,1,0.8132,,358.139,358.1391,,0,129,129,275,1,276,tahçe,,,,,5,notharmonic,1.95,nw,z,,,,,,,
,,,,,,,,,,,hüsna,001,2023-11-08_11h32.17.588,vowel_harmony,2023.2.3,Win32,48.60976084,358.1396,359.1388,,,,,,,,,,,,,,,,,,,,,,,,,,359.1388,359.8886,z,1,0.726,,359.8887,359.8889,,0,130,130,254,1,255,millek,,,,,6,harmonic,1.8,nw,z,,,,,,,
,,,,,,,,,,,hüsna,001,2023-11-08_11h32.17.588,vowel_harmony,2023.2.3,Win32,48.60976084,359.8894,360.8886,,,,,,,,,,,,,,,,,,,,,,,,,,360.8886,361.3885,z,1,0.4757,,361.3886,361.3887,,0,131,131,208,1,209,yayram,,,,,6,harmonic,1.85,nw,z,,,,,,,
,,,,,,,,,,,hüsna,001,2023-11-08_11h32.17.588,vowel_harmony,2023.2.3,Win32,48.60976084,361.3892,362.3884,,,,,,,,,,,,,,,,,,,,,,,,,,362.3884,363.0964,z,1,0.6838,,363.0964,363.0967,,0,132,132,342,1,343,kulön,,,,,5,notharmonic,1.9,nw,z,,,,,,,
,,,,,,,,,,,hüsna,001,2023-11-08_11h32.17.588,vowel_harmony,2023.2.3,Win32,48.60976084,363.0971,364.0966,,,,,,,,,,,,,,,,,,,,,,,,,,364.0966,364.8672,m,1,0.7471,,364.8673,364.8675,,0,133,133,138,1,139,kardeş,1270,57.7038,1174,0.1283,6,notharmonic,1.9,word,m,,,,,,,
,,,,,,,,,,,hüsna,001,2023-11-08_11h32.17.588,vowel_harmony,2023.2.3,Win32,48.60976084,364.8679,365.867,,,,,,,,,,,,,,,,,,,,,,,,,,365.867,367.2002,z,1,1.3079,,367.2002,367.2003,,0,134,134,333,1,334,heyran,,,,,6,notharmonic,1.85,nw,z,,,,,,,
,,,,,,,,,,,hüsna,001,2023-11-08_11h32.17.588,vowel_harmony,2023.2.3,Win32,48.60976084,367.2085,368.2,,,,,,,,,,,,,,,,,,,,,,,,,,368.2001,369.0543,m,1,0.8304,,369.0544,369.0546,,0,135,135,34,1,35,hoca,1893,86.0104,1526,0.1668,4,harmonic,1.45,word,m,,,,,,,
,,,,,,,,,,,hüsna,001,2023-11-08_11h32.17.588,vowel_harmony,2023.2.3,Win32,48.60976084,369.0551,370.0542,,,,,,,,,,,,,,,,,,,,,,,,,,370.0543,370.7414,z,1,0.6634,,370.7415,370.7417,,0,136,136,269,1,270,vekü,,,,,4,harmonic,2,nw,z,,,,,,,
,,,,,,,,,,,hüsna,001,2023-11-08_11h32.17.588,vowel_harmony,2023.2.3,Win32,48.60976084,370.7421,371.7414,,,,,,,,,,,,,,,,,,,,,,,,,,371.7415,373.1787,m,1,1.4133,,373.1788,373.179,,0,137,137,14,1,15,yaşam,4348,197.5559,3918,0.4283,5,harmonic,1.4,word,m,,,,,,,
,,,,,,,,,,,hüsna,001,2023-11-08_11h32.17.588,vowel_harmony,2023.2.3,Win32,48.60976084,373.186,374.1785,,,,,,,,,,,,,,,,,,,,,,,,,,374.1785,374.9494,m,1,0.7455,,374.9495,374.9496,,0,138,138,132,1,133,modern,2326,105.6842,2031,0.222,6,notharmonic,1.85,word,m,,,,,,,
,,,,,,,,,,,hüsna,001,2023-11-08_11h32.17.588,vowel_harmony,2023.2.3,Win32,48.60976084,374.95,375.9492,,,,,,,,,,,,,,,,,,,,,,,,,,375.9492,376.8658,m,0,0.8995,,376.8659,376.8661,,0,139,139,343,1,344,tarne,,,,,5,notharmonic,1.85,nw,z,,,,,,,
,,,,,,,,,,,hüsna,001,2023-11-08_11h32.17.588,vowel_harmony,2023.2.3,Win32,48.60976084,376.8666,377.8657,,,,,,,,,,,,,,,,,,,,,,,,,,377.8658,378.4906,m,1,0.6008,,378.4907,378.4908,,0,140,140,106,1,107,esnaf,315,14.3124,284,0.031,5,notharmonic,1.55,word,m,,,,,,,
,,,,,,,,,,,hüsna,001,2023-11-08_11h32.17.588,vowel_harmony,2023.2.3,Win32,48.60976084,378.4913,379.4906,,,,,,,,,,,,,,,,,,,,,,,,,,379.4906,380.2612,m,1,0.7538,,380.2613,380.2613,,0,141,141,94,1,95,final,876,39.802,778,0.0851,5,notharmonic,1,word,m,,,,,,,
,,,,,,,,,,,hüsna,001,2023-11-08_11h32.17.588,vowel_harmony,2023.2.3,Win32,48.60976084,380.2619,381.2612,,,,,,,,,,,,,,,,,,,,,,,,,,381.2612,381.9695,m,1,0.6838,,381.9695,381.9696,,0,142,142,102,1,103,esas,1965,89.2818,1795,0.1962,4,notharmonic,1.75,word,m,,,,,,,
,,,,,,,,,,,hüsna,001,2023-11-08_11h32.17.588,vowel_harmony,2023.2.3,Win32,48.60976084,381.9701,382.9694,,,,,,,,,,,,,,,,,,,,,,,,,,382.9694,383.99,m,1,0.9967,,383.99,383.9902,,0,143,143,67,1,68,bayram,1948,88.5094,1648,0.1802,6,harmonic,1.85,word,m,,,,,,,
,,,,,,,,,,,hüsna,001,2023-11-08_11h32.17.588,vowel_harmony,2023.2.3,Win32,48.60976084,383.9907,384.99,,,,,,,,,,,,,,,,,,,,,,,,,,384.99,385.9271,z,1,0.9166,,385.9272,385.9274,,0,144,144,321,1,322,makih,,,,,5,notharmonic,1.8,nw,z,,,,,,,
,,,,,,,,,,,hüsna,001,2023-11-08_11h32.17.588,vowel_harmony,2023.2.3,Win32,48.60976084,385.9279,386.9272,,,,,,,,,,,,,,,,,,,,,,,,,,386.9273,387.7813,z,1,0.8362,,387.7814,387.7815,,0,145,145,348,1,349,aife,,,,,4,notharmonic,1.75,nw,z,,,,,,,
,,,,,,,,,,,hüsna,001,2023-11-08_11h32.17.588,vowel_harmony,2023.2.3,Win32,48.60976084,387.782,388.7811,,,,,,,,,,,,,,,,,,,,,,,,,,388.7811,389.6144,z,1,0.8094,,389.6144,389.6146,,0,146,146,293,1,294,esnan,,,,,5,notharmonic,1.85,nw,z,,,,,,,
,,,,,,,,,,,hüsna,001,2023-11-08_11h32.17.588,vowel_harmony,2023.2.3,Win32,48.60976084,389.6153,390.6143,,,,,,,,,,,,,,,,,,,,,,,,,,390.6144,391.4473,m,1,0.8091,,391.4473,391.4474,,0,147,147,69,1,70,forma,719,32.6685,597,0.0653,5,harmonic,1.8,word,m,,,,,,,
,,,,,,,,,,,hüsna,001,2023-11-08_11h32.17.588,vowel_harmony,2023.2.3,Win32,48.60976084,391.448,392.4473,,,,,,,,,,,,,,,,,,,,,,,,,,392.4474,393.364,m,0,0.8925,,393.3641,393.3643,,0,148,148,305,1,306,tamü,,,,,4,notharmonic,1.75,nw,z,,,,,,,
,,,,,,,,,,,hüsna,001,2023-11-08_11h32.17.588,vowel_harmony,2023.2.3,Win32,48.60976084,393.3648,394.3637,,,,,,,,,,,,,,,,,,,,,,,,,,394.3637,394.947,m,1,0.5588,,394.947,394.9471,,0,149,149,99,1,100,ilave,3173,144.1685,2619,0.2863,5,notharmonic,1.85,word,m,,,,,,,
,,,,,,,,,,,hüsna,001,2023-11-08_11h32.17.588,vowel_harmony,2023.2.3,Win32,48.60976084,394.9474,395.9468,,,,,,,,,,,,,,,,,,,,,,,,,,395.9468,396.6967,z,1,0.7261,,396.6968,396.6969,,0,150,150,196,1,197,bilön,,,,,5,harmonic,1.9,nw,z,,,,,,,
,,,,,,,,,,,hüsna,001,2023-11-08_11h32.17.588,vowel_harmony,2023.2.3,Win32,48.60976084,396.6973,397.6968,,,,,,,,,,,,,,,,,,,,,,,,,,397.6968,398.7798,z,1,1.0628,,398.7798,398.78,,0,151,151,223,1,224,kakon,,,,,5,harmonic,1.85,nw,z,,,,,,,
,,,,,,,,,,,hüsna,001,2023-11-08_11h32.17.588,vowel_harmony,2023.2.3,Win32,48.60976084,398.7805,399.7798,,,,,,,,,,,,,,,,,,,,,,,,,,399.7798,400.9879,m,1,1.1869,,400.988,400.9881,,0,152,152,62,1,63,cümle,1911,86.8283,1765,0.193,5,harmonic,1.85,word,m,,,,,,,
,,,,,,,,,,,hüsna,001,2023-11-08_11h32.17.588,vowel_harmony,2023.2.3,Win32,48.60976084,400.9886,401.9879,,,,,,,,,,,,,,,,,,,,,,,,,,401.9879,402.9251,z,1,0.9135,,402.9252,402.9254,,0,153,153,294,1,295,mesap,,,,,5,notharmonic,1.8,nw,z,,,,,,,
,,,,,,,,,,,hüsna,001,2023-11-08_11h32.17.588,vowel_harmony,2023.2.3,Win32,48.60976084,402.926,403.9253,,,,,,,,,,,,,,,,,,,,,,,,,,403.9253,405.4041,z,1,1.455,,405.4042,405.4043,,0,154,154,187,1,188,remrin,,,,,6,harmonic,1.9,nw,z,,,,,,,
,,,,,,,,,,,hüsna,001,2023-11-08_11h32.17.588,vowel_harmony,2023.2.3,Win32,48.60976084,405.4107,406.404,,,,,,,,,,,,,,,,,,,,,,,,,,406.4041,406.9872,m,1,0.5589,,406.9872,406.9872,,0,155,155,20,1,21,nefes,2871,130.4469,2553,0.2791,5,harmonic,1.8,word,m,,,,,,,
,,,,,,,,,,,hüsna,001,2023-11-08_11h32.17.588,vowel_harmony,2023.2.3,Win32,48.60976084,406.9876,407.9872,,,,,,,,,,,,,,,,,,,,,,,,,,407.9872,408.6744,z,1,0.6641,,408.6745,408.6747,,0,156,156,250,1,251,kakuk,,,,,5,harmonic,1.9,nw,z,,,,,,,
,,,,,,,,,,,hüsna,001,2023-11-08_11h32.17.588,vowel_harmony,2023.2.3,Win32,48.60976084,408.6752,409.6745,,,,,,,,,,,,,,,,,,,,,,,,,,409.6745,410.2994,m,1,0.6007,,410.2994,410.2996,,0,157,157,51,1,52,ilginç,2803,127.3572,2690,0.2941,6,harmonic,1.8,word,m,,,,,,,
,,,,,,,,,,,hüsna,001,2023-11-08_11h32.17.588,vowel_harmony,2023.2.3,Win32,48.60976084,410.3001,411.2993,,,,,,,,,,,,,,,,,,,,,,,,,,411.2993,411.8407,m,1,0.5243,,411.8407,411.8407,,0,158,158,150,1,151,sabit,1046,47.5261,915,0.1,5,notharmonic,1.75,word,m,,,,,,,
,,,,,,,,,,,hüsna,001,2023-11-08_11h32.17.588,vowel_harmony,2023.2.3,Win32,48.60976084,411.8412,412.8408,,,,,,,,,,,,,,,,,,,,,,,,,,412.8408,413.4865,m,0,0.6215,,413.4866,413.4867,,0,159,159,267,1,268,nokuma,,,,,6,harmonic,1.75,nw,z,,,,,,,
,,,,,,,,,,,hüsna,001,2023-11-08_11h32.17.588,vowel_harmony,2023.2.3,Win32,48.60976084,413.4873,414.4866,,,,,,,,,,,,,,,,,,,,,,,,,,414.4866,415.1531,z,1,0.6432,,415.1531,415.1532,,0,160,160,222,1,223,gelü,,,,,4,harmonic,1.75,nw,z,,,,,,,
,,,,,,,,,,,hüsna,001,2023-11-08_11h32.17.588,vowel_harmony,2023.2.3,Win32,48.60976084,415.1537,416.1529,,,,,,,,,,,,,,,,,,,,,,,,,,416.1529,417.4236,z,1,1.2532,,417.4237,417.4239,,0,161,161,299,1,300,fihal,,,,,5,notharmonic,1.95,nw,z,,,,,,,
,,,,,,,,,,,hüsna,001,2023-11-08_11h32.17.588,vowel_harmony,2023.2.3,Win32,48.60976084,417.4304,418.4234,,,,,,,,,,,,,,,,,,,,,,,,,,418.4235,418.9443,m,1,0.4969,,418.9444,418.9445,,0,162,162,76,1,77,ilişki,1675,76.1054,1524,0.1666,6,harmonic,1.8,word,m,,,,,,,
,,,,,,,,,,,hüsna,001,2023-11-08_11h32.17.588,vowel_harmony,2023.2.3,Win32,48.60976084,418.9451,419.944,,,,,,,,,,,,,,,,,,,,,,,,,,419.944,420.4232,m,0,0.4591,,420.4232,420.4233,,0,163,163,336,1,337,diyam,,,,,5,notharmonic,1.85,nw,z,,,,,,,
,,,,,,,,,,,hüsna,001,2023-11-08_11h32.17.588,vowel_harmony,2023.2.3,Win32,48.60976084,420.4238,421.4231,,,,,,,,,,,,,,,,,,,,,,,,,,421.4231,421.9021,m,1,0.4601,,421.9021,421.9023,,0,164,164,83,1,84,küçük,14048,638.2854,12467,1.3629,5,harmonic,1.75,word,m,,,,,,,
,,,,,,,,,,,hüsna,001,2023-11-08_11h32.17.588,vowel_harmony,2023.2.3,Win32,48.60976084,421.9028,422.9021,,,,,,,,,,,,,,,,,,,,,,,,,,422.9021,423.527,m,1,0.6015,,423.5271,423.5273,,0,165,165,103,1,104,tane,5623,255.4868,5075,0.5548,4,notharmonic,1.3,word,m,,,,,,,
,,,,,,,,,,,hüsna,001,2023-11-08_11h32.17.588,vowel_harmony,2023.2.3,Win32,48.60976084,423.5279,424.5269,,,,,,,,,,,,,,,,,,,,,,,,,,424.527,425.1936,m,1,0.6418,,425.1937,425.1938,,0,166,166,77,1,78,ufak,3252,147.758,2980,0.3258,4,harmonic,1.5,word,m,,,,,,,
,,,,,,,,,,,hüsna,001,2023-11-08_11h32.17.588,vowel_harmony,2023.2.3,Win32,48.60976084,425.1943,426.1936,,,,,,,,,,,,,,,,,,,,,,,,,,426.1936,426.9223,z,1,0.7131,,426.9224,426.9224,,0,167,167,266,1,267,düştön,,,,,6,harmonic,1.9,nw,z,,,,,,,
,,,,,,,,,,,hüsna,001,2023-11-08_11h32.17.588,vowel_harmony,2023.2.3,Win32,48.60976084,426.9228,427.9224,,,,,,,,,,,,,,,,,,,,,,,,,,427.9224,428.7556,z,1,0.8089,,428.7557,428.7558,,0,168,168,334,1,335,işgan,,,,,5,notharmonic,1.95,nw,z,,,,,,,
,,,,,,,,,,,hüsna,001,2023-11-08_11h32.17.588,vowel_harmony,2023.2.3,Win32,48.60976084,428.7562,429.7555,,,,,,,,,,,,,,,,,,,,,,,,,,429.7555,430.4637,m,1,0.6842,,430.4637,430.4639,,0,169,169,35,1,36,hava,4975,226.0443,4398,0.4808,4,harmonic,1,word,m,,,,,,,
,,,,,,,,,,,hüsna,001,2023-11-08_11h32.17.588,vowel_harmony,2023.2.3,Win32,48.60976084,430.4644,431.4634,,,,,,,,,,,,,,,,,,,,,,,,,,431.4635,432.63,m,1,1.1501,,432.6301,432.6301,,0,170,170,176,1,177,harika,4682,212.7315,4422,0.4834,6,notharmonic,1.9,word,m,,,,,,,
,,,,,,,,,,,hüsna,001,2023-11-08_11h32.17.588,vowel_harmony,2023.2.3,Win32,48.60976084,432.6306,433.63,,,,,,,,,,,,,,,,,,,,,,,,,,433.63,434.2548,m,1,0.6006,,434.2549,434.255,,0,171,171,10,1,11,bardak,1728,78.5135,1569,0.1715,6,harmonic,1.6,word,m,,,,,,,
,,,,,,,,,,,hüsna,001,2023-11-08_11h32.17.588,vowel_harmony,2023.2.3,Win32,48.60976084,434.2555,435.2548,,,,,,,,,,,,,,,,,,,,,,,,,,435.2549,435.8173,m,1,0.539,,435.8174,435.8176,,0,172,172,22,1,23,anlam,1730,78.6043,1617,0.1768,5,harmonic,1.25,word,m,,,,,,,
,,,,,,,,,,,hüsna,001,2023-11-08_11h32.17.588,vowel_harmony,2023.2.3,Win32,48.60976084,435.8181,436.8171,,,,,,,,,,,,,,,,,,,,,,,,,,436.8171,437.442,m,1,0.601,,437.442,437.4422,,0,173,173,137,1,138,parti,2613,118.7244,2059,0.2251,5,notharmonic,1.8,word,m,,,,,,,
,,,,,,,,,,,hüsna,001,2023-11-08_11h32.17.588,vowel_harmony,2023.2.3,Win32,48.60976084,437.4427,438.4418,,,,,,,,,,,,,,,,,,,,,,,,,,438.4418,439.2961,z,1,0.8308,,439.2962,439.2964,,0,174,174,188,1,189,tonık,,,,,5,harmonic,1.85,nw,z,,,,,,,
,,,,,,,,,,,hüsna,001,2023-11-08_11h32.17.588,vowel_harmony,2023.2.3,Win32,48.60976084,439.2968,440.2959,,,,,,,,,,,,,,,,,,,,,,,,,,440.2959,441.1916,z,1,0.8772,,441.1917,441.1919,,0,175,175,230,1,231,bikir,,,,,5,harmonic,1.75,nw,z,,,,,,,
,,,,,,,,,,,hüsna,001,2023-11-08_11h32.17.588,vowel_harmony,2023.2.3,Win32,48.60976084,441.1924,442.1915,,,,,,,,,,,,,,,,,,,,,,,,,,442.1915,442.9623,z,1,0.747,,442.9623,442.9625,,0,176,176,286,1,287,cedan,,,,,5,notharmonic,1.8,nw,z,,,,,,,
,,,,,,,,,,,hüsna,001,2023-11-08_11h32.17.588,vowel_harmony,2023.2.3,Win32,48.60976084,442.963,443.9622,,,,,,,,,,,,,,,,,,,,,,,,,,443.9622,444.8578,m,0,0.8718,,444.8578,444.858,,0,177,177,281,1,282,afel,,,,,4,notharmonic,1.8,nw,z,,,,,,,
,,,,,,,,,,,hüsna,001,2023-11-08_11h32.17.588,vowel_harmony,2023.2.3,Win32,48.60976084,444.8585,445.8576,,,,,,,,,,,,,,,,,,,,,,,,,,445.8576,446.3369,m,1,0.4604,,446.3369,446.337,,0,178,178,57,1,58,bölüm,1910,86.7828,1605,0.1755,5,harmonic,1.45,word,m,,,,,,,
,,,,,,,,,,,hüsna,001,2023-11-08_11h32.17.588,vowel_harmony,2023.2.3,Win32,48.60976084,446.3375,447.3367,,,,,,,,,,,,,,,,,,,,,,,,,,447.3367,447.8783,m,1,0.5182,,447.8783,447.8784,,0,179,179,55,1,56,akıl,2208,100.3228,2004,0.2191,4,harmonic,1,word,m,,,,,,,
,,,,,,,,,,,hüsna,001,2023-11-08_11h32.17.588,vowel_harmony,2023.2.3,Win32,48.60976084,447.8791,448.8782,,,,,,,,,,,,,,,,,,,,,,,,,,448.8782,449.6281,m,1,0.7265,,449.6282,449.6283,,0,180,180,146,1,147,mavi,2206,100.2319,1934,0.2114,4,notharmonic,1.45,word,m,,,,,,,
,,,,,,,,,,,hüsna,001,2023-11-08_11h32.17.588,vowel_harmony,2023.2.3,Win32,48.60976084,449.6289,450.628,,,,,,,,,,,,,,,,,,,,,,,,,,450.628,451.1696,m,1,0.5232,,451.1697,451.1698,,0,181,181,27,1,28,bölge,1283,58.2944,1123,0.1228,5,harmonic,1.65,word,m,,,,,,,
,,,,,,,,,,,hüsna,001,2023-11-08_11h32.17.588,vowel_harmony,2023.2.3,Win32,48.60976084,451.1703,452.1698,,,,,,,,,,,,,,,,,,,,,,,,,,452.1698,452.8777,m,0,0.6888,,452.8778,452.878,,0,182,182,322,1,323,normin,,,,,6,notharmonic,1.95,nw,z,,,,,,,
,,,,,,,,,,,hüsna,001,2023-11-08_11h32.17.588,vowel_harmony,2023.2.3,Win32,48.60976084,452.8784,453.8776,,,,,,,,,,,,,,,,,,,,,,,,,,453.8776,454.5859,z,1,0.6905,,454.5859,454.586,,0,183,183,326,1,327,ailo,,,,,4,notharmonic,1.75,nw,z,,,,,,,
,,,,,,,,,,,hüsna,001,2023-11-08_11h32.17.588,vowel_harmony,2023.2.3,Win32,48.60976084,454.5865,455.5858,,,,,,,,,,,,,,,,,,,,,,,,,,455.5858,456.523,z,1,0.9135,,456.523,456.5233,,0,184,184,285,1,286,iklon,,,,,5,notharmonic,1.85,nw,z,,,,,,,
,,,,,,,,,,,hüsna,001,2023-11-08_11h32.17.588,vowel_harmony,2023.2.3,Win32,48.60976084,456.5237,457.5231,,,,,,,,,,,,,,,,,,,,,,,,,,457.5232,458.3979,z,1,0.851,,458.398,458.3981,,0,185,185,328,1,329,kirul,,,,,5,notharmonic,1.95,nw,z,,,,,,,
,,,,,,,,,,,hüsna,001,2023-11-08_11h32.17.588,vowel_harmony,2023.2.3,Win32,48.60976084,458.3987,459.3978,,,,,,,,,,,,,,,,,,,,,,,,,,459.3978,460.3352,z,1,0.9171,,460.3353,460.3356,,0,186,186,324,1,325,pakeh,,,,,5,notharmonic,1.9,nw,z,,,,,,,
,,,,,,,,,,,hüsna,001,2023-11-08_11h32.17.588,vowel_harmony,2023.2.3,Win32,48.60976084,460.3361,461.3351,,,,,,,,,,,,,,,,,,,,,,,,,,461.3351,461.9392,z,1,0.5838,,461.9392,461.9394,,0,187,187,206,1,207,bevek,,,,,5,harmonic,1.75,nw,z,,,,,,,
,,,,,,,,,,,hüsna,001,2023-11-08_11h32.17.588,vowel_harmony,2023.2.3,Win32,48.60976084,461.94,462.939,,,,,,,,,,,,,,,,,,,,,,,,,,462.939,463.7516,z,1,0.7934,,463.7517,463.7517,,0,188,188,320,1,321,finak,,,,,5,notharmonic,1.85,nw,z,,,,,,,
,,,,,,,,,,,hüsna,001,2023-11-08_11h32.17.588,vowel_harmony,2023.2.3,Win32,48.60976084,463.7519,464.7514,,,,,,,,,,,,,,,,,,,,,,,,,,464.7514,465.3555,m,1,0.5802,,465.3555,465.3557,,0,189,189,164,1,165,sinema,1575,71.5618,1304,0.1426,6,notharmonic,1.8,word,m,,,,,,,
,,,,,,,,,,,hüsna,001,2023-11-08_11h32.17.588,vowel_harmony,2023.2.3,Win32,48.60976084,465.3562,466.3552,,,,,,,,,,,,,,,,,,,,,,,,,,466.3552,467.2302,z,1,0.8511,,467.2304,467.2304,,0,190,190,339,1,340,asmel,,,,,5,notharmonic,1.95,nw,z,,,,,,,
,,,,,,,,,,,hüsna,001,2023-11-08_11h32.17.588,vowel_harmony,2023.2.3,Win32,48.60976084,467.231,468.2309,,,,,,,,,,,,,,,,,,,,,,,,,,468.231,469.1256,z,1,0.8753,,469.1256,469.1257,,0,191,191,330,1,331,vahçe,,,,,5,notharmonic,1.9,nw,z,,,,,,,
,,,,,,,,,,,hüsna,001,2023-11-08_11h32.17.588,vowel_harmony,2023.2.3,Win32,48.60976084,469.1262,470.1258,,,,,,,,,,,,,,,,,,,,,,,,,,470.1258,470.834,m,1,0.6847,,470.8341,470.8343,,0,192,192,38,1,39,dönem,2820,128.1296,2437,0.2664,5,harmonic,1.4,word,m,,,,,,,
,,,,,,,,,,,hüsna,001,2023-11-08_11h32.17.588,vowel_harmony,2023.2.3,Win32,48.60976084,470.8348,471.8339,,,,,,,,,,,,,,,,,,,,,,,,,,471.8339,472.3127,m,1,0.4549,,472.3128,472.313,,0,193,193,64,1,65,lise,888,40.3472,816,0.0892,4,harmonic,1.5,word,m,,,,,,,
,,,,,,,,,,,hüsna,001,2023-11-08_11h32.17.588,vowel_harmony,2023.2.3,Win32,48.60976084,472.3134,473.313,,,,,,,,,,,,,,,,,,,,,,,,,,473.313,473.896,m,0,0.5595,,473.8961,473.8962,,0,194,194,319,1,320,biho,,,,,4,notharmonic,2,nw,z,,,,,,,
,,,,,,,,,,,hüsna,001,2023-11-08_11h32.17.588,vowel_harmony,2023.2.3,Win32,48.60976084,473.8967,474.8961,,,,,,,,,,,,,,,,,,,,,,,,,,474.8961,475.4583,m,1,0.5439,,475.4583,475.4584,,0,195,195,3,1,4,minik,2916,132.4915,2594,0.2836,5,harmonic,1.6,word,m,,,,,,,
,,,,,,,,,,,hüsna,001,2023-11-08_11h32.17.588,vowel_harmony,2023.2.3,Win32,48.60976084,475.4588,476.4581,,,,,,,,,,,,,,,,,,,,,,,,,,476.4581,476.9582,m,1,0.4809,,476.9583,476.9584,,0,196,196,11,1,12,umut,1988,90.3268,1818,0.1987,4,harmonic,1.55,word,m,,,,,,,
,,,,,,,,,,,hüsna,001,2023-11-08_11h32.17.588,vowel_harmony,2023.2.3,Win32,48.60976084,476.9589,477.9581,,,,,,,,,,,,,,,,,,,,,,,,,,477.9582,478.6039,m,0,0.6245,,478.6039,478.6041,,0,197,197,214,1,215,vecü,,,,,4,harmonic,1.95,nw,z,,,,,,,
,,,,,,,,,,,hüsna,001,2023-11-08_11h32.17.588,vowel_harmony,2023.2.3,Win32,48.60976084,478.6046,479.6038,,,,,,,,,,,,,,,,,,,,,,,,,,479.6038,480.1246,m,0,0.4962,,480.1246,480.1248,,0,198,198,325,1,326,garit,,,,,5,notharmonic,1.85,nw,z,,,,,,,
,,,,,,,,,,,hüsna,001,2023-11-08_11h32.17.588,vowel_harmony,2023.2.3,Win32,48.60976084,480.1253,481.1242,,,,,,,,,,,,,,,,,,,,,,,,,,481.1243,481.8119,z,1,0.6678,,481.812,481.8121,,0,199,199,311,1,312,dedya,,,,,5,notharmonic,1.9,nw,z,,,,,,,
,,,,,,,,,,,hüsna,001,2023-11-08_11h32.17.588,vowel_harmony,2023.2.3,Win32,48.60976084,481.8127,482.8115,,,,,,,,,,,,,,,,,,,,,,,,,,482.8116,483.4992,z,1,0.6625,,483.4992,483.4994,,0,200,200,257,1,258,zerü,,,,,4,harmonic,1.8,nw,z,,,,,,,
,,,,,,,,,,,hüsna,001,2023-11-08_11h32.17.588,vowel_harmony,2023.2.3,Win32,48.60976084,483.5,484.4991,,,,,,,,,,,,,,,,,,,,,,,,,,484.4991,485.0822,z,1,0.5592,,485.0822,485.0824,,0,201,201,183,1,184,orkın,,,,,5,harmonic,1.9,nw,z,,,,,,,
,,,,,,,,,,,hüsna,001,2023-11-08_11h32.17.588,vowel_harmony,2023.2.3,Win32,48.60976084,485.0829,486.0823,,,,,,,,,,,,,,,,,,,,,,,,,,486.0824,486.7487,m,1,0.6458,,486.7488,486.7489,,0,202,202,47,1,48,kaza,740,33.6227,679,0.0742,4,harmonic,1.85,word,m,,,,,,,
,,,,,,,,,,,hüsna,001,2023-11-08_11h32.17.588,vowel_harmony,2023.2.3,Win32,48.60976084,486.7493,487.7485,,,,,,,,,,,,,,,,,,,,,,,,,,487.7485,488.3736,m,1,0.6041,,488.3736,488.3738,,0,203,203,130,1,131,hamile,1075,48.8437,877,0.0959,6,notharmonic,1.5,word,m,,,,,,,
,,,,,,,,,,,hüsna,001,2023-11-08_11h32.17.588,vowel_harmony,2023.2.3,Win32,48.60976084,488.3744,489.3737,,,,,,,,,,,,,,,,,,,,,,,,,,489.3738,489.8943,m,1,0.4989,,489.8944,489.8944,,0,204,204,159,1,160,vakit,3476,157.9357,3298,0.3605,5,notharmonic,1.65,word,m,,,,,,,
,,,,,,,,,,,hüsna,001,2023-11-08_11h32.17.588,vowel_harmony,2023.2.3,Win32,48.60976084,489.895,490.894,,,,,,,,,,,,,,,,,,,,,,,,,,490.894,491.3939,m,1,0.4752,,491.3939,491.3941,,0,205,205,95,1,96,takip,4996,226.9984,4651,0.5084,5,notharmonic,1.55,word,m,,,,,,,
,,,,,,,,,,,hüsna,001,2023-11-08_11h32.17.588,vowel_harmony,2023.2.3,Win32,48.60976084,491.3945,492.394,,,,,,,,,,,,,,,,,,,,,,,,,,492.394,492.8313,m,0,0.4135,,492.8315,492.8316,,0,206,206,197,1,198,ranar,,,,,5,harmonic,1.75,nw,z,,,,,,,
,,,,,,,,,,,hüsna,001,2023-11-08_11h32.17.588,vowel_harmony,2023.2.3,Win32,48.60976084,492.8321,493.8312,,,,,,,,,,,,,,,,,,,,,,,,,,493.8312,494.4771,z,1,0.6219,,494.4771,494.4773,,0,207,207,288,1,289,molit,,,,,5,notharmonic,1.95,nw,z,,,,,,,
,,,,,,,,,,,hüsna,001,2023-11-08_11h32.17.588,vowel_harmony,2023.2.3,Win32,48.60976084,494.4778,495.4768,,,,,,,,,,,,,,,,,,,,,,,,,,495.4768,495.956,m,1,0.4554,,495.956,495.9563,,0,208,208,32,1,33,temel,4231,192.2399,3851,0.421,5,harmonic,1.55,word,m,,,,,,,
,,,,,,,,,,,hüsna,001,2023-11-08_11h32.17.588,vowel_harmony,2023.2.3,Win32,48.60976084,495.9567,496.9561,,,,,,,,,,,,,,,,,,,,,,,,,,496.9561,497.4558,m,1,0.4791,,497.4558,497.4559,,0,209,209,143,1,144,kitap,8359,379.7998,6786,0.7418,5,notharmonic,1.9,word,m,,,,,,,
,,,,,,,,,,,hüsna,001,2023-11-08_11h32.17.588,vowel_harmony,2023.2.3,Win32,48.60976084,497.4565,498.4558,,,,,,,,,,,,,,,,,,,,,,,,,,498.4559,499.997,z,1,1.5173,,499.9971,499.9973,,0,210,210,291,1,292,mepan,,,,,5,notharmonic,1.75,nw,z,,,,,,,
,,,,,,,,,,,hüsna,001,2023-11-08_11h32.17.588,vowel_harmony,2023.2.3,Win32,48.60976084,499.9977,500.9972,,,,,,,,,,,,,,,,,,,,,,,,,,500.9972,501.4555,m,0,0.4341,,501.4556,501.4557,,0,211,211,316,1,317,misaf,,,,,5,notharmonic,1.85,nw,z,,,,,,,
,,,,,,,,,,,hüsna,001,2023-11-08_11h32.17.588,vowel_harmony,2023.2.3,Win32,48.60976084,501.4562,502.4554,,,,,,,,,,,,,,,,,,,,,,,,,,502.4554,503.1012,m,0,0.6223,,503.1012,503.1013,,0,212,212,278,1,279,sekon,,,,,5,notharmonic,1.85,nw,z,,,,,,,
,,,,,,,,,,,hüsna,001,2023-11-08_11h32.17.588,vowel_harmony,2023.2.3,Win32,48.60976084,503.1018,504.1008,,,,,,,,,,,,,,,,,,,,,,,,,,504.1009,504.7257,m,1,0.6002,,504.7257,504.7259,,0,213,213,133,1,134,taze,2268,103.0489,2062,0.2254,4,notharmonic,1.65,word,m,,,,,,,
,,,,,,,,,,,hüsna,001,2023-11-08_11h32.17.588,vowel_harmony,2023.2.3,Win32,48.60976084,504.7263,505.7258,,,,,,,,,,,,,,,,,,,,,,,,,,505.7259,506.4964,z,1,0.7487,,506.4964,506.4967,,0,214,214,310,1,311,yandeş,,,,,6,notharmonic,1.95,nw,z,,,,,,,
,,,,,,,,,,,hüsna,001,2023-11-08_11h32.17.588,vowel_harmony,2023.2.3,Win32,48.60976084,506.4972,507.4964,,,,,,,,,,,,,,,,,,,,,,,,,,507.4965,508.1213,m,1,0.6026,,508.1214,508.1216,,0,215,215,19,1,20,ödül,1063,48.2985,926,0.1012,4,harmonic,1.7,word,m,,,,,,,
,,,,,,,,,,,hüsna,001,2023-11-08_11h32.17.588,vowel_harmony,2023.2.3,Win32,48.60976084,508.1221,509.1214,,,,,,,,,,,,,,,,,,,,,,,,,,509.1214,509.7668,m,1,0.6291,,509.7669,509.767,,0,216,216,37,1,38,hayvan,2363,107.3653,1894,0.2071,6,harmonic,1.5,word,m,,,,,,,
,,,,,,,,,,,hüsna,001,2023-11-08_11h32.17.588,vowel_harmony,2023.2.3,Win32,48.60976084,509.7675,510.7668,,,,,,,,,,,,,,,,,,,,,,,,,,510.7669,511.3708,m,1,0.5835,,511.3709,511.3711,,0,217,217,63,1,64,sultan,1756,79.7857,1368,0.1496,6,harmonic,1.55,word,m,,,,,,,
,,,,,,,,,,,hüsna,001,2023-11-08_11h32.17.588,vowel_harmony,2023.2.3,Win32,48.60976084,511.3716,512.3706,,,,,,,,,,,,,,,,,,,,,,,,,,512.3706,513.1624,z,1,0.7716,,513.1625,513.1626,,0,218,218,256,1,257,yaruza,,,,,6,harmonic,1.9,nw,z,,,,,,,
,,,,,,,,,,,hüsna,001,2023-11-08_11h32.17.588,vowel_harmony,2023.2.3,Win32,48.60976084,513.1633,514.162,,,,,,,,,,,,,,,,,,,,,,,,,,514.162,514.7245,m,1,0.544,,514.7245,514.7246,,0,219,219,50,1,51,kanun,1198,54.4324,1010,0.1104,5,harmonic,1.6,word,m,,,,,,,
,,,,,,,,,,,hüsna,001,2023-11-08_11h32.17.588,vowel_harmony,2023.2.3,Win32,48.60976084,514.7252,515.7245,,,,,,,,,,,,,,,,,,,,,,,,,,515.7245,516.2244,m,1,0.4785,,516.2244,516.2245,,0,220,220,117,1,118,nasip,1069,48.5711,1042,0.1139,5,notharmonic,1.8,word,m,,,,,,,
,,,,,,,,,,,hüsna,001,2023-11-08_11h32.17.588,vowel_harmony,2023.2.3,Win32,48.60976084,516.2251,517.2244,,,,,,,,,,,,,,,,,,,,,,,,,,517.2245,517.6827,m,1,0.4338,,517.6827,517.6828,,0,221,221,154,1,155,sakin,1855,84.2838,1635,0.1787,5,notharmonic,1.05,word,m,,,,,,,
,,,,,,,,,,,hüsna,001,2023-11-08_11h32.17.588,vowel_harmony,2023.2.3,Win32,48.60976084,517.6833,518.6826,,,,,,,,,,,,,,,,,,,,,,,,,,518.6826,519.0991,m,0,0.3926,,519.0993,519.0994,,0,222,222,235,1,236,oşup,,,,,4,harmonic,1.75,nw,z,,,,,,,
,,,,,,,,,,,hüsna,001,2023-11-08_11h32.17.588,vowel_harmony,2023.2.3,Win32,48.60976084,519.1,520.099,,,,,,,,,,,,,,,,,,,,,,,,,,520.099,520.6196,m,0,0.5051,,520.6197,520.6199,,0,223,223,238,1,239,kocı,,,,,4,harmonic,1.95,nw,z,,,,,,,
,,,,,,,,,,,hüsna,001,2023-11-08_11h32.17.588,vowel_harmony,2023.2.3,Win32,48.60976084,520.6204,521.6195,,,,,,,,,,,,,,,,,,,,,,,,,,521.6196,522.2235,m,0,0.588,,522.2236,522.2236,,0,224,224,356,1,357,mergun,,,,,6,notharmonic,1.95,nw,z,,,,,,,
,,,,,,,,,,,hüsna,001,2023-11-08_11h32.17.588,vowel_harmony,2023.2.3,Win32,48.60976084,522.2239,523.2237,,,,,,,,,,,,,,,,,,,,,,,,,,523.2237,523.7651,m,1,0.5174,,523.7651,523.7651,,0,225,225,161,1,162,komik,1617,73.4701,1506,0.1646,5,notharmonic,1.75,word,m,,,,,,,
,,,,,,,,,,,hüsna,001,2023-11-08_11h32.17.588,vowel_harmony,2023.2.3,Win32,48.60976084,523.7656,524.765,,,,,,,,,,,,,,,,,,,,,,,,,,524.765,525.3693,m,1,0.5797,,525.3693,525.3694,,0,226,226,15,1,16,hayat,7922,359.9443,7314,0.7996,5,harmonic,1.9,word,m,,,,,,,
,,,,,,,,,,,hüsna,001,2023-11-08_11h32.17.588,vowel_harmony,2023.2.3,Win32,48.60976084,525.3699,526.3691,,,,,,,,,,,,,,,,,,,,,,,,,,526.3692,527.2231,z,1,0.8304,,527.2231,527.2233,,0,227,227,260,1,261,yarlam,,,,,6,harmonic,1.75,nw,z,,,,,,,
,,,,,,,,,,,hüsna,001,2023-11-08_11h32.17.588,vowel_harmony,2023.2.3,Win32,48.60976084,527.2238,528.2232,,,,,,,,,,,,,,,,,,,,,,,,,,528.2232,528.8062,m,1,0.5588,,528.8062,528.8063,,0,228,228,177,1,178,tekrar,10788,490.1639,9352,1.0224,6,notharmonic,1.85,word,m,,,,,,,
,,,,,,,,,,,hüsna,001,2023-11-08_11h32.17.588,vowel_harmony,2023.2.3,Win32,48.60976084,528.8067,529.8063,,,,,,,,,,,,,,,,,,,,,,,,,,529.8063,530.4309,m,1,0.6056,,530.431,530.4312,,0,229,229,179,1,180,dakika,5891,267.6637,5207,0.5692,6,notharmonic,1.75,word,m,,,,,,,
,,,,,,,,,,,hüsna,001,2023-11-08_11h32.17.588,vowel_harmony,2023.2.3,Win32,48.60976084,530.4317,531.4311,,,,,,,,,,,,,,,,,,,,,,,,,,531.4311,532.0768,m,1,0.6216,,532.0768,532.0769,,0,230,230,139,1,140,lira,1253,56.9314,947,0.1035,4,notharmonic,1.4,word,m,,,,,,,
,,,,,,,,,,,hüsna,001,2023-11-08_11h32.17.588,vowel_harmony,2023.2.3,Win32,48.60976084,532.0773,533.0766,,,,,,,,,,,,,,,,,,,,,,,,,,533.0767,533.9724,z,1,0.8769,,533.9724,533.9726,,0,231,231,198,1,199,yarbız,,,,,6,harmonic,1.95,nw,z,,,,,,,
,,,,,,,,,,,hüsna,001,2023-11-08_11h32.17.588,vowel_harmony,2023.2.3,Win32,48.60976084,533.9731,534.9722,,,,,,,,,,,,,,,,,,,,,,,,,,534.9722,535.5138,m,1,0.5234,,535.5138,535.514,,0,232,232,120,1,121,ihmal,1002,45.5269,977,0.1068,5,notharmonic,1.65,word,m,,,,,,,
,,,,,,,,,,,hüsna,001,2023-11-08_11h32.17.588,vowel_harmony,2023.2.3,Win32,48.60976084,535.5146,536.5138,,,,,,,,,,,,,,,,,,,,,,,,,,536.5138,537.4095,z,1,0.8722,,537.4096,537.4097,,0,233,233,358,1,359,yangin,,,,,6,notharmonic,1.9,nw,z,,,,,,,
,,,,,,,,,,,hüsna,001,2023-11-08_11h32.17.588,vowel_harmony,2023.2.3,Win32,48.60976084,537.4103,538.4092,,,,,,,,,,,,,,,,,,,,,,,,,,538.4092,538.9719,m,1,0.5386,,538.9722,538.9724,,0,234,234,121,1,122,mesaj,1604,72.8794,1386,0.1515,5,notharmonic,1.8,word,m,,,,,,,
,,,,,,,,,,,hüsna,001,2023-11-08_11h32.17.588,vowel_harmony,2023.2.3,Win32,48.60976084,538.9729,539.9717,,,,,,,,,,,,,,,,,,,,,,,,,,539.9718,540.4715,m,1,0.483,,540.4715,540.4717,,0,235,235,109,1,110,milyon,3936,178.8362,2958,0.3234,6,notharmonic,1.75,word,m,,,,,,,
,,,,,,,,,,,hüsna,001,2023-11-08_11h32.17.588,vowel_harmony,2023.2.3,Win32,48.60976084,540.4722,541.4716,,,,,,,,,,,,,,,,,,,,,,,,,,541.4716,542.0131,m,1,0.5231,,542.0131,542.0133,,0,236,236,163,1,164,limon,1658,75.3329,1481,0.1619,5,notharmonic,1.75,word,m,,,,,,,
,,,,,,,,,,,hüsna,001,2023-11-08_11h32.17.588,vowel_harmony,2023.2.3,Win32,48.60976084,542.0137,543.013,,,,,,,,,,,,,,,,,,,,,,,,,,543.013,543.5544,m,1,0.5186,,543.5546,543.5547,,0,237,237,81,1,82,üretim,1593,72.3796,1283,0.1403,6,harmonic,1.6,word,m,,,,,,,
,,,,,,,,,,,hüsna,001,2023-11-08_11h32.17.588,vowel_harmony,2023.2.3,Win32,48.60976084,543.5553,544.5545,,,,,,,,,,,,,,,,,,,,,,,,,,544.5546,545.1375,m,1,0.5624,,545.1375,545.1377,,0,238,238,122,1,123,devam,17666,802.673,16284,1.7802,5,notharmonic,1.55,word,m,,,,,,,
,,,,,,,,,,,hüsna,001,2023-11-08_11h32.17.588,vowel_harmony,2023.2.3,Win32,48.60976084,545.1383,546.1374,,,,,,,,,,,,,,,,,,,,,,,,,,546.1374,546.7835,m,0,0.6221,,546.7835,546.7837,,0,239,239,253,1,254,meslet,,,,,6,harmonic,1.85,nw,z,,,,,,,
,,,,,,,,,,,hüsna,001,2023-11-08_11h32.17.588,vowel_harmony,2023.2.3,Win32,48.60976084,546.7842,547.7837,,,,,,,,,,,,,,,,,,,,,,,,,,547.7837,548.5954,z,1,0.7962,,548.5954,569.8015,space,0,240,240,204,1,205,gerkez,,,,,6,harmonic,1.9,nw,z,21.1852,,,,,,
,,,,,,,,,,,hüsna,001,2023-11-08_11h32.17.588,vowel_harmony,2023.2.3,Win32,48.60976084,569.809,570.8015,,,,,,,,,,,,,,,,,,,,,,,,,,570.8015,572.8012,,0,,,572.8012,572.8014,,0,241,241,21,1,22,duygu,1877,85.2834,1760,0.1924,5,harmonic,1.8,word,m,,,,,,,
,,,,,,,,,,,hüsna,001,2023-11-08_11h32.17.588,vowel_harmony,2023.2.3,Win32,48.60976084,572.8018,573.8011,,,,,,,,,,,,,,,,,,,,,,,,,,573.8011,575.3218,m,1,1.4969,,575.3218,575.322,,0,242,242,31,1,32,fazla,18293,831.1614,16694,1.825,5,harmonic,1,word,m,,,,,,,
,,,,,,,,,,,hüsna,001,2023-11-08_11h32.17.588,vowel_harmony,2023.2.3,Win32,48.60976084,575.3226,576.3217,,,,,,,,,,,,,,,,,,,,,,,,,,576.3218,577.1755,m,0,0.8306,,577.1756,577.1759,,0,243,243,317,1,318,mevul,,,,,5,notharmonic,1.95,nw,z,,,,,,,
,,,,,,,,,,,hüsna,001,2023-11-08_11h32.17.588,vowel_harmony,2023.2.3,Win32,48.60976084,577.1765,578.1755,,,,,,,,,,,,,,,,,,,,,,,,,,578.1755,578.9261,m,1,0.7264,,578.9261,578.9261,,0,244,244,2,1,3,radyo,763,34.6677,636,0.0695,5,harmonic,1.85,word,m,,,,,,,
,,,,,,,,,,,hüsna,001,2023-11-08_11h32.17.588,vowel_harmony,2023.2.3,Win32,48.60976084,578.9264,579.9253,,,,,,,,,,,,,,,,,,,,,,,,,,579.9253,580.9251,m,1,0.9754,,580.9252,580.9253,,0,245,245,162,1,163,hariç,1267,57.5675,1233,0.1348,5,notharmonic,1.75,word,m,,,,,,,
,,,,,,,,,,,hüsna,001,2023-11-08_11h32.17.588,vowel_harmony,2023.2.3,Win32,48.60976084,580.926,581.9252,,,,,,,,,,,,,,,,,,,,,,,,,,581.9253,582.7583,m,1,0.8101,,582.7583,582.7585,,0,246,246,58,1,59,ayak,2143,97.3694,1931,0.2111,4,harmonic,1,word,m,,,,,,,
,,,,,,,,,,,hüsna,001,2023-11-08_11h32.17.588,vowel_harmony,2023.2.3,Win32,48.60976084,582.7591,583.7582,,,,,,,,,,,,,,,,,,,,,,,,,,583.7582,584.508,m,1,0.7268,,584.5081,584.5082,,0,247,247,131,1,132,hakim,1677,76.1962,1559,0.1704,5,notharmonic,1,word,m,,,,,,,
,,,,,,,,,,,hüsna,001,2023-11-08_11h32.17.588,vowel_harmony,2023.2.3,Win32,48.60976084,584.5086,585.5079,,,,,,,,,,,,,,,,,,,,,,,,,,585.508,586.1744,m,1,0.6456,,586.1744,586.1746,,0,248,248,151,1,152,ateş,2108,95.7792,1803,0.1971,4,notharmonic,1.65,word,m,,,,,,,
,,,,,,,,,,,hüsna,001,2023-11-08_11h32.17.588,vowel_harmony,2023.2.3,Win32,48.60976084,586.1752,587.1745,,,,,,,,,,,,,,,,,,,,,,,,,,587.1745,587.9241,z,1,0.734,,587.9241,587.9241,,0,249,249,287,1,288,haköm,,,,,5,notharmonic,1.9,nw,z,,,,,,,
,,,,,,,,,,,hüsna,001,2023-11-08_11h32.17.588,vowel_harmony,2023.2.3,Win32,48.60976084,587.9245,588.9241,,,,,,,,,,,,,,,,,,,,,,,,,,588.9242,589.9245,z,1,0.9762,,589.9246,589.9249,,0,250,250,312,1,313,şahmin,,,,,6,notharmonic,1.8,nw,z,,,,,,,
,,,,,,,,,,,hüsna,001,2023-11-08_11h32.17.588,vowel_harmony,2023.2.3,Win32,48.60976084,589.9253,590.9241,,,,,,,,,,,,,,,,,,,,,,,,,,590.9241,591.7155,z,1,0.7674,,591.7155,591.7157,,0,251,251,337,1,338,bakem,,,,,5,notharmonic,1.7,nw,z,,,,,,,
,,,,,,,,,,,hüsna,001,2023-11-08_11h32.17.588,vowel_harmony,2023.2.3,Win32,48.60976084,591.7161,592.7156,,,,,,,,,,,,,,,,,,,,,,,,,,592.7156,593.6738,m,1,0.9396,,593.6738,593.6739,,0,252,252,86,1,87,gerçek,8983,408.1519,8058,0.8809,6,harmonic,1.7,word,m,,,,,,,
,,,,,,,,,,,hüsna,001,2023-11-08_11h32.17.588,vowel_harmony,2023.2.3,Win32,48.60976084,593.6744,594.6735,,,,,,,,,,,,,,,,,,,,,,,,,,594.6735,595.4233,z,1,0.7334,,595.4233,595.4233,,0,253,253,276,1,277,iptap,,,,,5,notharmonic,1.95,nw,z,,,,,,,
,,,,,,,,,,,hüsna,001,2023-11-08_11h32.17.588,vowel_harmony,2023.2.3,Win32,48.60976084,595.4237,596.4233,,,,,,,,,,,,,,,,,,,,,,,,,,596.4233,597.2773,m,0,0.8306,,597.2773,597.2774,,0,254,254,232,1,233,kanur,,,,,5,harmonic,1.7,nw,z,,,,,,,
,,,,,,,,,,,hüsna,001,2023-11-08_11h32.17.588,vowel_harmony,2023.2.3,Win32,48.60976084,597.278,598.2772,,,,,,,,,,,,,,,,,,,,,,,,,,598.2772,599.1314,m,1,0.8304,,599.1314,599.1316,,0,255,255,175,1,176,aile,3655,166.0687,3126,0.3417,4,notharmonic,1,word,m,,,,,,,
,,,,,,,,,,,hüsna,001,2023-11-08_11h32.17.588,vowel_harmony,2023.2.3,Win32,48.60976084,599.1321,600.1311,,,,,,,,,,,,,,,,,,,,,,,,,,600.1311,600.881,m,1,0.7329,,600.881,600.8811,,0,256,256,82,1,83,aday,1028,46.7082,873,0.0954,4,harmonic,1.45,word,m,,,,,,,
,,,,,,,,,,,hüsna,001,2023-11-08_11h32.17.588,vowel_harmony,2023.2.3,Win32,48.60976084,600.8815,601.881,,,,,,,,,,,,,,,,,,,,,,,,,,601.881,602.5476,m,0,0.6425,,602.5477,602.5477,,0,257,257,268,1,269,haldum,,,,,6,harmonic,2,nw,z,,,,,,,
,,,,,,,,,,,hüsna,001,2023-11-08_11h32.17.588,vowel_harmony,2023.2.3,Win32,48.60976084,602.5482,603.5476,,,,,,,,,,,,,,,,,,,,,,,,,,603.5476,604.2558,m,0,0.6843,,604.2559,604.2561,,0,258,258,195,1,196,netüm,,,,,5,harmonic,1.95,nw,z,,,,,,,
,,,,,,,,,,,hüsna,001,2023-11-08_11h32.17.588,vowel_harmony,2023.2.3,Win32,48.60976084,604.2566,605.2556,,,,,,,,,,,,,,,,,,,,,,,,,,605.2557,606.2139,z,1,0.9382,,606.2139,606.2141,,0,259,259,210,1,211,şevci,,,,,5,harmonic,1.75,nw,z,,,,,,,
,,,,,,,,,,,hüsna,001,2023-11-08_11h32.17.588,vowel_harmony,2023.2.3,Win32,48.60976084,606.2146,607.2138,,,,,,,,,,,,,,,,,,,,,,,,,,607.2139,607.9012,m,1,0.6672,,607.9012,607.9014,,0,260,260,65,1,66,fikir,2552,115.9528,2413,0.2638,5,harmonic,1.9,word,m,,,,,,,
,,,,,,,,,,,hüsna,001,2023-11-08_11h32.17.588,vowel_harmony,2023.2.3,Win32,48.60976084,607.9018,608.9009,,,,,,,,,,,,,,,,,,,,,,,,,,608.9009,609.5052,m,0,0.5804,,609.5052,609.5054,,0,261,261,354,1,355,taden,,,,,5,notharmonic,1.7,nw,z,,,,,,,
,,,,,,,,,,,hüsna,001,2023-11-08_11h32.17.588,vowel_harmony,2023.2.3,Win32,48.60976084,609.5059,610.5049,,,,,,,,,,,,,,,,,,,,,,,,,,610.5049,611.2758,z,1,0.7505,,611.2759,611.2763,,0,262,262,318,1,319,yorgün,,,,,6,notharmonic,1.9,nw,z,,,,,,,
,,,,,,,,,,,hüsna,001,2023-11-08_11h32.17.588,vowel_harmony,2023.2.3,Win32,48.60976084,611.2768,612.2757,,,,,,,,,,,,,,,,,,,,,,,,,,612.2758,612.963,z,1,0.6631,,612.9631,612.9632,,0,263,263,290,1,291,aipa,,,,,4,notharmonic,1.95,nw,z,,,,,,,
,,,,,,,,,,,hüsna,001,2023-11-08_11h32.17.588,vowel_harmony,2023.2.3,Win32,48.60976084,612.9637,613.9628,,,,,,,,,,,,,,,,,,,,,,,,,,613.9628,614.6295,m,1,0.6427,,614.6296,614.6298,,0,264,264,160,1,161,hakem,603,27.3979,473,0.0517,5,notharmonic,1.3,word,m,,,,,,,
,,,,,,,,,,,hüsna,001,2023-11-08_11h32.17.588,vowel_harmony,2023.2.3,Win32,48.60976084,614.6303,615.6302,,,,,,,,,,,,,,,,,,,,,,,,,,615.6302,616.2543,m,0,0.6042,,616.2544,616.2546,,0,265,265,211,1,212,yarum,,,,,5,harmonic,1.75,nw,z,,,,,,,
,,,,,,,,,,,hüsna,001,2023-11-08_11h32.17.588,vowel_harmony,2023.2.3,Win32,48.60976084,616.255,617.2543,,,,,,,,,,,,,,,,,,,,,,,,,,617.2544,617.7543,m,1,0.477,,617.7544,617.7545,,0,266,266,140,1,141,sahil,481,21.8547,443,0.0484,5,notharmonic,1.45,word,m,,,,,,,
,,,,,,,,,,,hüsna,001,2023-11-08_11h32.17.588,vowel_harmony,2023.2.3,Win32,48.60976084,617.7549,618.7542,,,,,,,,,,,,,,,,,,,,,,,,,,618.7542,619.2957,m,0,0.5209,,619.2958,619.2959,,0,267,267,186,1,187,habık,,,,,5,harmonic,1.9,nw,z,,,,,,,
,,,,,,,,,,,hüsna,001,2023-11-08_11h32.17.588,vowel_harmony,2023.2.3,Win32,48.60976084,619.2964,620.2955,,,,,,,,,,,,,,,,,,,,,,,,,,620.2955,620.9831,m,0,0.6637,,620.9833,620.9835,,0,268,268,226,1,227,tefem,,,,,5,harmonic,1.75,nw,z,,,,,,,
,,,,,,,,,,,hüsna,001,2023-11-08_11h32.17.588,vowel_harmony,2023.2.3,Win32,48.60976084,620.984,621.9829,,,,,,,,,,,,,,,,,,,,,,,,,,621.9829,622.5245,m,0,0.5219,,622.5246,622.5248,,0,269,269,272,1,273,daken,,,,,5,notharmonic,1.8,nw,z,,,,,,,
,,,,,,,,,,,hüsna,001,2023-11-08_11h32.17.588,vowel_harmony,2023.2.3,Win32,48.60976084,622.5253,623.5243,,,,,,,,,,,,,,,,,,,,,,,,,,623.5243,624.0451,m,1,0.5005,,624.0451,624.0453,,0,270,270,118,1,119,meşhur,1092,49.6161,1057,0.1156,6,notharmonic,1.9,word,m,,,,,,,
,,,,,,,,,,,hüsna,001,2023-11-08_11h32.17.588,vowel_harmony,2023.2.3,Win32,48.60976084,624.0458,625.0449,,,,,,,,,,,,,,,,,,,,,,,,,,625.0449,625.5866,m,1,0.5173,,625.5867,625.5869,,0,271,271,36,1,37,meslek,1082,49.1618,976,0.1067,6,harmonic,1.9,word,m,,,,,,,
,,,,,,,,,,,hüsna,001,2023-11-08_11h32.17.588,vowel_harmony,2023.2.3,Win32,48.60976084,625.5874,626.5866,,,,,,,,,,,,,,,,,,,,,,,,,,626.5868,627.1281,m,0,0.5173,,627.1282,627.1284,,0,272,272,219,1,220,barlum,,,,,6,harmonic,1.9,nw,z,,,,,,,
,,,,,,,,,,,hüsna,001,2023-11-08_11h32.17.588,vowel_harmony,2023.2.3,Win32,48.60976084,627.1288,628.128,,,,,,,,,,,,,,,,,,,,,,,,,,628.128,628.8987,z,1,0.7464,,628.8988,628.899,,0,273,273,241,1,242,porlam,,,,,6,harmonic,2,nw,z,,,,,,,
,,,,,,,,,,,hüsna,001,2023-11-08_11h32.17.588,vowel_harmony,2023.2.3,Win32,48.60976084,628.8997,629.8986,,,,,,,,,,,,,,,,,,,,,,,,,,629.8986,630.5652,m,0,0.6457,,630.5653,630.5655,,0,274,274,331,1,332,ehun,,,,,4,notharmonic,1.95,nw,z,,,,,,,
,,,,,,,,,,,hüsna,001,2023-11-08_11h32.17.588,vowel_harmony,2023.2.3,Win32,48.60976084,630.5659,631.565,,,,,,,,,,,,,,,,,,,,,,,,,,631.5651,632.2525,z,1,0.6695,,632.2525,632.2527,,0,275,275,189,1,190,düvre,,,,,5,harmonic,1.85,nw,z,,,,,,,
,,,,,,,,,,,hüsna,001,2023-11-08_11h32.17.588,vowel_harmony,2023.2.3,Win32,48.60976084,632.2532,633.2523,,,,,,,,,,,,,,,,,,,,,,,,,,633.2524,633.7938,m,1,0.5175,,633.7938,633.7939,,0,276,276,123,1,124,haber,4559,207.1429,4151,0.4538,5,notharmonic,1.85,word,m,,,,,,,
,,,,,,,,,,,hüsna,001,2023-11-08_11h32.17.588,vowel_harmony,2023.2.3,Win32,48.60976084,633.7942,634.7939,,,,,,,,,,,,,,,,,,,,,,,,,,634.7939,635.7935,z,1,0.9835,,635.7935,635.7936,,0,277,277,216,1,217,çeyret,,,,,6,harmonic,1.9,nw,z,,,,,,,
,,,,,,,,,,,hüsna,001,2023-11-08_11h32.17.588,vowel_harmony,2023.2.3,Win32,48.60976084,635.794,636.7935,,,,,,,,,,,,,,,,,,,,,,,,,,636.7935,637.4602,m,1,0.6428,,637.4603,637.4605,,0,278,278,97,1,98,mevcut,3007,136.6262,2842,0.3107,6,notharmonic,1.95,word,m,,,,,,,
,,,,,,,,,,,hüsna,001,2023-11-08_11h32.17.588,vowel_harmony,2023.2.3,Win32,48.60976084,637.461,638.46,,,,,,,,,,,,,,,,,,,,,,,,,,638.4601,639.1891,z,1,0.7083,,639.1892,639.1894,,0,279,279,221,1,222,yaypın,,,,,6,harmonic,1.75,nw,z,,,,,,,
,,,,,,,,,,,hüsna,001,2023-11-08_11h32.17.588,vowel_harmony,2023.2.3,Win32,48.60976084,639.1899,640.189,,,,,,,,,,,,,,,,,,,,,,,,,,640.189,640.814,z,1,0.6007,,640.8142,640.8143,,0,280,280,295,1,296,haylin,,,,,6,notharmonic,1.8,nw,z,,,,,,,
,,,,,,,,,,,hüsna,001,2023-11-08_11h32.17.588,vowel_harmony,2023.2.3,Win32,48.60976084,640.8148,641.8136,,,,,,,,,,,,,,,,,,,,,,,,,,641.8137,642.6469,z,1,0.8134,,642.647,642.6471,,0,281,281,259,1,260,hayuk,,,,,5,harmonic,1.95,nw,z,,,,,,,
,,,,,,,,,,,hüsna,001,2023-11-08_11h32.17.588,vowel_harmony,2023.2.3,Win32,48.60976084,642.6476,643.6468,,,,,,,,,,,,,,,,,,,,,,,,,,643.6468,644.2094,m,1,0.539,,644.2095,644.2097,,0,282,282,60,1,61,doğu,2105,95.6429,1823,0.1993,4,harmonic,1.05,word,m,,,,,,,
,,,,,,,,,,,hüsna,001,2023-11-08_11h32.17.588,vowel_harmony,2023.2.3,Win32,48.60976084,644.2102,645.2091,,,,,,,,,,,,,,,,,,,,,,,,,,645.2091,645.751,m,1,0.5182,,645.7511,645.7512,,0,283,283,87,1,88,mümkün,6604,300.0596,6264,0.6848,6,harmonic,1.9,word,m,,,,,,,
,,,,,,,,,,,hüsna,001,2023-11-08_11h32.17.588,vowel_harmony,2023.2.3,Win32,48.60976084,645.7517,646.7508,,,,,,,,,,,,,,,,,,,,,,,,,,646.7509,648.7507,,0,,,648.7507,648.751,,0,284,284,191,1,192,doab,,,,,4,harmonic,2,nw,z,,,,,,,
,,,,,,,,,,,hüsna,001,2023-11-08_11h32.17.588,vowel_harmony,2023.2.3,Win32,48.60976084,648.7592,649.7505,,,,,,,,,,,,,,,,,,,,,,,,,,649.7505,650.6252,z,1,0.8539,,650.6252,650.6254,,0,285,285,283,1,284,fahe,,,,,4,notharmonic,1.95,nw,z,,,,,,,
,,,,,,,,,,,hüsna,001,2023-11-08_11h32.17.588,vowel_harmony,2023.2.3,Win32,48.60976084,650.6259,651.6252,,,,,,,,,,,,,,,,,,,,,,,,,,651.6252,652.3958,z,1,0.7533,,652.3958,652.3959,,0,286,286,202,1,203,güvin,,,,,5,harmonic,1.95,nw,z,,,,,,,
,,,,,,,,,,,hüsna,001,2023-11-08_11h32.17.588,vowel_harmony,2023.2.3,Win32,48.60976084,652.3964,653.3959,,,,,,,,,,,,,,,,,,,,,,,,,,653.3959,654.0833,z,1,0.6683,,654.0834,654.0836,,0,287,287,341,1,342,işgan,,,,,5,notharmonic,1.95,nw,z,,,,,,,
,,,,,,,,,,,hüsna,001,2023-11-08_11h32.17.588,vowel_harmony,2023.2.3,Win32,48.60976084,654.0843,655.0831,,,,,,,,,,,,,,,,,,,,,,,,,,655.0831,655.6663,z,1,0.5595,,655.6663,655.6666,,0,288,288,249,1,250,hurıt,,,,,5,harmonic,1.95,nw,z,,,,,,,
,,,,,,,,,,,hüsna,001,2023-11-08_11h32.17.588,vowel_harmony,2023.2.3,Win32,48.60976084,655.667,656.6663,,,,,,,,,,,,,,,,,,,,,,,,,,656.6664,657.2288,z,1,0.538,,657.2288,657.229,,0,289,289,182,1,183,orsın,,,,,5,harmonic,1.95,nw,z,,,,,,,
,,,,,,,,,,,hüsna,001,2023-11-08_11h32.17.588,vowel_harmony,2023.2.3,Win32,48.60976084,657.2294,658.2284,,,,,,,,,,,,,,,,,,,,,,,,,,658.2284,658.9162,m,1,0.6638,,658.9162,658.9164,,0,290,290,169,1,170,hikaye,1555,70.653,1405,0.1536,6,notharmonic,1.8,word,m,,,,,,,
,,,,,,,,,,,hüsna,001,2023-11-08_11h32.17.588,vowel_harmony,2023.2.3,Win32,48.60976084,658.9169,659.916,,,,,,,,,,,,,,,,,,,,,,,,,,659.916,660.416,m,1,0.4763,,660.4161,660.4162,,0,291,291,114,1,115,nisan,2321,105.457,2044,0.2235,5,notharmonic,1.6,word,m,,,,,,,
,,,,,,,,,,,hüsna,001,2023-11-08_11h32.17.588,vowel_harmony,2023.2.3,Win32,48.60976084,660.4167,661.4158,,,,,,,,,,,,,,,,,,,,,,,,,,661.4158,662.0197,m,0,0.5801,,662.0197,662.0198,,0,292,292,262,1,263,sauk,,,,,4,harmonic,1.85,nw,z,,,,,,,
,,,,,,,,,,,hüsna,001,2023-11-08_11h32.17.588,vowel_harmony,2023.2.3,Win32,48.60976084,662.0201,663.0195,,,,,,,,,,,,,,,,,,,,,,,,,,663.0195,663.7487,m,1,0.7093,,663.7487,663.7489,,0,293,293,72,1,73,çorba,1674,76.0599,1513,0.1654,5,harmonic,1.75,word,m,,,,,,,
,,,,,,,,,,,hüsna,001,2023-11-08_11h32.17.588,vowel_harmony,2023.2.3,Win32,48.60976084,663.7493,664.7486,,,,,,,,,,,,,,,,,,,,,,,,,,664.7487,665.3317,m,1,0.5639,,665.3317,665.3317,,0,294,294,1,1,2,erkek,6188,281.1582,5195,0.5679,5,harmonic,1.65,word,m,,,,,,,
,,,,,,,,,,,hüsna,001,2023-11-08_11h32.17.588,vowel_harmony,2023.2.3,Win32,48.60976084,665.3323,666.3315,,,,,,,,,,,,,,,,,,,,,,,,,,666.3315,666.8524,m,1,0.5001,,666.8525,666.8526,,0,295,295,93,1,94,siyah,2944,133.7637,2527,0.2763,5,notharmonic,1.6,word,m,,,,,,,
,,,,,,,,,,,hüsna,001,2023-11-08_11h32.17.588,vowel_harmony,2023.2.3,Win32,48.60976084,666.8531,667.8526,,,,,,,,,,,,,,,,,,,,,,,,,,667.8526,668.2901,m,1,0.4135,,668.2902,668.2903,,0,296,296,61,1,62,yıldız,1775,80.649,1532,0.1675,6,harmonic,1.6,word,m,,,,,,,
,,,,,,,,,,,hüsna,001,2023-11-08_11h32.17.588,vowel_harmony,2023.2.3,Win32,48.60976084,668.2907,669.2899,,,,,,,,,,,,,,,,,,,,,,,,,,669.2899,669.7481,m,1,0.4348,,669.7481,669.7483,,0,297,297,145,1,146,iddia,2430,110.4096,2295,0.2509,5,notharmonic,1.85,word,m,,,,,,,
,,,,,,,,,,,hüsna,001,2023-11-08_11h32.17.588,vowel_harmony,2023.2.3,Win32,48.60976084,669.7488,670.7478,,,,,,,,,,,,,,,,,,,,,,,,,,670.7478,671.2894,m,1,0.517,,671.2894,671.2896,,0,298,298,134,1,135,iptal,793,36.0308,725,0.0793,5,notharmonic,1.35,word,m,,,,,,,
,,,,,,,,,,,hüsna,001,2023-11-08_11h32.17.588,vowel_harmony,2023.2.3,Win32,48.60976084,671.2901,672.2893,,,,,,,,,,,,,,,,,,,,,,,,,,672.2894,673.1434,z,1,0.8297,,673.1435,673.1436,,0,299,299,243,1,244,korguf,,,,,6,harmonic,2,nw,z,,,,,,,
,,,,,,,,,,,hüsna,001,2023-11-08_11h32.17.588,vowel_harmony,2023.2.3,Win32,48.60976084,673.1441,674.1435,,,,,,,,,,,,,,,,,,,,,,,,,,674.1436,674.7683,m,1,0.6006,,674.7684,674.7685,,0,300,300,174,1,175,bugün,13879,630.6067,12842,1.4039,5,notharmonic,1.85,word,m,,,,,,,
,,,,,,,,,,,hüsna,001,2023-11-08_11h32.17.588,vowel_harmony,2023.2.3,Win32,48.60976084,674.7691,675.7681,,,,,,,,,,,,,,,,,,,,,,,,,,675.7681,676.3933,z,1,0.6006,,676.3934,676.3936,,0,301,301,185,1,186,örtin,,,,,5,harmonic,1.9,nw,z,,,,,,,
,,,,,,,,,,,hüsna,001,2023-11-08_11h32.17.588,vowel_harmony,2023.2.3,Win32,48.60976084,676.394,677.393,,,,,,,,,,,,,,,,,,,,,,,,,,677.393,677.997,z,1,0.5799,,677.997,677.9972,,0,302,302,227,1,228,zekö,,,,,4,harmonic,1.9,nw,z,,,,,,,
,,,,,,,,,,,hüsna,001,2023-11-08_11h32.17.588,vowel_harmony,2023.2.3,Win32,48.60976084,677.9978,678.9968,,,,,,,,,,,,,,,,,,,,,,,,,,678.9968,679.5803,m,1,0.5623,,679.5803,679.5805,,0,303,303,127,1,128,şahane,1153,52.3877,1108,0.1211,6,notharmonic,1.8,word,m,,,,,,,
,,,,,,,,,,,hüsna,001,2023-11-08_11h32.17.588,vowel_harmony,2023.2.3,Win32,48.60976084,679.5811,680.5801,,,,,,,,,,,,,,,,,,,,,,,,,,680.5801,681.0176,m,1,0.4185,,681.0177,681.0178,,0,304,304,84,1,85,ülke,3121,141.8059,2801,0.3062,4,harmonic,1.65,word,m,,,,,,,
,,,,,,,,,,,hüsna,001,2023-11-08_11h32.17.588,vowel_harmony,2023.2.3,Win32,48.60976084,681.0182,682.0174,,,,,,,,,,,,,,,,,,,,,,,,,,682.0175,682.434,m,0,0.3968,,682.4342,682.4343,,0,305,305,263,1,264,duzur,,,,,5,harmonic,1.8,nw,z,,,,,,,
,,,,,,,,,,,hüsna,001,2023-11-08_11h32.17.588,vowel_harmony,2023.2.3,Win32,48.60976084,682.4348,683.4341,,,,,,,,,,,,,,,,,,,,,,,,,,683.4341,684.0172,m,1,0.5618,,684.0172,684.0175,,0,306,306,168,1,169,kilo,3389,153.9827,2646,0.2893,4,notharmonic,1.65,word,m,,,,,,,
,,,,,,,,,,,hüsna,001,2023-11-08_11h32.17.588,vowel_harmony,2023.2.3,Win32,48.60976084,684.0179,685.0169,,,,,,,,,,,,,,,,,,,,,,,,,,685.017,685.6629,m,1,0.6225,,685.6631,685.6632,,0,307,307,66,1,67,sanık,768,34.8949,699,0.0764,5,harmonic,1.85,word,m,,,,,,,
,,,,,,,,,,,hüsna,001,2023-11-08_11h32.17.588,vowel_harmony,2023.2.3,Win32,48.60976084,685.6637,686.6628,,,,,,,,,,,,,,,,,,,,,,,,,,686.6628,687.2462,m,1,0.559,,687.2462,687.2464,,0,308,308,90,1,91,tarif,2834,128.7657,2611,0.2854,5,notharmonic,1.5,word,m,,,,,,,
,,,,,,,,,,,hüsna,001,2023-11-08_11h32.17.588,vowel_harmony,2023.2.3,Win32,48.60976084,687.2467,688.2459,,,,,,,,,,,,,,,,,,,,,,,,,,688.2459,688.725,m,1,0.4584,,688.7251,688.7254,,0,309,309,52,1,53,resim,2506,113.8627,2188,0.2392,5,harmonic,1.4,word,m,,,,,,,
,,,,,,,,,,,hüsna,001,2023-11-08_11h32.17.588,vowel_harmony,2023.2.3,Win32,48.60976084,688.7258,689.7248,,,,,,,,,,,,,,,,,,,,,,,,,,689.7248,690.308,m,1,0.5592,,690.3081,690.3082,,0,310,310,147,1,148,işaret,1888,85.7832,1787,0.1954,6,notharmonic,1,word,m,,,,,,,
,,,,,,,,,,,hüsna,001,2023-11-08_11h32.17.588,vowel_harmony,2023.2.3,Win32,48.60976084,690.3086,691.308,,,,,,,,,,,,,,,,,,,,,,,,,,691.308,691.8913,m,0,0.559,,691.8914,691.8917,,0,311,311,239,1,240,şekik,,,,,5,harmonic,1.7,nw,z,,,,,,,
,,,,,,,,,,,hüsna,001,2023-11-08_11h32.17.588,vowel_harmony,2023.2.3,Win32,48.60976084,691.8921,692.8914,,,,,,,,,,,,,,,,,,,,,,,,,,692.8914,693.3702,m,0,0.4627,,693.3702,693.3703,,0,312,312,340,1,341,minya,,,,,5,notharmonic,1.95,nw,z,,,,,,,
,,,,,,,,,,,hüsna,001,2023-11-08_11h32.17.588,vowel_harmony,2023.2.3,Win32,48.60976084,693.3708,694.37,,,,,,,,,,,,,,,,,,,,,,,,,,694.3701,694.8494,m,1,0.4555,,694.8494,694.8495,,0,313,313,113,1,114,model,1200,54.5232,1082,0.1183,5,notharmonic,1.75,word,m,,,,,,,
,,,,,,,,,,,hüsna,001,2023-11-08_11h32.17.588,vowel_harmony,2023.2.3,Win32,48.60976084,694.85,695.8492,,,,,,,,,,,,,,,,,,,,,,,,,,695.8492,696.3072,m,0,0.4347,,696.3074,696.3075,,0,314,314,236,1,237,toklam,,,,,6,harmonic,1.85,nw,z,,,,,,,
,,,,,,,,,,,hüsna,001,2023-11-08_11h32.17.588,vowel_harmony,2023.2.3,Win32,48.60976084,696.308,697.3074,,,,,,,,,,,,,,,,,,,,,,,,,,697.3074,697.8696,m,1,0.546,,697.8696,697.8697,,0,315,315,166,1,167,maden,402,18.2653,339,0.0371,5,notharmonic,1.45,word,m,,,,,,,
,,,,,,,,,,,hüsna,001,2023-11-08_11h32.17.588,vowel_harmony,2023.2.3,Win32,48.60976084,697.87,698.8697,,,,,,,,,,,,,,,,,,,,,,,,,,698.8697,699.5365,m,1,0.6434,,699.5365,699.5367,,0,316,316,119,1,120,kulüp,649,29.488,467,0.0511,5,notharmonic,1.4,word,m,,,,,,,
,,,,,,,,,,,hüsna,001,2023-11-08_11h32.17.588,vowel_harmony,2023.2.3,Win32,48.60976084,699.5371,700.5366,,,,,,,,,,,,,,,,,,,,,,,,,,700.5367,701.0987,m,1,0.5413,,701.0987,701.0989,,0,317,317,42,1,43,ürün,2268,103.0489,1954,0.2136,4,harmonic,1.1,word,m,,,,,,,
,,,,,,,,,,,hüsna,001,2023-11-08_11h32.17.588,vowel_harmony,2023.2.3,Win32,48.60976084,701.0993,702.0984,,,,,,,,,,,,,,,,,,,,,,,,,,702.0984,702.64,m,1,0.5209,,702.64,702.6402,,0,318,318,74,1,75,başarı,1398,63.5196,1300,0.1421,6,harmonic,1.2,word,m,,,,,,,
,,,,,,,,,,,hüsna,001,2023-11-08_11h32.17.588,vowel_harmony,2023.2.3,Win32,48.60976084,702.6407,703.6399,,,,,,,,,,,,,,,,,,,,,,,,,,703.6399,704.3064,m,1,0.6431,,704.3065,704.3067,,0,319,319,85,1,86,geçmiş,4195,190.6042,4039,0.4415,6,harmonic,1.55,word,m,,,,,,,
,,,,,,,,,,,hüsna,001,2023-11-08_11h32.17.588,vowel_harmony,2023.2.3,Win32,48.60976084,704.3072,705.3064,,,,,,,,,,,,,,,,,,,,,,,,,,705.3065,705.6814,m,1,0.3508,,705.6814,705.6816,,0,320,320,141,1,142,madde,3793,172.3389,3389,0.3705,5,notharmonic,1.7,word,m,,,,,,,
,,,,,,,,,,,hüsna,001,2023-11-08_11h32.17.588,vowel_harmony,2023.2.3,Win32,48.60976084,705.682,706.6811,,,,,,,,,,,,,,,,,,,,,,,,,,706.6811,707.2021,m,1,0.4971,,707.2022,707.2023,,0,321,321,39,1,40,yaygın,1061,48.2076,1019,0.1114,6,harmonic,1.35,word,m,,,,,,,
,,,,,,,,,,,hüsna,001,2023-11-08_11h32.17.588,vowel_harmony,2023.2.3,Win32,48.60976084,707.2027,708.2019,,,,,,,,,,,,,,,,,,,,,,,,,,708.2019,708.8892,m,0,0.667,,708.8893,708.8894,,0,322,322,190,1,191,reklen,,,,,6,harmonic,1.8,nw,z,,,,,,,
,,,,,,,,,,,hüsna,001,2023-11-08_11h32.17.588,vowel_harmony,2023.2.3,Win32,48.60976084,708.8898,709.8892,,,,,,,,,,,,,,,,,,,,,,,,,,709.8892,710.5765,m,1,0.6636,,710.5765,710.5767,,0,323,323,142,1,143,siyasi,2909,132.1734,2445,0.2673,6,notharmonic,1.8,word,m,,,,,,,
,,,,,,,,,,,hüsna,001,2023-11-08_11h32.17.588,vowel_harmony,2023.2.3,Win32,48.60976084,710.5771,711.5764,,,,,,,,,,,,,,,,,,,,,,,,,,711.5764,712.1389,m,1,0.5387,,712.1391,712.1392,,0,324,324,68,1,69,ücret,734,33.35,634,0.0693,5,harmonic,1.85,word,m,,,,,,,
,,,,,,,,,,,hüsna,001,2023-11-08_11h32.17.588,vowel_harmony,2023.2.3,Win32,48.60976084,712.1397,713.1388,,,,,,,,,,,,,,,,,,,,,,,,,,713.1388,713.6183,m,0,0.4585,,713.6183,713.6184,,0,325,325,349,1,350,harten,,,,,6,notharmonic,1.85,nw,z,,,,,,,
,,,,,,,,,,,hüsna,001,2023-11-08_11h32.17.588,vowel_harmony,2023.2.3,Win32,48.60976084,713.6186,714.6176,,,,,,,,,,,,,,,,,,,,,,,,,,714.6176,715.0553,m,1,0.4181,,715.0554,715.0556,,0,326,326,79,1,80,durum,6783,308.1926,6431,0.703,5,harmonic,1.7,word,m,,,,,,,
,,,,,,,,,,,hüsna,001,2023-11-08_11h32.17.588,vowel_harmony,2023.2.3,Win32,48.60976084,715.056,716.0551,,,,,,,,,,,,,,,,,,,,,,,,,,716.0551,716.3884,m,0,0.309,,716.3885,716.3886,,0,327,327,199,1,200,movu,,,,,4,harmonic,1.9,nw,z,,,,,,,
,,,,,,,,,,,hüsna,001,2023-11-08_11h32.17.588,vowel_harmony,2023.2.3,Win32,48.60976084,716.3892,717.3883,,,,,,,,,,,,,,,,,,,,,,,,,,717.3883,717.9296,m,0,0.5255,,717.9296,717.9297,,0,328,328,302,1,303,işgar,,,,,5,notharmonic,1.9,nw,z,,,,,,,
,,,,,,,,,,,hüsna,001,2023-11-08_11h32.17.588,vowel_harmony,2023.2.3,Win32,48.60976084,717.93,718.9298,,,,,,,,,,,,,,,,,,,,,,,,,,718.9298,719.3256,m,1,0.3748,,719.3256,719.3258,,0,329,329,40,1,41,tepki,1695,77.0141,1578,0.1725,5,harmonic,1.55,word,m,,,,,,,
,,,,,,,,,,,hüsna,001,2023-11-08_11h32.17.588,vowel_harmony,2023.2.3,Win32,48.60976084,719.3263,720.3255,,,,,,,,,,,,,,,,,,,,,,,,,,720.3255,720.7421,m,0,0.3928,,720.7422,720.7424,,0,330,330,271,1,272,mimal,,,,,5,notharmonic,1.8,nw,z,,,,,,,
,,,,,,,,,,,hüsna,001,2023-11-08_11h32.17.588,vowel_harmony,2023.2.3,Win32,48.60976084,720.7429,721.742,,,,,,,,,,,,,,,,,,,,,,,,,,721.742,722.2001,m,0,0.441,,722.2002,722.2004,,0,331,331,329,1,330,taif,,,,,4,notharmonic,1.8,nw,z,,,,,,,
,,,,,,,,,,,hüsna,001,2023-11-08_11h32.17.588,vowel_harmony,2023.2.3,Win32,48.60976084,722.2008,723.2001,,,,,,,,,,,,,,,,,,,,,,,,,,723.2004,723.804,m,0,0.5841,,723.8041,723.8042,,0,332,332,359,1,360,kardez,,,,,6,notharmonic,1.95,nw,z,,,,,,,
,,,,,,,,,,,hüsna,001,2023-11-08_11h32.17.588,vowel_harmony,2023.2.3,Win32,48.60976084,723.8047,724.8041,,,,,,,,,,,,,,,,,,,,,,,,,,724.8041,725.6165,m,1,0.7966,,725.6166,725.6166,,0,333,333,155,1,156,ilaç,1366,62.0656,1215,0.1328,4,notharmonic,1.75,word,m,,,,,,,
,,,,,,,,,,,hüsna,001,2023-11-08_11h32.17.588,vowel_harmony,2023.2.3,Win32,48.60976084,725.617,726.6163,,,,,,,,,,,,,,,,,,,,,,,,,,726.6163,727.2206,m,0,0.5803,,727.2207,727.2209,,0,334,334,252,1,253,anlgı,,,,,5,harmonic,1.9,nw,z,,,,,,,
,,,,,,,,,,,hüsna,001,2023-11-08_11h32.17.588,vowel_harmony,2023.2.3,Win32,48.60976084,727.2214,728.2203,,,,,,,,,,,,,,,,,,,,,,,,,,728.2204,728.7828,m,1,0.5383,,728.7828,728.7831,,0,335,335,115,1,116,saniye,1088,49.4344,984,0.1076,6,notharmonic,1.35,word,m,,,,,,,
,,,,,,,,,,,hüsna,001,2023-11-08_11h32.17.588,vowel_harmony,2023.2.3,Win32,48.60976084,728.7835,729.7827,,,,,,,,,,,,,,,,,,,,,,,,,,729.7828,730.5116,z,1,0.7107,,730.5117,730.5118,,0,336,336,280,1,281,adalek,,,,,6,notharmonic,1.85,nw,z,,,,,,,
,,,,,,,,,,,hüsna,001,2023-11-08_11h32.17.588,vowel_harmony,2023.2.3,Win32,48.60976084,730.5124,731.5118,,,,,,,,,,,,,,,,,,,,,,,,,,731.5118,732.6992,z,1,1.169,,732.6993,732.6994,,0,337,337,332,1,333,tahane,,,,,6,notharmonic,1.85,nw,z,,,,,,,
,,,,,,,,,,,hüsna,001,2023-11-08_11h32.17.588,vowel_harmony,2023.2.3,Win32,48.60976084,732.6998,733.6988,,,,,,,,,,,,,,,,,,,,,,,,,,733.6988,734.3448,m,1,0.6217,,734.3449,734.3451,,0,338,338,136,1,137,beyaz,5517,250.6706,4788,0.5234,5,notharmonic,1.85,word,m,,,,,,,
,,,,,,,,,,,hüsna,001,2023-11-08_11h32.17.588,vowel_harmony,2023.2.3,Win32,48.60976084,734.3455,735.3445,,,,,,,,,,,,,,,,,,,,,,,,,,735.3445,735.8235,m,1,0.4544,,735.8235,735.8237,,0,339,339,129,1,130,tahmin,2353,106.911,2273,0.2485,6,notharmonic,1.6,word,m,,,,,,,
,,,,,,,,,,,hüsna,001,2023-11-08_11h32.17.588,vowel_harmony,2023.2.3,Win32,48.60976084,735.8242,736.8234,,,,,,,,,,,,,,,,,,,,,,,,,,736.8234,737.2611,m,1,0.4186,,737.2611,737.2613,,0,340,340,12,1,13,konu,5400,245.3546,5110,0.5586,4,harmonic,1,word,m,,,,,,,
,,,,,,,,,,,hüsna,001,2023-11-08_11h32.17.588,vowel_harmony,2023.2.3,Win32,48.60976084,737.2618,738.2608,,,,,,,,,,,,,,,,,,,,,,,,,,738.2608,738.6982,m,0,0.4165,,738.6984,738.6986,,0,341,341,242,1,243,kahon,,,,,5,harmonic,1.85,nw,z,,,,,,,
,,,,,,,,,,,hüsna,001,2023-11-08_11h32.17.588,vowel_harmony,2023.2.3,Win32,48.60976084,738.6991,739.698,,,,,,,,,,,,,,,,,,,,,,,,,,739.6982,740.1147,m,1,0.3986,,740.1147,740.115,,0,342,342,9,1,10,karar,8108,368.3954,7436,0.8129,5,harmonic,1.6,word,m,,,,,,,
,,,,,,,,,,,hüsna,001,2023-11-08_11h32.17.588,vowel_harmony,2023.2.3,Win32,48.60976084,740.1155,741.1145,,,,,,,,,,,,,,,,,,,,,,,,,,741.1146,741.8854,z,1,0.7535,,741.8854,741.8857,,0,343,343,355,1,356,adül,,,,,4,notharmonic,1.85,nw,z,,,,,,,
,,,,,,,,,,,hüsna,001,2023-11-08_11h32.17.588,vowel_harmony,2023.2.3,Win32,48.60976084,741.8861,742.8853,,,,,,,,,,,,,,,,,,,,,,,,,,742.8853,743.6145,z,1,0.7052,,743.6146,743.6148,,0,344,344,207,1,208,örtre,,,,,5,harmonic,1.85,nw,z,,,,,,,
,,,,,,,,,,,hüsna,001,2023-11-08_11h32.17.588,vowel_harmony,2023.2.3,Win32,48.60976084,743.6152,744.6141,,,,,,,,,,,,,,,,,,,,,,,,,,744.6141,745.1976,m,1,0.5595,,745.1977,745.1979,,0,345,345,71,1,72,örnek,3463,157.345,3266,0.357,5,harmonic,1.85,word,m,,,,,,,
,,,,,,,,,,,hüsna,001,2023-11-08_11h32.17.588,vowel_harmony,2023.2.3,Win32,48.60976084,745.1984,746.1973,,,,,,,,,,,,,,,,,,,,,,,,,,746.1973,746.739,m,1,0.5178,,746.7391,746.7393,,0,346,346,158,1,159,klasik,1871,85.0108,1734,0.1896,6,notharmonic,2,word,m,,,,,,,
,,,,,,,,,,,hüsna,001,2023-11-08_11h32.17.588,vowel_harmony,2023.2.3,Win32,48.60976084,746.7398,747.7388,,,,,,,,,,,,,,,,,,,,,,,,,,747.7389,748.5513,z,1,0.7883,,748.5513,748.5515,,0,347,347,265,1,266,parula,,,,,6,harmonic,1.75,nw,z,,,,,,,
,,,,,,,,,,,hüsna,001,2023-11-08_11h32.17.588,vowel_harmony,2023.2.3,Win32,48.60976084,748.5519,749.5513,,,,,,,,,,,,,,,,,,,,,,,,,,749.5514,749.9886,m,1,0.4133,,749.9886,749.9888,,0,348,348,53,1,54,gelir,7578,344.3143,7014,0.7668,5,harmonic,1.4,word,m,,,,,,,
,,,,,,,,,,,hüsna,001,2023-11-08_11h32.17.588,vowel_harmony,2023.2.3,Win32,48.60976084,749.9893,750.9885,,,,,,,,,,,,,,,,,,,,,,,,,,750.9885,751.4675,m,1,0.4548,,751.4676,751.4678,,0,349,349,33,1,34,moda,1381,62.7472,1231,0.1346,4,harmonic,1.55,word,m,,,,,,,
,,,,,,,,,,,hüsna,001,2023-11-08_11h32.17.588,vowel_harmony,2023.2.3,Win32,48.60976084,751.4682,752.4675,,,,,,,,,,,,,,,,,,,,,,,,,,752.4675,752.9259,m,0,0.4346,,752.926,752.9262,,0,350,350,297,1,298,sapet,,,,,5,notharmonic,1.85,nw,z,,,,,,,
,,,,,,,,,,,hüsna,001,2023-11-08_11h32.17.588,vowel_harmony,2023.2.3,Win32,48.60976084,752.9266,753.9258,,,,,,,,,,,,,,,,,,,,,,,,,,753.9258,754.4056,m,1,0.4551,,754.4056,754.4058,,0,351,351,75,1,76,roman,1499,68.1086,1281,0.14,5,harmonic,1.6,word,m,,,,,,,
,,,,,,,,,,,hüsna,001,2023-11-08_11h32.17.588,vowel_harmony,2023.2.3,Win32,48.60976084,754.4064,755.4047,,,,,,,,,,,,,,,,,,,,,,,,,,755.4047,756.0713,z,1,0.6421,,756.0714,756.0716,,0,352,352,192,1,193,vecö,,,,,4,harmonic,1.95,nw,z,,,,,,,
,,,,,,,,,,,hüsna,001,2023-11-08_11h32.17.588,vowel_harmony,2023.2.3,Win32,48.60976084,756.0721,757.0711,,,,,,,,,,,,,,,,,,,,,,,,,,757.0712,757.7794,m,0,0.684,,757.7795,757.7797,,0,353,353,292,1,293,kinam,,,,,5,notharmonic,1.85,nw,z,,,,,,,
,,,,,,,,,,,hüsna,001,2023-11-08_11h32.17.588,vowel_harmony,2023.2.3,Win32,48.60976084,757.7801,758.7792,,,,,,,,,,,,,,,,,,,,,,,,,,758.7793,759.4668,z,1,0.6637,,759.4669,759.467,,0,354,354,229,1,230,tonam,,,,,5,harmonic,1.8,nw,z,,,,,,,
,,,,,,,,,,,hüsna,001,2023-11-08_11h32.17.588,vowel_harmony,2023.2.3,Win32,48.60976084,759.4674,760.4666,,,,,,,,,,,,,,,,,,,,,,,,,,760.4667,761.1123,z,1,0.6278,,761.1123,761.1125,,0,355,355,245,1,246,bıyan,,,,,5,harmonic,1.7,nw,z,,,,,,,
,,,,,,,,,,,hüsna,001,2023-11-08_11h32.17.588,vowel_harmony,2023.2.3,Win32,48.60976084,761.1129,762.112,,,,,,,,,,,,,,,,,,,,,,,,,,762.112,762.6747,z,1,0.5385,,762.6748,762.675,,0,356,356,220,1,221,denbi,,,,,5,harmonic,1.75,nw,z,,,,,,,
,,,,,,,,,,,hüsna,001,2023-11-08_11h32.17.588,vowel_harmony,2023.2.3,Win32,48.60976084,762.6754,763.6746,,,,,,,,,,,,,,,,,,,,,,,,,,763.6746,764.1746,m,1,0.476,,764.1746,764.1748,,0,357,357,173,1,174,sade,1193,54.2052,1114,0.1218,4,notharmonic,1.55,word,m,,,,,,,
,,,,,,,,,,,hüsna,001,2023-11-08_11h32.17.588,vowel_harmony,2023.2.3,Win32,48.60976084,764.1752,765.1742,,,,,,,,,,,,,,,,,,,,,,,,,,765.1743,766.0074,z,1,0.8083,,766.0074,766.0076,,0,358,358,308,1,309,hafer,,,,,5,notharmonic,1.85,nw,z,,,,,,,
,,,,,,,,,,,hüsna,001,2023-11-08_11h32.17.588,vowel_harmony,2023.2.3,Win32,48.60976084,766.0082,767.0075,,,,,,,,,,,,,,,,,,,,,,,,,,767.0075,767.6531,m,0,0.6258,,767.6532,767.6534,,0,359,359,194,1,195,rayna,,,,,5,harmonic,1.7,nw,z,,,,,,,
,,,,,,,,,,,hüsna,001,2023-11-08_11h32.17.588,vowel_harmony,2023.2.3,Win32,48.60976084,,,,,,,,,,,,,,,,,,,,,,,,,,,,,,,,,,,,,,,,,,,,,,,,,,,,,,,767.654,770.0703,space,2.3986,