Welcome_screen.started,Welcome_screen.stopped,key_respwelcome.keys,key_respwelcome.rt,key_respwelcome.duration,intro_x.thisRepN,intro_x.thisTrialN,intro_x.thisN,intro_x.thisIndex,intro_x.ran,Introduction,participant,session,date,expName,psychopyVersion,OS,frameRate,Fixation.started,Fixation.stopped,Studypractice.started,Studypractice.stopped,key_respstudy.keys,key_respstudy.corr,key_respstudy.rt,key_respstudy.duration,rt,corr,Feedback.started,Feedback.stopped,practice_loop.thisRepN,practice_loop.thisTrialN,practice_loop.thisN,practice_loop.thisIndex,practice_loop.ran,item_nr_p,target_p,isHarmonic_p,target_cond_p,CorrAns_p,Instraction.started,Instraction.stopped,key_respınstraction.keys,key_respınstraction.rt,key_respınstraction.duration,TestTrial.started,TestTrial.stopped,key_respTest.keys,key_respTest.corr,key_respTest.rt,key_respTest.duration,Pause.started,Pause.stopped,key_resp_xx.keys,test_loop.thisRepN,test_loop.thisTrialN,test_loop.thisN,test_loop.thisIndex,test_loop.ran,item_nr,target,BlogFreq_A1,BlogFreqpm_A1,BlogCD_A1,BlogCDPc_A1,WordLength_A1,isHarmonic_A1,old20,target_cond,CorrAns,key_resp_xx.rt,key_resp_xx.duration,Goodbye_screen.started,Goodbye_screen.stopped,key_respgoodbye.keys,key_respgoodbye.rt,key_respgoodbye.duration
0.0238,2.5248,space,2.4893,,0,0,0,0,1,"Deneye hoş geldiniz,

Devam etmek için BOŞLUK tuşuna basınız.",Manly McBeefington,001,2023-11-08_10h15.25.984,vowel_harmony,2023.2.3,Win32,60.06366749,,,,,,,,,,,,,,,,,,,,,,,,,,,,,,,,,,,,,,,,,,,,,,,,,,,,,,,,,,,
2.5257,12.3902,space,9.8333,,0,1,1,1,1,"Bu çalışma Valencia Üniversitesi kapsamında yürütülmektedir. Deneydeki göreviniz, ekrana çıkacak Türkçe sözcüklerin kelime olup olmadığını belirlemenizdir. Eğer sözcük gerçek bir kelime ise ""m"" tuşuna, değil ise ""z"" tuşuna basınız.   

Devam etmek için BOŞLUK tuşuna basınız.",Manly McBeefington,001,2023-11-08_10h15.25.984,vowel_harmony,2023.2.3,Win32,60.06366749,,,,,,,,,,,,,,,,,,,,,,,,,,,,,,,,,,,,,,,,,,,,,,,,,,,,,,,,,,,
12.3921,17.5787,space,5.1669,,0,2,2,2,1,"Her sözcük için en fazla iki saniyede cevap vermeniz beklenmektedir. Aksi takdirde deney bir sonraki sözcük ile devam eder. 
Bu çalışmada oldukça hızlı ve doğru cevaplama yapmanız beklenmektedir.

Devam etmek için BOŞLUK tuşuna basınız.",Manly McBeefington,001,2023-11-08_10h15.25.984,vowel_harmony,2023.2.3,Win32,60.06366749,,,,,,,,,,,,,,,,,,,,,,,,,,,,,,,,,,,,,,,,,,,,,,,,,,,,,,,,,,,
17.5793,20.9397,space,3.3355,,0,3,3,3,1,"Çalışmaya başlamadan önce ufak bir pratik yer almaktadır.
Kelimedir: ""m""
Kelime değildir: ""z""

Pratik teste başlamak için BOŞLUK tuşuna basınız. ",Manly McBeefington,001,2023-11-08_10h15.25.984,vowel_harmony,2023.2.3,Win32,60.06366749,,,,,,,,,,,,,,,,,,,,,,,,,,,,,,,,,,,,,,,,,,,,,,,,,,,,,,,,,,,
,,,,,,,,,,,Manly McBeefington,001,2023-11-08_10h15.25.984,vowel_harmony,2023.2.3,Win32,60.06366749,20.96,21.9561,21.9563,22.5398,m,0,0.5591,,0.5591,0,22.5403,24.0396,0,0,0,11,1,12,geki,harmonic,nw,z,,,,,,,,,,,,,,,,,,,,,,,,,,,,,,,,,,,,,
,,,,,,,,,,,Manly McBeefington,001,2023-11-08_10h15.25.984,vowel_harmony,2023.2.3,Win32,60.06366749,24.0405,25.0394,25.0395,25.6394,m,0,0.5832,,0.5832,0,25.6394,27.1392,0,1,1,13,1,14,pilar,notharmonic,nw,z,,,,,,,,,,,,,,,,,,,,,,,,,,,,,,,,,,,,,
,,,,,,,,,,,Manly McBeefington,001,2023-11-08_10h15.25.984,vowel_harmony,2023.2.3,Win32,60.06366749,27.1398,28.1391,28.1391,29.1229,z,1,0.9729,,0.9729,1,29.123,30.6221,0,2,2,14,1,15,pimer,harmonic,nw,z,,,,,,,,,,,,,,,,,,,,,,,,,,,,,,,,,,,,,
,,,,,,,,,,,Manly McBeefington,001,2023-11-08_10h15.25.984,vowel_harmony,2023.2.3,Win32,60.06366749,30.6224,31.6221,31.6222,32.3054,m,1,0.6661,,0.6661,1,32.3055,33.8054,0,3,3,3,1,4,ihlal,notharmonic,word,m,,,,,,,,,,,,,,,,,,,,,,,,,,,,,,,,,,,,,
,,,,,,,,,,,Manly McBeefington,001,2023-11-08_10h15.25.984,vowel_harmony,2023.2.3,Win32,60.06366749,33.8058,34.8057,34.8058,35.4054,m,1,0.5871,,0.5871,1,35.4054,36.9051,0,4,4,4,1,5,mimar,notharmonic,word,m,,,,,,,,,,,,,,,,,,,,,,,,,,,,,,,,,,,,,
,,,,,,,,,,,Manly McBeefington,001,2023-11-08_10h15.25.984,vowel_harmony,2023.2.3,Win32,60.06366749,36.9055,37.9052,37.9053,38.5551,z,1,0.6384,,0.6384,1,38.5551,40.0553,0,5,5,15,1,16,mımal,harmonic,nw,z,,,,,,,,,,,,,,,,,,,,,,,,,,,,,,,,,,,,,
,,,,,,,,,,,Manly McBeefington,001,2023-11-08_10h15.25.984,vowel_harmony,2023.2.3,Win32,60.06366749,40.0559,41.055,41.055,41.5884,m,1,0.5133,,0.5133,1,41.5886,43.0882,0,6,6,0,1,1,ihale,notharmonic,word,m,,,,,,,,,,,,,,,,,,,,,,,,,,,,,,,,,,,,,
,,,,,,,,,,,Manly McBeefington,001,2023-11-08_10h15.25.984,vowel_harmony,2023.2.3,Win32,60.06366749,43.0886,44.0883,44.0884,44.6381,m,1,0.5264,,0.5264,1,44.6382,46.138,0,7,7,6,1,7,pilot,notharmonic,word,m,,,,,,,,,,,,,,,,,,,,,,,,,,,,,,,,,,,,,
,,,,,,,,,,,Manly McBeefington,001,2023-11-08_10h15.25.984,vowel_harmony,2023.2.3,Win32,60.06366749,46.1385,47.138,47.1381,48.071,m,0,0.9184,,0.9184,0,48.0712,49.5711,0,8,8,8,1,9,tahip,notharmonic,nw,z,,,,,,,,,,,,,,,,,,,,,,,,,,,,,,,,,,,,,
,,,,,,,,,,,Manly McBeefington,001,2023-11-08_10h15.25.984,vowel_harmony,2023.2.3,Win32,60.06366749,49.5714,50.5711,50.5712,51.071,m,1,0.4824,,0.4824,1,51.0711,52.571,0,9,9,5,1,6,bahçe,notharmonic,word,m,,,,,,,,,,,,,,,,,,,,,,,,,,,,,,,,,,,,,
,,,,,,,,,,,Manly McBeefington,001,2023-11-08_10h15.25.984,vowel_harmony,2023.2.3,Win32,60.06366749,52.5714,53.571,53.571,54.1377,m,1,0.5476,,0.5476,1,54.1377,55.6376,0,10,10,7,1,8,oran,harmonic,word,m,,,,,,,,,,,,,,,,,,,,,,,,,,,,,,,,,,,,,
,,,,,,,,,,,Manly McBeefington,001,2023-11-08_10h15.25.984,vowel_harmony,2023.2.3,Win32,60.06366749,55.638,56.6375,56.6375,57.5207,m,0,0.8657,,0.8657,0,57.5208,59.0208,0,11,11,9,1,10,orat,harmonic,nw,z,,,,,,,,,,,,,,,,,,,,,,,,,,,,,,,,,,,,,
,,,,,,,,,,,Manly McBeefington,001,2023-11-08_10h15.25.984,vowel_harmony,2023.2.3,Win32,60.06366749,59.0211,60.0205,60.0206,60.7706,z,1,0.7312,,0.7312,1,60.7706,62.2703,0,12,12,12,1,13,ihlot,notharmonic,nw,z,,,,,,,,,,,,,,,,,,,,,,,,,,,,,,,,,,,,,
,,,,,,,,,,,Manly McBeefington,001,2023-11-08_10h15.25.984,vowel_harmony,2023.2.3,Win32,60.06366749,62.2706,63.2703,63.2704,63.8202,m,1,0.5355,,0.5355,1,63.8203,65.3203,0,13,13,2,1,3,memur,notharmonic,word,m,,,,,,,,,,,,,,,,,,,,,,,,,,,,,,,,,,,,,
,,,,,,,,,,,Manly McBeefington,001,2023-11-08_10h15.25.984,vowel_harmony,2023.2.3,Win32,60.06366749,65.3207,66.3202,66.3202,67.0868,z,1,0.7435,,0.7435,1,67.0868,68.5868,0,14,14,10,1,11,mahne,notharmonic,nw,z,,,,,,,,,,,,,,,,,,,,,,,,,,,,,,,,,,,,,
,,,,,,,,,,,Manly McBeefington,001,2023-11-08_10h15.25.984,vowel_harmony,2023.2.3,Win32,60.06366749,68.5871,69.5867,69.5867,70.1867,m,1,0.581,,0.581,1,70.1867,71.6867,0,15,15,1,1,2,veri,harmonic,word,m,,,,,,,,,,,,,,,,,,,,,,,,,,,,,,,,,,,,,
,,,,,,,,,,,Manly McBeefington,001,2023-11-08_10h15.25.984,vowel_harmony,2023.2.3,Win32,60.06366749,,,,,,,,,,,,,,,,,,,,,,,71.6876,77.1538,space,5.4432,,,,,,,,,,,,,,,,,,,,,,,,,,,,,,,,,
,,,,,,,,,,,Manly McBeefington,001,2023-11-08_10h15.25.984,vowel_harmony,2023.2.3,Win32,60.06366749,77.213,78.1696,,,,,,,,,,,,,,,,,,,,,,,,,,78.1699,78.9862,z,1,0.7834,,78.9865,78.9879,,0,0,0,276,1,277,iptap,,,,,5,notharmonic,1.95,nw,z,,,,,,,
,,,,,,,,,,,Manly McBeefington,001,2023-11-08_10h15.25.984,vowel_harmony,2023.2.3,Win32,60.06366749,78.9883,79.9861,,,,,,,,,,,,,,,,,,,,,,,,,,79.9861,80.5862,m,1,0.5671,,80.5862,80.5863,,0,1,1,105,1,106,sahip,10887,494.6621,9847,1.0765,5,notharmonic,1.25,word,m,,,,,,,
,,,,,,,,,,,Manly McBeefington,001,2023-11-08_10h15.25.984,vowel_harmony,2023.2.3,Win32,60.06366749,80.5868,81.5859,,,,,,,,,,,,,,,,,,,,,,,,,,81.5859,82.2528,z,1,0.6396,,82.2529,82.2529,,0,2,2,201,1,202,ergiy,,,,,5,harmonic,1.85,nw,z,,,,,,,
,,,,,,,,,,,Manly McBeefington,001,2023-11-08_10h15.25.984,vowel_harmony,2023.2.3,Win32,60.06366749,82.2534,83.2527,,,,,,,,,,,,,,,,,,,,,,,,,,83.2527,83.836,m,1,0.5509,,83.836,83.8361,,0,3,3,6,1,7,hayal,4498,204.3713,4079,0.4459,5,harmonic,1.45,word,m,,,,,,,
,,,,,,,,,,,Manly McBeefington,001,2023-11-08_10h15.25.984,vowel_harmony,2023.2.3,Win32,60.06366749,83.8366,84.8358,,,,,,,,,,,,,,,,,,,,,,,,,,84.8359,85.4525,m,1,0.5896,,85.4526,85.4527,,0,4,4,13,1,14,nokta,2085,94.7341,1939,0.212,5,harmonic,1.5,word,m,,,,,,,
,,,,,,,,,,,Manly McBeefington,001,2023-11-08_10h15.25.984,vowel_harmony,2023.2.3,Win32,60.06366749,85.4531,86.4523,,,,,,,,,,,,,,,,,,,,,,,,,,86.4523,87.0109,m,1,0.5338,,87.0109,87.0111,,0,5,5,76,1,77,ilişki,1675,76.1054,1524,0.1666,6,harmonic,1.8,word,m,,,,,,,
,,,,,,,,,,,Manly McBeefington,001,2023-11-08_10h15.25.984,vowel_harmony,2023.2.3,Win32,60.06366749,87.0113,88.0023,,,,,,,,,,,,,,,,,,,,,,,,,,88.0023,88.669,z,1,0.6341,,88.6691,88.6692,,0,6,6,227,1,228,zekö,,,,,4,harmonic,1.9,nw,z,,,,,,,
,,,,,,,,,,,Manly McBeefington,001,2023-11-08_10h15.25.984,vowel_harmony,2023.2.3,Win32,60.06366749,88.6697,89.669,,,,,,,,,,,,,,,,,,,,,,,,,,89.6691,90.2522,m,1,0.5569,,90.2523,90.2526,,0,7,7,93,1,94,siyah,2944,133.7637,2527,0.2763,5,notharmonic,1.6,word,m,,,,,,,
,,,,,,,,,,,Manly McBeefington,001,2023-11-08_10h15.25.984,vowel_harmony,2023.2.3,Win32,60.06366749,90.2531,91.2522,,,,,,,,,,,,,,,,,,,,,,,,,,91.2523,91.8019,m,1,0.5247,,91.802,91.8021,,0,8,8,88,1,89,yalnız,5891,267.6637,5440,0.5947,6,harmonic,1.6,word,m,,,,,,,
,,,,,,,,,,,Manly McBeefington,001,2023-11-08_10h15.25.984,vowel_harmony,2023.2.3,Win32,60.06366749,91.8024,92.8021,,,,,,,,,,,,,,,,,,,,,,,,,,92.8022,93.5944,z,1,0.7673,,93.5945,93.5947,,0,9,9,272,1,273,daken,,,,,5,notharmonic,1.8,nw,z,,,,,,,
,,,,,,,,,,,Manly McBeefington,001,2023-11-08_10h15.25.984,vowel_harmony,2023.2.3,Win32,60.06366749,93.595,94.5935,,,,,,,,,,,,,,,,,,,,,,,,,,94.5935,95.152,m,1,0.5341,,95.152,95.1522,,0,10,10,113,1,114,model,1200,54.5232,1082,0.1183,5,notharmonic,1.75,word,m,,,,,,,
,,,,,,,,,,,Manly McBeefington,001,2023-11-08_10h15.25.984,vowel_harmony,2023.2.3,Win32,60.06366749,95.1526,96.1518,,,,,,,,,,,,,,,,,,,,,,,,,,96.1518,96.7352,m,1,0.5508,,96.7353,96.7354,,0,11,11,79,1,80,durum,6783,308.1926,6431,0.703,5,harmonic,1.7,word,m,,,,,,,
,,,,,,,,,,,Manly McBeefington,001,2023-11-08_10h15.25.984,vowel_harmony,2023.2.3,Win32,60.06366749,96.7359,97.7352,,,,,,,,,,,,,,,,,,,,,,,,,,97.7352,98.2851,m,1,0.522,,98.2851,98.2853,,0,12,12,100,1,101,düşman,1065,48.3894,962,0.1052,6,notharmonic,1.85,word,m,,,,,,,
,,,,,,,,,,,Manly McBeefington,001,2023-11-08_10h15.25.984,vowel_harmony,2023.2.3,Win32,60.06366749,98.2858,99.2851,,,,,,,,,,,,,,,,,,,,,,,,,,99.2852,100.1517,m,0,0.8341,,100.1517,100.1518,,0,13,13,343,1,344,tarne,,,,,5,notharmonic,1.85,nw,z,,,,,,,
,,,,,,,,,,,Manly McBeefington,001,2023-11-08_10h15.25.984,vowel_harmony,2023.2.3,Win32,60.06366749,100.1523,101.1514,,,,,,,,,,,,,,,,,,,,,,,,,,101.1515,102.0849,m,0,0.9058,,102.0849,102.085,,0,14,14,204,1,205,gerkez,,,,,6,harmonic,1.9,nw,z,,,,,,,
,,,,,,,,,,,Manly McBeefington,001,2023-11-08_10h15.25.984,vowel_harmony,2023.2.3,Win32,60.06366749,102.0855,103.0854,,,,,,,,,,,,,,,,,,,,,,,,,,103.0854,103.7682,z,1,0.6508,,103.7683,103.7684,,0,15,15,183,1,184,orkın,,,,,5,harmonic,1.9,nw,z,,,,,,,
,,,,,,,,,,,Manly McBeefington,001,2023-11-08_10h15.25.984,vowel_harmony,2023.2.3,Win32,60.06366749,103.7688,104.7679,,,,,,,,,,,,,,,,,,,,,,,,,,104.768,105.8347,z,1,1.0339,,105.8347,105.8349,,0,16,16,275,1,276,tahçe,,,,,5,notharmonic,1.95,nw,z,,,,,,,
,,,,,,,,,,,Manly McBeefington,001,2023-11-08_10h15.25.984,vowel_harmony,2023.2.3,Win32,60.06366749,105.8353,106.8347,,,,,,,,,,,,,,,,,,,,,,,,,,106.8347,107.9012,z,1,1.0335,,107.9012,107.9012,,0,17,17,349,1,350,harten,,,,,6,notharmonic,1.85,nw,z,,,,,,,
,,,,,,,,,,,Manly McBeefington,001,2023-11-08_10h15.25.984,vowel_harmony,2023.2.3,Win32,60.06366749,107.9016,108.9013,,,,,,,,,,,,,,,,,,,,,,,,,,108.9013,109.4512,m,1,0.5174,,109.4512,109.4514,,0,18,18,175,1,176,aile,3655,166.0687,3126,0.3417,4,notharmonic,1,word,m,,,,,,,
,,,,,,,,,,,Manly McBeefington,001,2023-11-08_10h15.25.984,vowel_harmony,2023.2.3,Win32,60.06366749,109.4517,110.4512,,,,,,,,,,,,,,,,,,,,,,,,,,110.4512,111.327,m,0,0.8508,,111.327,111.3272,,0,19,19,234,1,235,düzöt,,,,,5,harmonic,2.05,nw,z,,,,,,,
,,,,,,,,,,,Manly McBeefington,001,2023-11-08_10h15.25.984,vowel_harmony,2023.2.3,Win32,60.06366749,111.3276,112.3176,,,,,,,,,,,,,,,,,,,,,,,,,,112.3177,113.3176,z,1,0.9673,,113.3176,113.3178,,0,20,20,317,1,318,mevul,,,,,5,notharmonic,1.95,nw,z,,,,,,,
,,,,,,,,,,,Manly McBeefington,001,2023-11-08_10h15.25.984,vowel_harmony,2023.2.3,Win32,60.06366749,113.3182,114.309,,,,,,,,,,,,,,,,,,,,,,,,,,114.309,115.5174,m,0,1.1884,,115.5175,115.5177,,0,21,21,348,1,349,aife,,,,,4,notharmonic,1.75,nw,z,,,,,,,
,,,,,,,,,,,Manly McBeefington,001,2023-11-08_10h15.25.984,vowel_harmony,2023.2.3,Win32,60.06366749,115.5182,116.5174,,,,,,,,,,,,,,,,,,,,,,,,,,116.5175,117.5006,m,0,0.9522,,117.5007,117.5008,,0,22,22,327,1,328,parkeş,,,,,6,notharmonic,1.9,nw,z,,,,,,,
,,,,,,,,,,,Manly McBeefington,001,2023-11-08_10h15.25.984,vowel_harmony,2023.2.3,Win32,60.06366749,117.5011,118.5005,,,,,,,,,,,,,,,,,,,,,,,,,,118.5005,119.2337,z,1,0.7003,,119.2338,119.2339,,0,23,23,346,1,347,kidan,,,,,5,notharmonic,1.8,nw,z,,,,,,,
,,,,,,,,,,,Manly McBeefington,001,2023-11-08_10h15.25.984,vowel_harmony,2023.2.3,Win32,60.06366749,119.2342,120.234,,,,,,,,,,,,,,,,,,,,,,,,,,120.234,121.3005,m,0,1.0393,,121.3005,121.3007,,0,24,24,357,1,358,işarek,,,,,6,notharmonic,1.95,nw,z,,,,,,,
,,,,,,,,,,,Manly McBeefington,001,2023-11-08_10h15.25.984,vowel_harmony,2023.2.3,Win32,60.06366749,121.301,122.3004,,,,,,,,,,,,,,,,,,,,,,,,,,122.3004,123.2504,z,1,0.9175,,123.2505,123.2507,,0,25,25,255,1,256,yokın,,,,,5,harmonic,1.85,nw,z,,,,,,,
,,,,,,,,,,,Manly McBeefington,001,2023-11-08_10h15.25.984,vowel_harmony,2023.2.3,Win32,60.06366749,123.2512,124.2504,,,,,,,,,,,,,,,,,,,,,,,,,,124.2504,124.9338,m,1,0.6506,,124.9338,124.9339,,0,26,26,15,1,16,hayat,7922,359.9443,7314,0.7996,5,harmonic,1.9,word,m,,,,,,,
,,,,,,,,,,,Manly McBeefington,001,2023-11-08_10h15.25.984,vowel_harmony,2023.2.3,Win32,60.06366749,124.9342,125.9336,,,,,,,,,,,,,,,,,,,,,,,,,,125.9337,126.7168,z,1,0.7502,,126.7169,126.7171,,0,27,27,336,1,337,diyam,,,,,5,notharmonic,1.85,nw,z,,,,,,,
,,,,,,,,,,,Manly McBeefington,001,2023-11-08_10h15.25.984,vowel_harmony,2023.2.3,Win32,60.06366749,126.7173,127.7168,,,,,,,,,,,,,,,,,,,,,,,,,,127.7169,128.3335,m,1,0.5883,,128.3336,128.3337,,0,28,28,5,1,6,bebek,3301,149.9843,2794,0.3054,5,harmonic,1.6,word,m,,,,,,,
,,,,,,,,,,,Manly McBeefington,001,2023-11-08_10h15.25.984,vowel_harmony,2023.2.3,Win32,60.06366749,128.3342,129.3334,,,,,,,,,,,,,,,,,,,,,,,,,,129.3334,130.1167,z,1,0.7559,,130.1167,130.1168,,0,29,29,261,1,262,kardok,,,,,6,harmonic,1.95,nw,z,,,,,,,
,,,,,,,,,,,Manly McBeefington,001,2023-11-08_10h15.25.984,vowel_harmony,2023.2.3,Win32,60.06366749,130.1172,131.1081,,,,,,,,,,,,,,,,,,,,,,,,,,131.1081,131.6918,m,1,0.567,,131.6919,131.6919,,0,30,30,10,1,11,bardak,1728,78.5135,1569,0.1715,6,harmonic,1.6,word,m,,,,,,,
,,,,,,,,,,,Manly McBeefington,001,2023-11-08_10h15.25.984,vowel_harmony,2023.2.3,Win32,60.06366749,131.6922,132.6833,,,,,,,,,,,,,,,,,,,,,,,,,,132.6834,133.3165,m,1,0.6006,,133.3165,133.3166,,0,31,31,74,1,75,başarı,1398,63.5196,1300,0.1421,6,harmonic,1.2,word,m,,,,,,,
,,,,,,,,,,,Manly McBeefington,001,2023-11-08_10h15.25.984,vowel_harmony,2023.2.3,Win32,60.06366749,133.317,134.3166,,,,,,,,,,,,,,,,,,,,,,,,,,134.3167,135.0995,m,1,0.7518,,135.0995,135.0996,,0,32,32,133,1,134,taze,2268,103.0489,2062,0.2254,4,notharmonic,1.65,word,m,,,,,,,
,,,,,,,,,,,Manly McBeefington,001,2023-11-08_10h15.25.984,vowel_harmony,2023.2.3,Win32,60.06366749,135.0999,136.0996,,,,,,,,,,,,,,,,,,,,,,,,,,136.0996,136.8494,m,1,0.719,,136.8494,136.8495,,0,33,33,17,1,18,yakın,7990,363.0339,7595,0.8303,5,harmonic,1.8,word,m,,,,,,,
,,,,,,,,,,,Manly McBeefington,001,2023-11-08_10h15.25.984,vowel_harmony,2023.2.3,Win32,60.06366749,136.8499,137.8496,,,,,,,,,,,,,,,,,,,,,,,,,,137.8496,138.4164,m,1,0.534,,138.4164,138.4165,,0,34,34,98,1,99,paket,1532,69.608,1392,0.1522,5,notharmonic,1.55,word,m,,,,,,,
,,,,,,,,,,,Manly McBeefington,001,2023-11-08_10h15.25.984,vowel_harmony,2023.2.3,Win32,60.06366749,138.4171,139.4161,,,,,,,,,,,,,,,,,,,,,,,,,,139.4162,140.0828,z,1,0.6318,,140.0828,140.0832,,0,35,35,180,1,181,ayaro,,,,,5,harmonic,1.8,nw,z,,,,,,,
,,,,,,,,,,,Manly McBeefington,001,2023-11-08_10h15.25.984,vowel_harmony,2023.2.3,Win32,60.06366749,140.0838,141.0827,,,,,,,,,,,,,,,,,,,,,,,,,,141.0827,141.8659,z,1,0.7504,,141.8659,141.866,,0,36,36,314,1,315,seral,,,,,5,notharmonic,1.7,nw,z,,,,,,,
,,,,,,,,,,,Manly McBeefington,001,2023-11-08_10h15.25.984,vowel_harmony,2023.2.3,Win32,60.06366749,141.8663,142.866,,,,,,,,,,,,,,,,,,,,,,,,,,142.8661,143.4828,m,1,0.5919,,143.4828,143.483,,0,37,37,137,1,138,parti,2613,118.7244,2059,0.2251,5,notharmonic,1.8,word,m,,,,,,,
,,,,,,,,,,,Manly McBeefington,001,2023-11-08_10h15.25.984,vowel_harmony,2023.2.3,Win32,60.06366749,143.4835,144.4826,,,,,,,,,,,,,,,,,,,,,,,,,,144.4826,145.1157,m,1,0.6001,,145.1158,145.1158,,0,38,38,99,1,100,ilave,3173,144.1685,2619,0.2863,5,notharmonic,1.85,word,m,,,,,,,
,,,,,,,,,,,Manly McBeefington,001,2023-11-08_10h15.25.984,vowel_harmony,2023.2.3,Win32,60.06366749,145.1162,146.1158,,,,,,,,,,,,,,,,,,,,,,,,,,146.1159,146.7491,z,1,0.6005,,146.7492,146.7492,,0,39,39,226,1,227,tefem,,,,,5,harmonic,1.75,nw,z,,,,,,,
,,,,,,,,,,,Manly McBeefington,001,2023-11-08_10h15.25.984,vowel_harmony,2023.2.3,Win32,60.06366749,146.7496,147.7489,,,,,,,,,,,,,,,,,,,,,,,,,,147.749,148.3822,z,1,0.6058,,148.3823,148.3824,,0,40,40,283,1,284,fahe,,,,,4,notharmonic,1.95,nw,z,,,,,,,
,,,,,,,,,,,Manly McBeefington,001,2023-11-08_10h15.25.984,vowel_harmony,2023.2.3,Win32,60.06366749,148.3828,149.3821,,,,,,,,,,,,,,,,,,,,,,,,,,149.3821,150.0157,z,1,0.6008,,150.0157,150.0158,,0,41,41,219,1,220,barlum,,,,,6,harmonic,1.9,nw,z,,,,,,,
,,,,,,,,,,,Manly McBeefington,001,2023-11-08_10h15.25.984,vowel_harmony,2023.2.3,Win32,60.06366749,150.0162,151.0156,,,,,,,,,,,,,,,,,,,,,,,,,,151.0156,151.7488,z,1,0.7007,,151.7489,151.749,,0,42,42,340,1,341,minya,,,,,5,notharmonic,1.95,nw,z,,,,,,,
,,,,,,,,,,,Manly McBeefington,001,2023-11-08_10h15.25.984,vowel_harmony,2023.2.3,Win32,60.06366749,151.7494,152.7488,,,,,,,,,,,,,,,,,,,,,,,,,,152.7489,153.3907,z,1,0.617,,153.3907,153.3908,,0,43,43,287,1,288,haköm,,,,,5,notharmonic,1.9,nw,z,,,,,,,
,,,,,,,,,,,Manly McBeefington,001,2023-11-08_10h15.25.984,vowel_harmony,2023.2.3,Win32,60.06366749,153.3911,154.382,,,,,,,,,,,,,,,,,,,,,,,,,,154.3821,155.0572,z,1,0.6504,,155.0572,155.0573,,0,44,44,260,1,261,yarlam,,,,,6,harmonic,1.75,nw,z,,,,,,,
,,,,,,,,,,,Manly McBeefington,001,2023-11-08_10h15.25.984,vowel_harmony,2023.2.3,Win32,60.06366749,155.0577,156.0483,,,,,,,,,,,,,,,,,,,,,,,,,,156.0484,156.6987,m,1,0.6173,,156.6987,156.6988,,0,45,45,84,1,85,ülke,3121,141.8059,2801,0.3062,4,harmonic,1.65,word,m,,,,,,,
,,,,,,,,,,,Manly McBeefington,001,2023-11-08_10h15.25.984,vowel_harmony,2023.2.3,Win32,60.06366749,156.6993,157.6985,,,,,,,,,,,,,,,,,,,,,,,,,,157.6986,158.2984,m,1,0.5745,,158.2984,158.2986,,0,46,46,21,1,22,duygu,1877,85.2834,1760,0.1924,5,harmonic,1.8,word,m,,,,,,,
,,,,,,,,,,,Manly McBeefington,001,2023-11-08_10h15.25.984,vowel_harmony,2023.2.3,Win32,60.06366749,158.299,159.2985,,,,,,,,,,,,,,,,,,,,,,,,,,159.2985,159.9241,m,1,0.6008,,159.9242,159.9243,,0,47,47,50,1,51,kanun,1198,54.4324,1010,0.1104,5,harmonic,1.6,word,m,,,,,,,
,,,,,,,,,,,Manly McBeefington,001,2023-11-08_10h15.25.984,vowel_harmony,2023.2.3,Win32,60.06366749,159.9247,160.9149,,,,,,,,,,,,,,,,,,,,,,,,,,160.9149,161.5983,m,1,0.6506,,161.5984,161.5984,,0,48,48,132,1,133,modern,2326,105.6842,2031,0.222,6,notharmonic,1.85,word,m,,,,,,,
,,,,,,,,,,,Manly McBeefington,001,2023-11-08_10h15.25.984,vowel_harmony,2023.2.3,Win32,60.06366749,161.5989,162.5982,,,,,,,,,,,,,,,,,,,,,,,,,,162.5982,163.2739,m,1,0.6507,,163.2739,163.274,,0,49,49,166,1,167,maden,402,18.2653,339,0.0371,5,notharmonic,1.45,word,m,,,,,,,
,,,,,,,,,,,Manly McBeefington,001,2023-11-08_10h15.25.984,vowel_harmony,2023.2.3,Win32,60.06366749,163.2744,164.2647,,,,,,,,,,,,,,,,,,,,,,,,,,164.2648,164.8647,m,1,0.5678,,164.8648,164.8649,,0,50,50,27,1,28,bölge,1283,58.2944,1123,0.1228,5,harmonic,1.65,word,m,,,,,,,
,,,,,,,,,,,Manly McBeefington,001,2023-11-08_10h15.25.984,vowel_harmony,2023.2.3,Win32,60.06366749,164.8655,165.8648,,,,,,,,,,,,,,,,,,,,,,,,,,165.8648,166.3812,m,1,0.488,,166.3812,166.3813,,0,51,51,153,1,154,inşaat,432,19.6284,376,0.0411,6,notharmonic,1.6,word,m,,,,,,,
,,,,,,,,,,,Manly McBeefington,001,2023-11-08_10h15.25.984,vowel_harmony,2023.2.3,Win32,60.06366749,166.3816,167.3813,,,,,,,,,,,,,,,,,,,,,,,,,,167.3813,167.9041,m,1,0.498,,167.9042,167.9044,,0,52,52,140,1,141,sahil,481,21.8547,443,0.0484,5,notharmonic,1.45,word,m,,,,,,,
,,,,,,,,,,,Manly McBeefington,001,2023-11-08_10h15.25.984,vowel_harmony,2023.2.3,Win32,60.06366749,167.9047,168.8979,,,,,,,,,,,,,,,,,,,,,,,,,,168.898,169.4811,m,1,0.5562,,169.4811,169.4812,,0,53,53,91,1,92,ifade,6177,280.6584,5726,0.626,5,notharmonic,1.7,word,m,,,,,,,
,,,,,,,,,,,Manly McBeefington,001,2023-11-08_10h15.25.984,vowel_harmony,2023.2.3,Win32,60.06366749,169.4816,170.4811,,,,,,,,,,,,,,,,,,,,,,,,,,170.4812,171.2145,z,1,0.704,,171.2145,171.2146,,0,54,54,332,1,333,tahane,,,,,6,notharmonic,1.85,nw,z,,,,,,,
,,,,,,,,,,,Manly McBeefington,001,2023-11-08_10h15.25.984,vowel_harmony,2023.2.3,Win32,60.06366749,171.2152,172.2144,,,,,,,,,,,,,,,,,,,,,,,,,,172.2144,172.8976,m,1,0.6507,,172.8977,172.8978,,0,55,55,63,1,64,sultan,1756,79.7857,1368,0.1496,6,harmonic,1.55,word,m,,,,,,,
,,,,,,,,,,,Manly McBeefington,001,2023-11-08_10h15.25.984,vowel_harmony,2023.2.3,Win32,60.06366749,172.8983,173.8975,,,,,,,,,,,,,,,,,,,,,,,,,,173.8976,174.3974,m,1,0.4708,,174.3974,174.3976,,0,56,56,7,1,8,hizmet,3023,137.3531,2689,0.294,6,harmonic,1.75,word,m,,,,,,,
,,,,,,,,,,,Manly McBeefington,001,2023-11-08_10h15.25.984,vowel_harmony,2023.2.3,Win32,60.06366749,174.3978,175.3976,,,,,,,,,,,,,,,,,,,,,,,,,,175.3976,175.8973,m,1,0.4747,,175.8973,175.8974,,0,57,57,23,1,24,kurum,986,44.7999,882,0.0964,5,harmonic,1.75,word,m,,,,,,,
,,,,,,,,,,,Manly McBeefington,001,2023-11-08_10h15.25.984,vowel_harmony,2023.2.3,Win32,60.06366749,175.8976,176.8974,,,,,,,,,,,,,,,,,,,,,,,,,,176.8975,177.4898,z,1,0.5673,,177.4899,177.49,,0,58,58,249,1,250,hurıt,,,,,5,harmonic,1.95,nw,z,,,,,,,
,,,,,,,,,,,Manly McBeefington,001,2023-11-08_10h15.25.984,vowel_harmony,2023.2.3,Win32,60.06366749,177.4904,178.4807,,,,,,,,,,,,,,,,,,,,,,,,,,178.4807,179.0063,m,1,0.5007,,179.0063,179.0065,,0,59,59,164,1,165,sinema,1575,71.5618,1304,0.1426,6,notharmonic,1.8,word,m,,,,,,,
,,,,,,,,,,,Manly McBeefington,001,2023-11-08_10h15.25.984,vowel_harmony,2023.2.3,Win32,60.06366749,179.0069,179.9973,,,,,,,,,,,,,,,,,,,,,,,,,,179.9973,180.4806,m,1,0.4517,,180.4806,180.4808,,0,60,60,151,1,152,ateş,2108,95.7792,1803,0.1971,4,notharmonic,1.65,word,m,,,,,,,
,,,,,,,,,,,Manly McBeefington,001,2023-11-08_10h15.25.984,vowel_harmony,2023.2.3,Win32,60.06366749,180.4811,181.4805,,,,,,,,,,,,,,,,,,,,,,,,,,181.4806,181.9805,m,1,0.4721,,181.9805,181.9806,,0,61,61,52,1,53,resim,2506,113.8627,2188,0.2392,5,harmonic,1.4,word,m,,,,,,,
,,,,,,,,,,,Manly McBeefington,001,2023-11-08_10h15.25.984,vowel_harmony,2023.2.3,Win32,60.06366749,181.981,182.9802,,,,,,,,,,,,,,,,,,,,,,,,,,182.9804,183.5969,z,1,0.5837,,183.5969,183.597,,0,62,62,215,1,216,aydo,,,,,4,harmonic,1.9,nw,z,,,,,,,
,,,,,,,,,,,Manly McBeefington,001,2023-11-08_10h15.25.984,vowel_harmony,2023.2.3,Win32,60.06366749,183.5973,184.5969,,,,,,,,,,,,,,,,,,,,,,,,,,184.5969,185.1057,m,1,0.484,,185.1058,185.1058,,0,63,63,4,1,5,metre,1156,52.5241,1015,0.111,5,harmonic,1.7,word,m,,,,,,,
,,,,,,,,,,,Manly McBeefington,001,2023-11-08_10h15.25.984,vowel_harmony,2023.2.3,Win32,60.06366749,185.1061,186.097,,,,,,,,,,,,,,,,,,,,,,,,,,186.097,186.6135,m,1,0.4841,,186.6136,186.6136,,0,64,64,28,1,29,parlak,1142,51.888,1088,0.1189,6,harmonic,1.7,word,m,,,,,,,
,,,,,,,,,,,Manly McBeefington,001,2023-11-08_10h15.25.984,vowel_harmony,2023.2.3,Win32,60.06366749,186.6141,187.6136,,,,,,,,,,,,,,,,,,,,,,,,,,187.6136,188.0969,m,1,0.4518,,188.0969,188.097,,0,65,65,161,1,162,komik,1617,73.4701,1506,0.1646,5,notharmonic,1.75,word,m,,,,,,,
,,,,,,,,,,,Manly McBeefington,001,2023-11-08_10h15.25.984,vowel_harmony,2023.2.3,Win32,60.06366749,188.0975,189.0968,,,,,,,,,,,,,,,,,,,,,,,,,,189.0969,189.8467,z,1,0.7174,,189.8468,189.8469,,0,66,66,353,1,354,ikno,,,,,4,notharmonic,1.95,nw,z,,,,,,,
,,,,,,,,,,,Manly McBeefington,001,2023-11-08_10h15.25.984,vowel_harmony,2023.2.3,Win32,60.06366749,189.8474,190.8467,,,,,,,,,,,,,,,,,,,,,,,,,,190.8467,191.3634,m,1,0.4837,,191.3634,191.3635,,0,67,67,174,1,175,bugün,13879,630.6067,12842,1.4039,5,notharmonic,1.85,word,m,,,,,,,
,,,,,,,,,,,Manly McBeefington,001,2023-11-08_10h15.25.984,vowel_harmony,2023.2.3,Win32,60.06366749,191.3638,192.3633,,,,,,,,,,,,,,,,,,,,,,,,,,192.3633,192.8632,m,1,0.4692,,192.8633,192.8634,,0,68,68,19,1,20,ödül,1063,48.2985,926,0.1012,4,harmonic,1.7,word,m,,,,,,,
,,,,,,,,,,,Manly McBeefington,001,2023-11-08_10h15.25.984,vowel_harmony,2023.2.3,Win32,60.06366749,192.8638,193.8632,,,,,,,,,,,,,,,,,,,,,,,,,,193.8633,194.5631,z,1,0.6735,,194.5632,194.5632,,0,69,69,313,1,314,ikas,,,,,4,notharmonic,1.85,nw,z,,,,,,,
,,,,,,,,,,,Manly McBeefington,001,2023-11-08_10h15.25.984,vowel_harmony,2023.2.3,Win32,60.06366749,194.5638,195.5627,,,,,,,,,,,,,,,,,,,,,,,,,,195.5628,196.0298,m,1,0.4344,,196.0299,196.0299,,0,70,70,56,1,57,sağlam,1818,82.6027,1720,0.188,6,harmonic,1.6,word,m,,,,,,,
,,,,,,,,,,,Manly McBeefington,001,2023-11-08_10h15.25.984,vowel_harmony,2023.2.3,Win32,60.06366749,196.0305,197.0296,,,,,,,,,,,,,,,,,,,,,,,,,,197.0296,197.5461,m,1,0.4837,,197.5462,197.5463,,0,71,71,165,1,166,gazete,1402,63.7013,1270,0.1388,6,notharmonic,1.8,word,m,,,,,,,
,,,,,,,,,,,Manly McBeefington,001,2023-11-08_10h15.25.984,vowel_harmony,2023.2.3,Win32,60.06366749,197.5466,198.538,,,,,,,,,,,,,,,,,,,,,,,,,,198.5381,199.4461,z,1,0.8838,,199.4461,199.4462,,0,72,72,267,1,268,nokuma,,,,,6,harmonic,1.75,nw,z,,,,,,,
,,,,,,,,,,,Manly McBeefington,001,2023-11-08_10h15.25.984,vowel_harmony,2023.2.3,Win32,60.06366749,199.4465,200.4461,,,,,,,,,,,,,,,,,,,,,,,,,,200.4463,201.1459,z,1,0.6671,,201.1459,201.146,,0,73,73,203,1,204,döves,,,,,5,harmonic,1.8,nw,z,,,,,,,
,,,,,,,,,,,Manly McBeefington,001,2023-11-08_10h15.25.984,vowel_harmony,2023.2.3,Win32,60.06366749,201.1462,202.1458,,,,,,,,,,,,,,,,,,,,,,,,,,202.1459,203.0293,z,1,0.8507,,203.0294,203.0296,,0,74,74,182,1,183,orsın,,,,,5,harmonic,1.95,nw,z,,,,,,,
,,,,,,,,,,,Manly McBeefington,001,2023-11-08_10h15.25.984,vowel_harmony,2023.2.3,Win32,60.06366749,203.0301,204.0291,,,,,,,,,,,,,,,,,,,,,,,,,,204.0291,204.5627,m,1,0.5075,,204.5628,204.563,,0,75,75,34,1,35,hoca,1893,86.0104,1526,0.1668,4,harmonic,1.45,word,m,,,,,,,
,,,,,,,,,,,Manly McBeefington,001,2023-11-08_10h15.25.984,vowel_harmony,2023.2.3,Win32,60.06366749,204.5634,205.5539,,,,,,,,,,,,,,,,,,,,,,,,,,205.5539,206.1455,m,1,0.5742,,206.1456,206.1457,,0,76,76,77,1,78,ufak,3252,147.758,2980,0.3258,4,harmonic,1.5,word,m,,,,,,,
,,,,,,,,,,,Manly McBeefington,001,2023-11-08_10h15.25.984,vowel_harmony,2023.2.3,Win32,60.06366749,206.146,207.1457,,,,,,,,,,,,,,,,,,,,,,,,,,207.1457,207.7791,m,1,0.6006,,207.7791,207.7792,,0,77,77,90,1,91,tarif,2834,128.7657,2611,0.2854,5,notharmonic,1.5,word,m,,,,,,,
,,,,,,,,,,,Manly McBeefington,001,2023-11-08_10h15.25.984,vowel_harmony,2023.2.3,Win32,60.06366749,207.7797,208.779,,,,,,,,,,,,,,,,,,,,,,,,,,208.779,209.4955,z,1,0.6854,,209.4956,209.4957,,0,78,78,339,1,340,asmel,,,,,5,notharmonic,1.95,nw,z,,,,,,,
,,,,,,,,,,,Manly McBeefington,001,2023-11-08_10h15.25.984,vowel_harmony,2023.2.3,Win32,60.06366749,209.4959,210.4955,,,,,,,,,,,,,,,,,,,,,,,,,,210.4955,211.0621,m,1,0.5363,,211.0622,211.0622,,0,79,79,160,1,161,hakem,603,27.3979,473,0.0517,5,notharmonic,1.3,word,m,,,,,,,
,,,,,,,,,,,Manly McBeefington,001,2023-11-08_10h15.25.984,vowel_harmony,2023.2.3,Win32,60.06366749,211.0626,212.0621,,,,,,,,,,,,,,,,,,,,,,,,,,212.0622,212.6121,m,1,0.5224,,212.6121,212.6122,,0,80,80,116,1,117,daire,621,28.2158,503,0.055,5,notharmonic,1,word,m,,,,,,,
,,,,,,,,,,,Manly McBeefington,001,2023-11-08_10h15.25.984,vowel_harmony,2023.2.3,Win32,60.06366749,212.6128,213.6204,,,,,,,,,,,,,,,,,,,,,,,,,,213.6205,214.2787,z,1,0.6366,,214.2788,214.279,,0,81,81,290,1,291,aipa,,,,,4,notharmonic,1.95,nw,z,,,,,,,
,,,,,,,,,,,Manly McBeefington,001,2023-11-08_10h15.25.984,vowel_harmony,2023.2.3,Win32,60.06366749,214.2797,215.2787,,,,,,,,,,,,,,,,,,,,,,,,,,215.2787,216.3452,z,1,1.0342,,216.3453,216.3454,,0,82,82,296,1,297,işban,,,,,5,notharmonic,1.95,nw,z,,,,,,,
,,,,,,,,,,,Manly McBeefington,001,2023-11-08_10h15.25.984,vowel_harmony,2023.2.3,Win32,60.06366749,216.3458,217.345,,,,,,,,,,,,,,,,,,,,,,,,,,217.345,218.245,z,1,0.8709,,218.245,218.2451,,0,83,83,236,1,237,toklam,,,,,6,harmonic,1.85,nw,z,,,,,,,
,,,,,,,,,,,Manly McBeefington,001,2023-11-08_10h15.25.984,vowel_harmony,2023.2.3,Win32,60.06366749,218.2454,219.2451,,,,,,,,,,,,,,,,,,,,,,,,,,219.2451,219.8116,m,1,0.5338,,219.8116,219.8117,,0,84,84,148,1,149,selam,1868,84.8745,1764,0.1928,5,notharmonic,1.35,word,m,,,,,,,
,,,,,,,,,,,Manly McBeefington,001,2023-11-08_10h15.25.984,vowel_harmony,2023.2.3,Win32,60.06366749,219.8121,220.8114,,,,,,,,,,,,,,,,,,,,,,,,,,220.8114,221.5449,z,1,0.7088,,221.545,221.545,,0,85,85,294,1,295,mesap,,,,,5,notharmonic,1.8,nw,z,,,,,,,
,,,,,,,,,,,Manly McBeefington,001,2023-11-08_10h15.25.984,vowel_harmony,2023.2.3,Win32,60.06366749,221.5453,222.5449,,,,,,,,,,,,,,,,,,,,,,,,,,222.5449,223.1373,m,1,0.5673,,223.1374,223.1376,,0,86,86,38,1,39,dönem,2820,128.1296,2437,0.2664,5,harmonic,1.4,word,m,,,,,,,
,,,,,,,,,,,Manly McBeefington,001,2023-11-08_10h15.25.984,vowel_harmony,2023.2.3,Win32,60.06366749,223.1381,224.1282,,,,,,,,,,,,,,,,,,,,,,,,,,224.1283,224.7945,z,1,0.64,,224.7945,224.7946,,0,87,87,282,1,283,taöz,,,,,4,notharmonic,1.9,nw,z,,,,,,,
,,,,,,,,,,,Manly McBeefington,001,2023-11-08_10h15.25.984,vowel_harmony,2023.2.3,Win32,60.06366749,224.795,225.7947,,,,,,,,,,,,,,,,,,,,,,,,,,225.7948,226.3945,m,1,0.5671,,226.3945,226.3946,,0,88,88,146,1,147,mavi,2206,100.2319,1934,0.2114,4,notharmonic,1.45,word,m,,,,,,,
,,,,,,,,,,,Manly McBeefington,001,2023-11-08_10h15.25.984,vowel_harmony,2023.2.3,Win32,60.06366749,226.3948,227.3946,,,,,,,,,,,,,,,,,,,,,,,,,,227.3946,227.9946,m,1,0.5741,,227.9946,227.9947,,0,89,89,139,1,140,lira,1253,56.9314,947,0.1035,4,notharmonic,1.4,word,m,,,,,,,
,,,,,,,,,,,Manly McBeefington,001,2023-11-08_10h15.25.984,vowel_harmony,2023.2.3,Win32,60.06366749,227.9951,228.9945,,,,,,,,,,,,,,,,,,,,,,,,,,228.9945,229.9777,z,1,0.9502,,229.9777,229.9777,,0,90,90,208,1,209,yayram,,,,,6,harmonic,1.85,nw,z,,,,,,,
,,,,,,,,,,,Manly McBeefington,001,2023-11-08_10h15.25.984,vowel_harmony,2023.2.3,Win32,60.06366749,229.978,230.9775,,,,,,,,,,,,,,,,,,,,,,,,,,230.9776,231.5696,m,1,0.5669,,231.5697,231.5698,,0,91,91,149,1,150,ceza,2611,118.6335,2169,0.2371,4,notharmonic,1.5,word,m,,,,,,,
,,,,,,,,,,,Manly McBeefington,001,2023-11-08_10h15.25.984,vowel_harmony,2023.2.3,Win32,60.06366749,231.57,232.561,,,,,,,,,,,,,,,,,,,,,,,,,,232.561,233.2442,z,1,0.6506,,233.2442,233.2444,,0,92,92,266,1,267,düştön,,,,,6,harmonic,1.9,nw,z,,,,,,,
,,,,,,,,,,,Manly McBeefington,001,2023-11-08_10h15.25.984,vowel_harmony,2023.2.3,Win32,60.06366749,233.2449,234.2441,,,,,,,,,,,,,,,,,,,,,,,,,,234.2442,234.8274,m,1,0.5504,,234.8274,234.8275,,0,93,93,40,1,41,tepki,1695,77.0141,1578,0.1725,5,harmonic,1.55,word,m,,,,,,,
,,,,,,,,,,,Manly McBeefington,001,2023-11-08_10h15.25.984,vowel_harmony,2023.2.3,Win32,60.06366749,234.8279,235.8329,,,,,,,,,,,,,,,,,,,,,,,,,,235.8329,236.4107,m,1,0.5571,,236.4108,236.4109,,0,94,94,24,1,25,yorgun,1153,52.3877,1108,0.1211,6,harmonic,1.55,word,m,,,,,,,
,,,,,,,,,,,Manly McBeefington,001,2023-11-08_10h15.25.984,vowel_harmony,2023.2.3,Win32,60.06366749,236.4114,237.4105,,,,,,,,,,,,,,,,,,,,,,,,,,237.4106,237.9605,m,1,0.5218,,237.9606,237.9607,,0,95,95,126,1,127,adet,4367,198.4192,3768,0.4119,4,notharmonic,1.4,word,m,,,,,,,
,,,,,,,,,,,Manly McBeefington,001,2023-11-08_10h15.25.984,vowel_harmony,2023.2.3,Win32,60.06366749,237.961,238.9606,,,,,,,,,,,,,,,,,,,,,,,,,,238.9606,239.5938,z,1,0.6003,,239.5938,239.5938,,0,96,96,326,1,327,ailo,,,,,4,notharmonic,1.75,nw,z,,,,,,,
,,,,,,,,,,,Manly McBeefington,001,2023-11-08_10h15.25.984,vowel_harmony,2023.2.3,Win32,60.06366749,239.5942,240.5939,,,,,,,,,,,,,,,,,,,,,,,,,,240.594,241.1604,m,0,0.5343,,241.1604,241.1605,,0,97,97,284,1,285,deval,,,,,5,notharmonic,1.75,nw,z,,,,,,,
,,,,,,,,,,,Manly McBeefington,001,2023-11-08_10h15.25.984,vowel_harmony,2023.2.3,Win32,60.06366749,241.1608,242.1605,,,,,,,,,,,,,,,,,,,,,,,,,,242.1606,242.8604,z,1,0.6674,,242.8605,242.8606,,0,98,98,210,1,211,şevci,,,,,5,harmonic,1.75,nw,z,,,,,,,
,,,,,,,,,,,Manly McBeefington,001,2023-11-08_10h15.25.984,vowel_harmony,2023.2.3,Win32,60.06366749,242.861,243.8604,,,,,,,,,,,,,,,,,,,,,,,,,,243.8604,244.5269,z,1,0.6356,,244.527,244.527,,0,99,99,196,1,197,bilön,,,,,5,harmonic,1.9,nw,z,,,,,,,
,,,,,,,,,,,Manly McBeefington,001,2023-11-08_10h15.25.984,vowel_harmony,2023.2.3,Win32,60.06366749,244.5274,245.5268,,,,,,,,,,,,,,,,,,,,,,,,,,245.5269,246.0268,m,1,0.4735,,246.0269,246.027,,0,100,100,177,1,178,tekrar,10788,490.1639,9352,1.0224,6,notharmonic,1.85,word,m,,,,,,,
,,,,,,,,,,,Manly McBeefington,001,2023-11-08_10h15.25.984,vowel_harmony,2023.2.3,Win32,60.06366749,246.0275,247.0268,,,,,,,,,,,,,,,,,,,,,,,,,,247.0269,247.769,z,1,0.7171,,247.7691,247.7691,,0,101,101,345,1,346,bardeş,,,,,6,notharmonic,1.95,nw,z,,,,,,,
,,,,,,,,,,,Manly McBeefington,001,2023-11-08_10h15.25.984,vowel_harmony,2023.2.3,Win32,60.06366749,247.7696,248.7601,,,,,,,,,,,,,,,,,,,,,,,,,,248.7602,249.3766,m,1,0.5837,,249.3767,249.3767,,0,102,102,30,1,31,çevre,1662,75.5147,1409,0.154,5,harmonic,1.55,word,m,,,,,,,
,,,,,,,,,,,Manly McBeefington,001,2023-11-08_10h15.25.984,vowel_harmony,2023.2.3,Win32,60.06366749,249.377,250.3848,,,,,,,,,,,,,,,,,,,,,,,,,,250.3848,251.06,z,1,0.6509,,251.06,251.0602,,0,103,103,235,1,236,oşup,,,,,4,harmonic,1.75,nw,z,,,,,,,
,,,,,,,,,,,Manly McBeefington,001,2023-11-08_10h15.25.984,vowel_harmony,2023.2.3,Win32,60.06366749,251.0606,252.0598,,,,,,,,,,,,,,,,,,,,,,,,,,252.0599,252.7847,m,1,0.7,,252.7847,252.7848,,0,104,104,104,1,105,cevap,5232,237.7213,4822,0.5271,5,notharmonic,1.85,word,m,,,,,,,
,,,,,,,,,,,Manly McBeefington,001,2023-11-08_10h15.25.984,vowel_harmony,2023.2.3,Win32,60.06366749,252.7849,253.7764,,,,,,,,,,,,,,,,,,,,,,,,,,253.7765,254.5097,z,1,0.7037,,254.5098,254.51,,0,105,105,225,1,226,düvem,,,,,5,harmonic,1.7,nw,z,,,,,,,
,,,,,,,,,,,Manly McBeefington,001,2023-11-08_10h15.25.984,vowel_harmony,2023.2.3,Win32,60.06366749,254.5103,255.5095,,,,,,,,,,,,,,,,,,,,,,,,,,255.5095,256.2596,z,1,0.7223,,256.2596,256.2598,,0,106,106,309,1,310,yorgen,,,,,6,notharmonic,1.9,nw,z,,,,,,,
,,,,,,,,,,,Manly McBeefington,001,2023-11-08_10h15.25.984,vowel_harmony,2023.2.3,Win32,60.06366749,256.2601,257.2595,,,,,,,,,,,,,,,,,,,,,,,,,,257.2595,257.9928,z,1,0.7017,,257.9929,257.9929,,0,107,107,351,1,352,seğlık,,,,,6,notharmonic,1.9,nw,z,,,,,,,
,,,,,,,,,,,Manly McBeefington,001,2023-11-08_10h15.25.984,vowel_harmony,2023.2.3,Win32,60.06366749,257.9933,258.9847,,,,,,,,,,,,,,,,,,,,,,,,,,258.9847,259.7852,z,1,0.7841,,259.7852,259.7854,,0,108,108,194,1,195,rayna,,,,,5,harmonic,1.7,nw,z,,,,,,,
,,,,,,,,,,,Manly McBeefington,001,2023-11-08_10h15.25.984,vowel_harmony,2023.2.3,Win32,60.06366749,259.7858,260.7761,,,,,,,,,,,,,,,,,,,,,,,,,,260.7761,261.4592,z,1,0.6557,,261.4593,261.4593,,0,109,109,250,1,251,kakuk,,,,,5,harmonic,1.9,nw,z,,,,,,,
,,,,,,,,,,,Manly McBeefington,001,2023-11-08_10h15.25.984,vowel_harmony,2023.2.3,Win32,60.06366749,261.4597,262.4592,,,,,,,,,,,,,,,,,,,,,,,,,,262.4592,263.1684,z,1,0.6841,,263.1685,263.1686,,0,110,110,240,1,241,hoga,,,,,4,harmonic,1.75,nw,z,,,,,,,
,,,,,,,,,,,Manly McBeefington,001,2023-11-08_10h15.25.984,vowel_harmony,2023.2.3,Win32,60.06366749,263.1689,264.1592,,,,,,,,,,,,,,,,,,,,,,,,,,264.1592,264.859,z,1,0.6671,,264.859,264.859,,0,111,111,306,1,307,otet,,,,,4,notharmonic,1.95,nw,z,,,,,,,
,,,,,,,,,,,Manly McBeefington,001,2023-11-08_10h15.25.984,vowel_harmony,2023.2.3,Win32,60.06366749,264.8594,265.8589,,,,,,,,,,,,,,,,,,,,,,,,,,265.859,266.4756,m,1,0.5886,,266.4756,266.4758,,0,112,112,58,1,59,ayak,2143,97.3694,1931,0.2111,4,harmonic,1,word,m,,,,,,,
,,,,,,,,,,,Manly McBeefington,001,2023-11-08_10h15.25.984,vowel_harmony,2023.2.3,Win32,60.06366749,266.4761,267.4755,,,,,,,,,,,,,,,,,,,,,,,,,,267.4756,268.159,z,1,0.6524,,268.1591,268.1591,,0,113,113,323,1,324,devak,,,,,5,notharmonic,1.75,nw,z,,,,,,,
,,,,,,,,,,,Manly McBeefington,001,2023-11-08_10h15.25.984,vowel_harmony,2023.2.3,Win32,60.06366749,268.1596,269.159,,,,,,,,,,,,,,,,,,,,,,,,,,269.1591,269.8755,z,1,0.6893,,269.8757,269.8758,,0,114,114,302,1,303,işgar,,,,,5,notharmonic,1.9,nw,z,,,,,,,
,,,,,,,,,,,Manly McBeefington,001,2023-11-08_10h15.25.984,vowel_harmony,2023.2.3,Win32,60.06366749,269.8762,270.8754,,,,,,,,,,,,,,,,,,,,,,,,,,270.8754,271.4086,m,1,0.508,,271.4086,271.4087,,0,115,115,48,1,49,teşvik,932,42.3464,867,0.0948,6,harmonic,1.8,word,m,,,,,,,
,,,,,,,,,,,Manly McBeefington,001,2023-11-08_10h15.25.984,vowel_harmony,2023.2.3,Win32,60.06366749,271.409,272.4088,,,,,,,,,,,,,,,,,,,,,,,,,,272.4088,273.0093,m,1,0.5754,,273.0093,273.0094,,0,116,116,145,1,146,iddia,2430,110.4096,2295,0.2509,5,notharmonic,1.85,word,m,,,,,,,
,,,,,,,,,,,Manly McBeefington,001,2023-11-08_10h15.25.984,vowel_harmony,2023.2.3,Win32,60.06366749,273.01,274.0085,,,,,,,,,,,,,,,,,,,,,,,,,,274.0086,274.692,z,1,0.6504,,274.692,274.692,,0,117,117,311,1,312,dedya,,,,,5,notharmonic,1.9,nw,z,,,,,,,
,,,,,,,,,,,Manly McBeefington,001,2023-11-08_10h15.25.984,vowel_harmony,2023.2.3,Win32,60.06366749,274.6924,275.6919,,,,,,,,,,,,,,,,,,,,,,,,,,275.6919,276.4252,z,1,0.7006,,276.4253,276.4253,,0,118,118,318,1,319,yorgün,,,,,6,notharmonic,1.9,nw,z,,,,,,,
,,,,,,,,,,,Manly McBeefington,001,2023-11-08_10h15.25.984,vowel_harmony,2023.2.3,Win32,60.06366749,276.4258,277.4252,,,,,,,,,,,,,,,,,,,,,,,,,,277.4253,278.0249,z,1,0.5746,,278.0249,278.025,,0,119,119,331,1,332,ehun,,,,,4,notharmonic,1.95,nw,z,,,,,,,
,,,,,,,,,,,Manly McBeefington,001,2023-11-08_10h15.25.984,vowel_harmony,2023.2.3,Win32,60.06366749,278.0253,279.0251,,,,,,,,,,,,,,,,,,,,,,,,,,279.0251,279.6584,z,1,0.6006,,279.6584,282.9749,space,0,120,120,356,1,357,mergun,,,,,6,notharmonic,1.95,nw,z,3.2854,,,,,,
,,,,,,,,,,,Manly McBeefington,001,2023-11-08_10h15.25.984,vowel_harmony,2023.2.3,Win32,60.06366749,282.9915,283.9913,,,,,,,,,,,,,,,,,,,,,,,,,,283.9914,284.6248,z,1,0.6005,,284.6249,284.625,,0,121,121,253,1,254,meslet,,,,,6,harmonic,1.85,nw,z,,,,,,,
,,,,,,,,,,,Manly McBeefington,001,2023-11-08_10h15.25.984,vowel_harmony,2023.2.3,Win32,60.06366749,284.6255,285.6247,,,,,,,,,,,,,,,,,,,,,,,,,,285.6247,286.1914,m,1,0.5359,,286.1915,286.1916,,0,122,122,0,1,1,sanat,3121,141.8059,2485,0.2717,5,harmonic,1.4,word,m,,,,,,,
,,,,,,,,,,,Manly McBeefington,001,2023-11-08_10h15.25.984,vowel_harmony,2023.2.3,Win32,60.06366749,286.1921,287.1912,,,,,,,,,,,,,,,,,,,,,,,,,,287.1912,287.6912,m,1,0.467,,287.6912,287.6913,,0,123,123,1,1,2,erkek,6188,281.1582,5195,0.5679,5,harmonic,1.65,word,m,,,,,,,
,,,,,,,,,,,Manly McBeefington,001,2023-11-08_10h15.25.984,vowel_harmony,2023.2.3,Win32,60.06366749,287.6916,288.6912,,,,,,,,,,,,,,,,,,,,,,,,,,288.6913,289.4251,z,1,0.7089,,289.4252,289.4253,,0,124,124,316,1,317,misaf,,,,,5,notharmonic,1.85,nw,z,,,,,,,
,,,,,,,,,,,Manly McBeefington,001,2023-11-08_10h15.25.984,vowel_harmony,2023.2.3,Win32,60.06366749,289.4258,290.4243,,,,,,,,,,,,,,,,,,,,,,,,,,290.4243,290.9743,m,1,0.517,,290.9743,290.9744,,0,125,125,108,1,109,tarih,2806,127.4935,2483,0.2714,5,notharmonic,1.55,word,m,,,,,,,
,,,,,,,,,,,Manly McBeefington,001,2023-11-08_10h15.25.984,vowel_harmony,2023.2.3,Win32,60.06366749,290.9747,291.9743,,,,,,,,,,,,,,,,,,,,,,,,,,291.9743,292.5244,m,1,0.5173,,292.5244,292.5245,,0,126,126,22,1,23,anlam,1730,78.6043,1617,0.1768,5,harmonic,1.25,word,m,,,,,,,
,,,,,,,,,,,Manly McBeefington,001,2023-11-08_10h15.25.984,vowel_harmony,2023.2.3,Win32,60.06366749,292.5249,293.5243,,,,,,,,,,,,,,,,,,,,,,,,,,293.5244,294.124,z,1,0.567,,294.1241,294.1242,,0,127,127,202,1,203,güvin,,,,,5,harmonic,1.95,nw,z,,,,,,,
,,,,,,,,,,,Manly McBeefington,001,2023-11-08_10h15.25.984,vowel_harmony,2023.2.3,Win32,60.06366749,294.1245,295.1241,,,,,,,,,,,,,,,,,,,,,,,,,,295.1241,295.6741,m,1,0.5169,,295.6741,295.6742,,0,128,128,101,1,102,imza,1358,61.7021,1253,0.137,4,notharmonic,1.65,word,m,,,,,,,
,,,,,,,,,,,Manly McBeefington,001,2023-11-08_10h15.25.984,vowel_harmony,2023.2.3,Win32,60.06366749,295.6745,296.6741,,,,,,,,,,,,,,,,,,,,,,,,,,296.6741,297.2326,m,1,0.5336,,297.2327,297.2327,,0,129,129,18,1,19,normal,4154,188.7413,3788,0.4141,6,harmonic,1.75,word,m,,,,,,,
,,,,,,,,,,,Manly McBeefington,001,2023-11-08_10h15.25.984,vowel_harmony,2023.2.3,Win32,60.06366749,297.2329,298.224,,,,,,,,,,,,,,,,,,,,,,,,,,298.2241,298.8073,m,1,0.5519,,298.8074,298.8075,,0,130,130,65,1,66,fikir,2552,115.9528,2413,0.2638,5,harmonic,1.9,word,m,,,,,,,
,,,,,,,,,,,Manly McBeefington,001,2023-11-08_10h15.25.984,vowel_harmony,2023.2.3,Win32,60.06366749,298.8079,299.8073,,,,,,,,,,,,,,,,,,,,,,,,,,299.8074,300.3572,m,1,0.5206,,300.3573,300.3574,,0,131,131,169,1,170,hikaye,1555,70.653,1405,0.1536,6,notharmonic,1.8,word,m,,,,,,,
,,,,,,,,,,,Manly McBeefington,001,2023-11-08_10h15.25.984,vowel_harmony,2023.2.3,Win32,60.06366749,300.3579,301.3572,,,,,,,,,,,,,,,,,,,,,,,,,,301.3573,301.957,z,1,0.5667,,301.957,301.9571,,0,132,132,277,1,278,balsin,,,,,6,notharmonic,1.85,nw,z,,,,,,,
,,,,,,,,,,,Manly McBeefington,001,2023-11-08_10h15.25.984,vowel_harmony,2023.2.3,Win32,60.06366749,301.9575,302.9571,,,,,,,,,,,,,,,,,,,,,,,,,,302.9571,303.5736,m,1,0.5862,,303.5737,303.5738,,0,133,133,162,1,163,hariç,1267,57.5675,1233,0.1348,5,notharmonic,1.75,word,m,,,,,,,
,,,,,,,,,,,Manly McBeefington,001,2023-11-08_10h15.25.984,vowel_harmony,2023.2.3,Win32,60.06366749,303.5741,304.5737,,,,,,,,,,,,,,,,,,,,,,,,,,304.5737,305.1237,m,1,0.5172,,305.1237,305.1238,,0,134,134,95,1,96,takip,4996,226.9984,4651,0.5084,5,notharmonic,1.55,word,m,,,,,,,
,,,,,,,,,,,Manly McBeefington,001,2023-11-08_10h15.25.984,vowel_harmony,2023.2.3,Win32,60.06366749,305.1245,306.1236,,,,,,,,,,,,,,,,,,,,,,,,,,306.1236,307.2736,m,0,1.1157,0.0065,307.2737,307.2737,,0,135,135,185,1,186,örtin,,,,,5,harmonic,1.9,nw,z,,,,,,,
,,,,,,,,,,,Manly McBeefington,001,2023-11-08_10h15.25.984,vowel_harmony,2023.2.3,Win32,60.06366749,307.2742,308.2735,,,,,,,,,,,,,,,,,,,,,,,,,,308.2735,308.9068,z,1,0.6008,,308.9068,308.907,,0,136,136,328,1,329,kirul,,,,,5,notharmonic,1.95,nw,z,,,,,,,
,,,,,,,,,,,Manly McBeefington,001,2023-11-08_10h15.25.984,vowel_harmony,2023.2.3,Win32,60.06366749,308.9074,309.9066,,,,,,,,,,,,,,,,,,,,,,,,,,309.9066,310.4566,m,1,0.517,,310.4567,310.4568,,0,137,137,178,1,179,dikkat,6230,283.0665,5888,0.6437,6,notharmonic,2.05,word,m,,,,,,,
,,,,,,,,,,,Manly McBeefington,001,2023-11-08_10h15.25.984,vowel_harmony,2023.2.3,Win32,60.06366749,310.457,311.4566,,,,,,,,,,,,,,,,,,,,,,,,,,311.4566,312.0399,z,1,0.5562,,312.0399,312.0399,,0,138,138,304,1,305,annö,,,,,4,notharmonic,1.95,nw,z,,,,,,,
,,,,,,,,,,,Manly McBeefington,001,2023-11-08_10h15.25.984,vowel_harmony,2023.2.3,Win32,60.06366749,312.0404,313.0397,,,,,,,,,,,,,,,,,,,,,,,,,,313.0398,313.6562,m,1,0.5915,,313.6563,313.6563,,0,139,139,117,1,118,nasip,1069,48.5711,1042,0.1139,5,notharmonic,1.8,word,m,,,,,,,
,,,,,,,,,,,Manly McBeefington,001,2023-11-08_10h15.25.984,vowel_harmony,2023.2.3,Win32,60.06366749,313.6566,314.6563,,,,,,,,,,,,,,,,,,,,,,,,,,314.6564,315.2982,z,1,0.6156,,315.2982,315.2983,,0,140,140,200,1,201,duşın,,,,,5,harmonic,1.9,nw,z,,,,,,,
,,,,,,,,,,,Manly McBeefington,001,2023-11-08_10h15.25.984,vowel_harmony,2023.2.3,Win32,60.06366749,315.2985,316.2895,,,,,,,,,,,,,,,,,,,,,,,,,,316.2896,316.9064,z,1,0.5841,,316.9064,316.9066,,0,141,141,244,1,245,kaof,,,,,4,harmonic,1.9,nw,z,,,,,,,
,,,,,,,,,,,Manly McBeefington,001,2023-11-08_10h15.25.984,vowel_harmony,2023.2.3,Win32,60.06366749,316.907,317.9063,,,,,,,,,,,,,,,,,,,,,,,,,,317.9063,318.6153,z,1,0.6841,,318.6153,318.6154,,0,142,142,206,1,207,bevek,,,,,5,harmonic,1.75,nw,z,,,,,,,
,,,,,,,,,,,Manly McBeefington,001,2023-11-08_10h15.25.984,vowel_harmony,2023.2.3,Win32,60.06366749,318.6159,319.606,,,,,,,,,,,,,,,,,,,,,,,,,,319.6061,320.3061,z,1,0.6674,,320.3061,320.3063,,0,143,143,191,1,192,doab,,,,,4,harmonic,2,nw,z,,,,,,,
,,,,,,,,,,,Manly McBeefington,001,2023-11-08_10h15.25.984,vowel_harmony,2023.2.3,Win32,60.06366749,320.3066,321.306,,,,,,,,,,,,,,,,,,,,,,,,,,321.3061,322.006,z,1,0.6696,,322.006,322.0061,,0,144,144,301,1,302,mezak,,,,,5,notharmonic,1.8,nw,z,,,,,,,
,,,,,,,,,,,Manly McBeefington,001,2023-11-08_10h15.25.984,vowel_harmony,2023.2.3,Win32,60.06366749,322.0067,323.006,,,,,,,,,,,,,,,,,,,,,,,,,,323.006,323.6983,z,1,0.6673,,323.6983,323.6985,,0,145,145,188,1,189,tonık,,,,,5,harmonic,1.85,nw,z,,,,,,,
,,,,,,,,,,,Manly McBeefington,001,2023-11-08_10h15.25.984,vowel_harmony,2023.2.3,Win32,60.06366749,323.6988,324.689,,,,,,,,,,,,,,,,,,,,,,,,,,324.689,325.2893,m,1,0.5675,,325.2893,325.2894,,0,146,146,44,1,45,kayıt,1234,56.0681,1058,0.1157,5,harmonic,1.35,word,m,,,,,,,
,,,,,,,,,,,Manly McBeefington,001,2023-11-08_10h15.25.984,vowel_harmony,2023.2.3,Win32,60.06366749,325.2898,326.2892,,,,,,,,,,,,,,,,,,,,,,,,,,326.2892,327.3955,z,1,1.0813,,327.3956,327.3957,,0,147,147,207,1,208,örtre,,,,,5,harmonic,1.85,nw,z,,,,,,,
,,,,,,,,,,,Manly McBeefington,001,2023-11-08_10h15.25.984,vowel_harmony,2023.2.3,Win32,60.06366749,327.3961,328.389,,,,,,,,,,,,,,,,,,,,,,,,,,328.3891,328.9888,m,1,0.567,,328.9888,328.9889,,0,148,148,62,1,63,cümle,1911,86.8283,1765,0.193,5,harmonic,1.85,word,m,,,,,,,
,,,,,,,,,,,Manly McBeefington,001,2023-11-08_10h15.25.984,vowel_harmony,2023.2.3,Win32,60.06366749,328.9892,329.9889,,,,,,,,,,,,,,,,,,,,,,,,,,329.9889,330.6728,z,1,0.659,,330.6729,330.673,,0,149,149,269,1,270,vekü,,,,,4,harmonic,2,nw,z,,,,,,,
,,,,,,,,,,,Manly McBeefington,001,2023-11-08_10h15.25.984,vowel_harmony,2023.2.3,Win32,60.06366749,330.6735,331.6722,,,,,,,,,,,,,,,,,,,,,,,,,,331.6722,332.2222,m,1,0.5173,,332.2222,332.2223,,0,150,150,115,1,116,saniye,1088,49.4344,984,0.1076,6,notharmonic,1.35,word,m,,,,,,,
,,,,,,,,,,,Manly McBeefington,001,2023-11-08_10h15.25.984,vowel_harmony,2023.2.3,Win32,60.06366749,332.2228,333.2136,,,,,,,,,,,,,,,,,,,,,,,,,,333.2136,333.8306,z,1,0.6005,,333.8306,333.8306,,0,151,151,291,1,292,mepan,,,,,5,notharmonic,1.75,nw,z,,,,,,,
,,,,,,,,,,,Manly McBeefington,001,2023-11-08_10h15.25.984,vowel_harmony,2023.2.3,Win32,60.06366749,333.8309,334.822,,,,,,,,,,,,,,,,,,,,,,,,,,334.8221,335.6554,z,1,0.8013,,335.6554,335.6555,,0,152,152,218,1,219,tezöl,,,,,5,harmonic,2,nw,z,,,,,,,
,,,,,,,,,,,Manly McBeefington,001,2023-11-08_10h15.25.984,vowel_harmony,2023.2.3,Win32,60.06366749,335.6559,336.6551,,,,,,,,,,,,,,,,,,,,,,,,,,336.6551,337.3719,z,1,0.6842,,337.3719,337.372,,0,153,153,286,1,287,cedan,,,,,5,notharmonic,1.8,nw,z,,,,,,,
,,,,,,,,,,,Manly McBeefington,001,2023-11-08_10h15.25.984,vowel_harmony,2023.2.3,Win32,60.06366749,337.3724,338.3717,,,,,,,,,,,,,,,,,,,,,,,,,,338.3717,338.9384,m,1,0.5341,,338.9385,338.9386,,0,154,154,179,1,180,dakika,5891,267.6637,5207,0.5692,6,notharmonic,1.75,word,m,,,,,,,
,,,,,,,,,,,Manly McBeefington,001,2023-11-08_10h15.25.984,vowel_harmony,2023.2.3,Win32,60.06366749,338.939,339.9383,,,,,,,,,,,,,,,,,,,,,,,,,,339.9383,340.6217,m,1,0.6504,,340.6217,340.6218,,0,155,155,114,1,115,nisan,2321,105.457,2044,0.2235,5,notharmonic,1.6,word,m,,,,,,,
,,,,,,,,,,,Manly McBeefington,001,2023-11-08_10h15.25.984,vowel_harmony,2023.2.3,Win32,60.06366749,340.6221,341.6216,,,,,,,,,,,,,,,,,,,,,,,,,,341.6217,342.4717,z,1,0.8179,,342.4717,342.4718,,0,156,156,232,1,233,kanur,,,,,5,harmonic,1.7,nw,z,,,,,,,
,,,,,,,,,,,Manly McBeefington,001,2023-11-08_10h15.25.984,vowel_harmony,2023.2.3,Win32,60.06366749,342.4723,343.4713,,,,,,,,,,,,,,,,,,,,,,,,,,343.4713,344.0382,m,1,0.5361,,344.0382,344.0383,,0,157,157,71,1,72,örnek,3463,157.345,3266,0.357,5,harmonic,1.85,word,m,,,,,,,
,,,,,,,,,,,Manly McBeefington,001,2023-11-08_10h15.25.984,vowel_harmony,2023.2.3,Win32,60.06366749,344.0387,345.0381,,,,,,,,,,,,,,,,,,,,,,,,,,345.0381,345.6881,z,1,0.6174,,345.6882,345.6882,,0,158,158,228,1,229,haytam,,,,,6,harmonic,1.75,nw,z,,,,,,,
,,,,,,,,,,,Manly McBeefington,001,2023-11-08_10h15.25.984,vowel_harmony,2023.2.3,Win32,60.06366749,345.6887,346.6963,,,,,,,,,,,,,,,,,,,,,,,,,,346.6964,347.3713,m,1,0.6507,,347.3714,347.3715,,0,159,159,134,1,135,iptal,793,36.0308,725,0.0793,5,notharmonic,1.35,word,m,,,,,,,
,,,,,,,,,,,Manly McBeefington,001,2023-11-08_10h15.25.984,vowel_harmony,2023.2.3,Win32,60.06366749,347.3719,348.3711,,,,,,,,,,,,,,,,,,,,,,,,,,348.3712,348.9378,z,1,0.54,,348.9378,348.938,,0,160,160,320,1,321,finak,,,,,5,notharmonic,1.85,nw,z,,,,,,,
,,,,,,,,,,,Manly McBeefington,001,2023-11-08_10h15.25.984,vowel_harmony,2023.2.3,Win32,60.06366749,348.9382,349.9377,,,,,,,,,,,,,,,,,,,,,,,,,,349.9377,350.6212,m,1,0.6508,,350.6212,350.6214,,0,161,161,136,1,137,beyaz,5517,250.6706,4788,0.5234,5,notharmonic,1.85,word,m,,,,,,,
,,,,,,,,,,,Manly McBeefington,001,2023-11-08_10h15.25.984,vowel_harmony,2023.2.3,Win32,60.06366749,350.6218,351.6211,,,,,,,,,,,,,,,,,,,,,,,,,,351.6212,352.0876,m,1,0.4345,,352.0876,352.0877,,0,162,162,97,1,98,mevcut,3007,136.6262,2842,0.3107,6,notharmonic,1.95,word,m,,,,,,,
,,,,,,,,,,,Manly McBeefington,001,2023-11-08_10h15.25.984,vowel_harmony,2023.2.3,Win32,60.06366749,352.0881,353.0876,,,,,,,,,,,,,,,,,,,,,,,,,,353.0876,353.6544,z,1,0.5357,,353.6544,353.6545,,0,163,163,358,1,359,yangin,,,,,6,notharmonic,1.9,nw,z,,,,,,,
,,,,,,,,,,,Manly McBeefington,001,2023-11-08_10h15.25.984,vowel_harmony,2023.2.3,Win32,60.06366749,353.655,354.6543,,,,,,,,,,,,,,,,,,,,,,,,,,354.6543,355.3046,z,1,0.6254,,355.3047,355.3049,,0,164,164,263,1,264,duzur,,,,,5,harmonic,1.8,nw,z,,,,,,,
,,,,,,,,,,,Manly McBeefington,001,2023-11-08_10h15.25.984,vowel_harmony,2023.2.3,Win32,60.06366749,355.3054,356.3042,,,,,,,,,,,,,,,,,,,,,,,,,,356.3042,357.0039,z,1,0.671,,357.004,357.0041,,0,165,165,352,1,353,yılden,,,,,6,notharmonic,1.8,nw,z,,,,,,,
,,,,,,,,,,,Manly McBeefington,001,2023-11-08_10h15.25.984,vowel_harmony,2023.2.3,Win32,60.06366749,357.0044,358.0041,,,,,,,,,,,,,,,,,,,,,,,,,,358.0041,358.6373,z,1,0.6003,,358.6374,358.6374,,0,166,166,325,1,326,garit,,,,,5,notharmonic,1.85,nw,z,,,,,,,
,,,,,,,,,,,Manly McBeefington,001,2023-11-08_10h15.25.984,vowel_harmony,2023.2.3,Win32,60.06366749,358.6377,359.6456,,,,,,,,,,,,,,,,,,,,,,,,,,359.6457,360.2371,m,1,0.5719,,360.2371,360.2372,,0,167,167,152,1,153,tedavi,1865,84.7382,1597,0.1746,6,notharmonic,1.8,word,m,,,,,,,
,,,,,,,,,,,Manly McBeefington,001,2023-11-08_10h15.25.984,vowel_harmony,2023.2.3,Win32,60.06366749,360.2375,361.2373,,,,,,,,,,,,,,,,,,,,,,,,,,361.2373,361.8206,z,1,0.5506,,361.8206,361.8207,,0,168,168,233,1,234,devpi,,,,,5,harmonic,1.8,nw,z,,,,,,,
,,,,,,,,,,,Manly McBeefington,001,2023-11-08_10h15.25.984,vowel_harmony,2023.2.3,Win32,60.06366749,361.8212,362.8204,,,,,,,,,,,,,,,,,,,,,,,,,,362.8204,363.3705,z,1,0.5173,,363.3705,363.3706,,0,169,169,230,1,231,bikir,,,,,5,harmonic,1.75,nw,z,,,,,,,
,,,,,,,,,,,Manly McBeefington,001,2023-11-08_10h15.25.984,vowel_harmony,2023.2.3,Win32,60.06366749,363.3711,364.3701,,,,,,,,,,,,,,,,,,,,,,,,,,364.3701,364.8703,m,1,0.4697,,364.8703,364.8703,,0,170,170,122,1,123,devam,17666,802.673,16284,1.7802,5,notharmonic,1.55,word,m,,,,,,,
,,,,,,,,,,,Manly McBeefington,001,2023-11-08_10h15.25.984,vowel_harmony,2023.2.3,Win32,60.06366749,364.8708,365.8784,,,,,,,,,,,,,,,,,,,,,,,,,,365.8784,366.4034,m,1,0.5048,,366.4034,366.4035,,0,171,171,51,1,52,ilginç,2803,127.3572,2690,0.2941,6,harmonic,1.8,word,m,,,,,,,
,,,,,,,,,,,Manly McBeefington,001,2023-11-08_10h15.25.984,vowel_harmony,2023.2.3,Win32,60.06366749,366.4038,367.4033,,,,,,,,,,,,,,,,,,,,,,,,,,367.4033,368.0035,z,1,0.5719,,368.0035,368.0036,,0,172,172,355,1,356,adül,,,,,4,notharmonic,1.85,nw,z,,,,,,,
,,,,,,,,,,,Manly McBeefington,001,2023-11-08_10h15.25.984,vowel_harmony,2023.2.3,Win32,60.06366749,368.004,369.0034,,,,,,,,,,,,,,,,,,,,,,,,,,369.0035,369.6957,z,1,0.6673,,369.6957,369.6958,,0,173,173,273,1,274,nimal,,,,,5,notharmonic,1.9,nw,z,,,,,,,
,,,,,,,,,,,Manly McBeefington,001,2023-11-08_10h15.25.984,vowel_harmony,2023.2.3,Win32,60.06366749,369.6963,370.6867,,,,,,,,,,,,,,,,,,,,,,,,,,370.6868,371.2698,z,1,0.5522,,371.2699,371.27,,0,174,174,241,1,242,porlam,,,,,6,harmonic,2,nw,z,,,,,,,
,,,,,,,,,,,Manly McBeefington,001,2023-11-08_10h15.25.984,vowel_harmony,2023.2.3,Win32,60.06366749,371.2703,372.2586,,,,,,,,,,,,,,,,,,,,,,,,,,372.2586,372.8364,z,1,0.5505,,372.8364,372.8365,,0,175,175,344,1,345,barika,,,,,6,notharmonic,1.75,nw,z,,,,,,,
,,,,,,,,,,,Manly McBeefington,001,2023-11-08_10h15.25.984,vowel_harmony,2023.2.3,Win32,60.06366749,372.8368,373.8366,,,,,,,,,,,,,,,,,,,,,,,,,,373.8366,374.5117,m,1,0.6504,,374.5117,374.5118,,0,176,176,119,1,120,kulüp,649,29.488,467,0.0511,5,notharmonic,1.4,word,m,,,,,,,
,,,,,,,,,,,Manly McBeefington,001,2023-11-08_10h15.25.984,vowel_harmony,2023.2.3,Win32,60.06366749,374.5121,375.5028,,,,,,,,,,,,,,,,,,,,,,,,,,375.5028,376.0363,m,1,0.5004,,376.0364,376.0364,,0,177,177,135,1,136,hafif,3355,152.4379,3101,0.339,5,notharmonic,1.75,word,m,,,,,,,
,,,,,,,,,,,Manly McBeefington,001,2023-11-08_10h15.25.984,vowel_harmony,2023.2.3,Win32,60.06366749,376.0367,377.0362,,,,,,,,,,,,,,,,,,,,,,,,,,377.0363,377.6863,z,1,0.619,,377.6864,377.6865,,0,178,178,307,1,308,merbat,,,,,6,notharmonic,1.95,nw,z,,,,,,,
,,,,,,,,,,,Manly McBeefington,001,2023-11-08_10h15.25.984,vowel_harmony,2023.2.3,Win32,60.06366749,377.6869,378.6863,,,,,,,,,,,,,,,,,,,,,,,,,,378.6863,379.2028,z,1,0.4891,,379.2029,379.203,,0,179,179,251,1,252,oştay,,,,,5,harmonic,1.95,nw,z,,,,,,,
,,,,,,,,,,,Manly McBeefington,001,2023-11-08_10h15.25.984,vowel_harmony,2023.2.3,Win32,60.06366749,379.2035,380.2026,,,,,,,,,,,,,,,,,,,,,,,,,,380.2026,380.7195,m,1,0.4844,,380.7195,380.7197,,0,180,180,81,1,82,üretim,1593,72.3796,1283,0.1403,6,harmonic,1.6,word,m,,,,,,,
,,,,,,,,,,,Manly McBeefington,001,2023-11-08_10h15.25.984,vowel_harmony,2023.2.3,Win32,60.06366749,380.7201,381.7193,,,,,,,,,,,,,,,,,,,,,,,,,,381.7193,382.2192,m,1,0.4716,,382.2192,382.2194,,0,181,181,121,1,122,mesaj,1604,72.8794,1386,0.1515,5,notharmonic,1.8,word,m,,,,,,,
,,,,,,,,,,,Manly McBeefington,001,2023-11-08_10h15.25.984,vowel_harmony,2023.2.3,Win32,60.06366749,382.2197,383.2192,,,,,,,,,,,,,,,,,,,,,,,,,,383.2194,383.9365,z,1,0.6921,,383.9366,383.9367,,0,182,182,265,1,266,parula,,,,,6,harmonic,1.75,nw,z,,,,,,,
,,,,,,,,,,,Manly McBeefington,001,2023-11-08_10h15.25.984,vowel_harmony,2023.2.3,Win32,60.06366749,383.937,384.9357,,,,,,,,,,,,,,,,,,,,,,,,,,384.9358,385.5025,z,1,0.5358,,385.5025,385.5027,,0,183,183,198,1,199,yarbız,,,,,6,harmonic,1.95,nw,z,,,,,,,
,,,,,,,,,,,Manly McBeefington,001,2023-11-08_10h15.25.984,vowel_harmony,2023.2.3,Win32,60.06366749,385.503,386.5025,,,,,,,,,,,,,,,,,,,,,,,,,,386.5026,387.0856,z,1,0.5524,,387.0857,387.0858,,0,184,184,193,1,194,yokın,,,,,5,harmonic,1.85,nw,z,,,,,,,
,,,,,,,,,,,Manly McBeefington,001,2023-11-08_10h15.25.984,vowel_harmony,2023.2.3,Win32,60.06366749,387.0862,388.0856,,,,,,,,,,,,,,,,,,,,,,,,,,388.0857,388.6777,z,1,0.5672,,388.6777,388.6778,,0,185,185,187,1,188,remrin,,,,,6,harmonic,1.9,nw,z,,,,,,,
,,,,,,,,,,,Manly McBeefington,001,2023-11-08_10h15.25.984,vowel_harmony,2023.2.3,Win32,60.06366749,388.678,389.6691,,,,,,,,,,,,,,,,,,,,,,,,,,389.6691,390.2689,m,1,0.5673,,390.269,390.2691,,0,186,186,129,1,130,tahmin,2353,106.911,2273,0.2485,6,notharmonic,1.6,word,m,,,,,,,
,,,,,,,,,,,Manly McBeefington,001,2023-11-08_10h15.25.984,vowel_harmony,2023.2.3,Win32,60.06366749,390.2696,391.2687,,,,,,,,,,,,,,,,,,,,,,,,,,391.2687,391.9607,m,1,0.6671,,391.9607,391.9608,,0,187,187,69,1,70,forma,719,32.6685,597,0.0653,5,harmonic,1.8,word,m,,,,,,,
,,,,,,,,,,,Manly McBeefington,001,2023-11-08_10h15.25.984,vowel_harmony,2023.2.3,Win32,60.06366749,391.9611,392.9522,,,,,,,,,,,,,,,,,,,,,,,,,,392.9522,393.4354,m,1,0.4506,,393.4354,393.4355,,0,188,188,59,1,60,köpek,1044,47.4352,901,0.0985,5,harmonic,1.75,word,m,,,,,,,
,,,,,,,,,,,Manly McBeefington,001,2023-11-08_10h15.25.984,vowel_harmony,2023.2.3,Win32,60.06366749,393.436,394.4354,,,,,,,,,,,,,,,,,,,,,,,,,,394.4354,394.9519,m,1,0.4917,,394.952,394.9521,,0,189,189,94,1,95,final,876,39.802,778,0.0851,5,notharmonic,1,word,m,,,,,,,
,,,,,,,,,,,Manly McBeefington,001,2023-11-08_10h15.25.984,vowel_harmony,2023.2.3,Win32,60.06366749,394.9524,395.952,,,,,,,,,,,,,,,,,,,,,,,,,,395.952,396.5853,z,1,0.6082,,396.5853,396.5854,,0,190,190,337,1,338,bakem,,,,,5,notharmonic,1.7,nw,z,,,,,,,
,,,,,,,,,,,Manly McBeefington,001,2023-11-08_10h15.25.984,vowel_harmony,2023.2.3,Win32,60.06366749,396.5859,397.5853,,,,,,,,,,,,,,,,,,,,,,,,,,397.5853,398.1352,z,1,0.518,,398.1353,398.1354,,0,191,191,308,1,309,hafer,,,,,5,notharmonic,1.85,nw,z,,,,,,,
,,,,,,,,,,,Manly McBeefington,001,2023-11-08_10h15.25.984,vowel_harmony,2023.2.3,Win32,60.06366749,398.1358,399.127,,,,,,,,,,,,,,,,,,,,,,,,,,399.127,399.6602,z,1,0.5171,,399.6603,399.6603,,0,192,192,245,1,246,bıyan,,,,,5,harmonic,1.7,nw,z,,,,,,,
,,,,,,,,,,,Manly McBeefington,001,2023-11-08_10h15.25.984,vowel_harmony,2023.2.3,Win32,60.06366749,399.6606,400.6517,,,,,,,,,,,,,,,,,,,,,,,,,,400.6517,401.3291,m,1,0.6524,,401.3291,401.3293,,0,193,193,103,1,104,tane,5623,255.4868,5075,0.5548,4,notharmonic,1.3,word,m,,,,,,,
,,,,,,,,,,,Manly McBeefington,001,2023-11-08_10h15.25.984,vowel_harmony,2023.2.3,Win32,60.06366749,401.3297,402.3183,,,,,,,,,,,,,,,,,,,,,,,,,,402.3184,402.8515,m,1,0.5008,,402.8516,402.8517,,0,194,194,163,1,164,limon,1658,75.3329,1481,0.1619,5,notharmonic,1.75,word,m,,,,,,,
,,,,,,,,,,,Manly McBeefington,001,2023-11-08_10h15.25.984,vowel_harmony,2023.2.3,Win32,60.06366749,402.8522,403.8515,,,,,,,,,,,,,,,,,,,,,,,,,,403.8515,404.5265,z,1,0.6501,,404.5265,404.5265,,0,195,195,342,1,343,kulön,,,,,5,notharmonic,1.9,nw,z,,,,,,,
,,,,,,,,,,,Manly McBeefington,001,2023-11-08_10h15.25.984,vowel_harmony,2023.2.3,Win32,60.06366749,404.5268,405.5239,,,,,,,,,,,,,,,,,,,,,,,,,,405.5239,406.2347,z,1,0.6888,,406.2348,406.2349,,0,196,196,222,1,223,gelü,,,,,4,harmonic,1.75,nw,z,,,,,,,
,,,,,,,,,,,Manly McBeefington,001,2023-11-08_10h15.25.984,vowel_harmony,2023.2.3,Win32,60.06366749,406.2354,407.2347,,,,,,,,,,,,,,,,,,,,,,,,,,407.2347,407.791,m,1,0.5314,,407.791,407.7911,,0,197,197,64,1,65,lise,888,40.3472,816,0.0892,4,harmonic,1.5,word,m,,,,,,,
,,,,,,,,,,,Manly McBeefington,001,2023-11-08_10h15.25.984,vowel_harmony,2023.2.3,Win32,60.06366749,407.7916,408.7846,,,,,,,,,,,,,,,,,,,,,,,,,,408.7846,409.3603,m,1,0.5508,,409.3603,409.3604,,0,198,198,128,1,129,tatil,2152,97.7783,1865,0.2039,5,notharmonic,1.7,word,m,,,,,,,
,,,,,,,,,,,Manly McBeefington,001,2023-11-08_10h15.25.984,vowel_harmony,2023.2.3,Win32,60.06366749,409.3609,410.3512,,,,,,,,,,,,,,,,,,,,,,,,,,410.3513,410.9345,m,1,0.5515,,410.9345,410.9346,,0,199,199,78,1,79,ulusal,1551,70.4713,1355,0.1481,6,harmonic,1.75,word,m,,,,,,,
,,,,,,,,,,,Manly McBeefington,001,2023-11-08_10h15.25.984,vowel_harmony,2023.2.3,Win32,60.06366749,410.9351,411.9344,,,,,,,,,,,,,,,,,,,,,,,,,,411.9344,412.4511,m,1,0.484,,412.4511,412.4512,,0,200,200,29,1,30,huzur,1911,86.8283,1799,0.1967,5,harmonic,1.8,word,m,,,,,,,
,,,,,,,,,,,Manly McBeefington,001,2023-11-08_10h15.25.984,vowel_harmony,2023.2.3,Win32,60.06366749,412.4517,413.451,,,,,,,,,,,,,,,,,,,,,,,,,,413.4511,413.951,m,1,0.4679,,413.9511,413.9511,,0,201,201,158,1,159,klasik,1871,85.0108,1734,0.1896,6,notharmonic,2,word,m,,,,,,,
,,,,,,,,,,,Manly McBeefington,001,2023-11-08_10h15.25.984,vowel_harmony,2023.2.3,Win32,60.06366749,413.9515,414.9509,,,,,,,,,,,,,,,,,,,,,,,,,,414.951,415.4342,m,1,0.4563,,415.4343,415.4344,,0,202,202,16,1,17,yavaş,5087,231.1331,2886,0.3155,5,harmonic,1.6,word,m,,,,,,,
,,,,,,,,,,,Manly McBeefington,001,2023-11-08_10h15.25.984,vowel_harmony,2023.2.3,Win32,60.06366749,415.4348,416.434,,,,,,,,,,,,,,,,,,,,,,,,,,416.434,416.9675,z,1,0.5086,,416.9677,416.9677,,0,203,203,238,1,239,kocı,,,,,4,harmonic,1.95,nw,z,,,,,,,
,,,,,,,,,,,Manly McBeefington,001,2023-11-08_10h15.25.984,vowel_harmony,2023.2.3,Win32,60.06366749,416.9679,417.9674,,,,,,,,,,,,,,,,,,,,,,,,,,417.9675,418.5339,z,1,0.5337,,418.5339,418.534,,0,204,204,211,1,212,yarum,,,,,5,harmonic,1.75,nw,z,,,,,,,
,,,,,,,,,,,Manly McBeefington,001,2023-11-08_10h15.25.984,vowel_harmony,2023.2.3,Win32,60.06366749,418.5343,419.5339,,,,,,,,,,,,,,,,,,,,,,,,,,419.5339,420.1173,m,1,0.5532,,420.1173,420.1175,,0,205,205,60,1,61,doğu,2105,95.6429,1823,0.1993,4,harmonic,1.05,word,m,,,,,,,
,,,,,,,,,,,Manly McBeefington,001,2023-11-08_10h15.25.984,vowel_harmony,2023.2.3,Win32,60.06366749,420.1179,421.1173,,,,,,,,,,,,,,,,,,,,,,,,,,421.1173,421.7837,z,1,0.6337,,421.7837,421.7838,,0,206,206,258,1,259,karıha,,,,,6,harmonic,1.75,nw,z,,,,,,,
,,,,,,,,,,,Manly McBeefington,001,2023-11-08_10h15.25.984,vowel_harmony,2023.2.3,Win32,60.06366749,421.7841,422.7836,,,,,,,,,,,,,,,,,,,,,,,,,,422.7837,423.3595,m,1,0.5506,,423.3596,423.3597,,0,207,207,130,1,131,hamile,1075,48.8437,877,0.0959,6,notharmonic,1.5,word,m,,,,,,,
,,,,,,,,,,,Manly McBeefington,001,2023-11-08_10h15.25.984,vowel_harmony,2023.2.3,Win32,60.06366749,423.3601,424.3503,,,,,,,,,,,,,,,,,,,,,,,,,,424.3503,425.0505,z,1,0.6675,,425.0505,425.0506,,0,208,208,270,1,271,miyaj,,,,,5,notharmonic,1.9,nw,z,,,,,,,
,,,,,,,,,,,Manly McBeefington,001,2023-11-08_10h15.25.984,vowel_harmony,2023.2.3,Win32,60.06366749,425.0511,426.0501,,,,,,,,,,,,,,,,,,,,,,,,,,426.0501,426.667,z,1,0.5889,,426.667,426.667,,0,209,209,341,1,342,işgan,,,,,5,notharmonic,1.95,nw,z,,,,,,,
,,,,,,,,,,,Manly McBeefington,001,2023-11-08_10h15.25.984,vowel_harmony,2023.2.3,Win32,60.06366749,426.6676,427.6669,,,,,,,,,,,,,,,,,,,,,,,,,,427.6669,428.2668,z,1,0.5722,,428.2669,428.2671,,0,210,210,300,1,301,nilgi,,,,,5,notharmonic,1.85,nw,z,,,,,,,
,,,,,,,,,,,Manly McBeefington,001,2023-11-08_10h15.25.984,vowel_harmony,2023.2.3,Win32,60.06366749,428.2675,429.2668,,,,,,,,,,,,,,,,,,,,,,,,,,429.2669,429.8092,m,1,0.5174,,429.8093,429.8094,,0,211,211,73,1,74,millet,1658,75.3329,1508,0.1649,6,harmonic,1.7,word,m,,,,,,,
,,,,,,,,,,,Manly McBeefington,001,2023-11-08_10h15.25.984,vowel_harmony,2023.2.3,Win32,60.06366749,429.8099,430.8001,,,,,,,,,,,,,,,,,,,,,,,,,,430.8001,431.3833,z,1,0.5509,,431.3834,431.3835,,0,212,212,205,1,206,kahay,,,,,5,harmonic,1.9,nw,z,,,,,,,
,,,,,,,,,,,Manly McBeefington,001,2023-11-08_10h15.25.984,vowel_harmony,2023.2.3,Win32,60.06366749,431.384,432.3834,,,,,,,,,,,,,,,,,,,,,,,,,,432.3834,432.9331,m,0,0.5174,,432.9332,432.9333,,0,213,213,315,1,316,takep,,,,,5,notharmonic,1.85,nw,z,,,,,,,
,,,,,,,,,,,Manly McBeefington,001,2023-11-08_10h15.25.984,vowel_harmony,2023.2.3,Win32,60.06366749,432.9337,433.933,,,,,,,,,,,,,,,,,,,,,,,,,,433.9331,434.5331,z,1,0.5698,,434.5331,434.5332,,0,214,214,303,1,304,fisor,,,,,5,notharmonic,1.9,nw,z,,,,,,,
,,,,,,,,,,,Manly McBeefington,001,2023-11-08_10h15.25.984,vowel_harmony,2023.2.3,Win32,60.06366749,434.5335,435.5329,,,,,,,,,,,,,,,,,,,,,,,,,,435.5329,436.1997,z,1,0.6343,,436.1998,436.1999,,0,215,215,333,1,334,heyran,,,,,6,notharmonic,1.85,nw,z,,,,,,,
,,,,,,,,,,,Manly McBeefington,001,2023-11-08_10h15.25.984,vowel_harmony,2023.2.3,Win32,60.06366749,436.2004,437.1998,,,,,,,,,,,,,,,,,,,,,,,,,,437.1998,437.7919,z,1,0.5672,,437.7919,437.792,,0,216,216,184,1,185,yapor,,,,,5,harmonic,1.9,nw,z,,,,,,,
,,,,,,,,,,,Manly McBeefington,001,2023-11-08_10h15.25.984,vowel_harmony,2023.2.3,Win32,60.06366749,437.7924,438.7913,,,,,,,,,,,,,,,,,,,,,,,,,,438.7913,439.3662,m,1,0.5523,,439.3663,439.3663,,0,217,217,170,1,171,basit,3385,153.801,3177,0.3473,5,notharmonic,1.65,word,m,,,,,,,
,,,,,,,,,,,Manly McBeefington,001,2023-11-08_10h15.25.984,vowel_harmony,2023.2.3,Win32,60.06366749,439.3667,440.3662,,,,,,,,,,,,,,,,,,,,,,,,,,440.3662,440.8994,m,1,0.5056,,440.8994,440.8996,,0,218,218,176,1,177,harika,4682,212.7315,4422,0.4834,6,notharmonic,1.9,word,m,,,,,,,
,,,,,,,,,,,Manly McBeefington,001,2023-11-08_10h15.25.984,vowel_harmony,2023.2.3,Win32,60.06366749,440.9,441.8994,,,,,,,,,,,,,,,,,,,,,,,,,,441.8995,442.3724,m,1,0.448,,442.3725,442.3726,,0,219,219,83,1,84,küçük,14048,638.2854,12467,1.3629,5,harmonic,1.75,word,m,,,,,,,
,,,,,,,,,,,Manly McBeefington,001,2023-11-08_10h15.25.984,vowel_harmony,2023.2.3,Win32,60.06366749,442.373,443.3659,,,,,,,,,,,,,,,,,,,,,,,,,,443.3659,444.0491,z,1,0.6507,,444.0492,444.0493,,0,220,220,289,1,290,karmen,,,,,6,notharmonic,1.75,nw,z,,,,,,,
,,,,,,,,,,,Manly McBeefington,001,2023-11-08_10h15.25.984,vowel_harmony,2023.2.3,Win32,60.06366749,444.0496,445.0493,,,,,,,,,,,,,,,,,,,,,,,,,,445.0493,445.616,m,1,0.5338,,445.616,445.6162,,0,221,221,86,1,87,gerçek,8983,408.1519,8058,0.8809,6,harmonic,1.7,word,m,,,,,,,
,,,,,,,,,,,Manly McBeefington,001,2023-11-08_10h15.25.984,vowel_harmony,2023.2.3,Win32,60.06366749,445.6167,446.6158,,,,,,,,,,,,,,,,,,,,,,,,,,446.6159,447.2157,m,1,0.567,,447.2157,447.2159,,0,222,222,150,1,151,sabit,1046,47.5261,915,0.1,5,notharmonic,1.75,word,m,,,,,,,
,,,,,,,,,,,Manly McBeefington,001,2023-11-08_10h15.25.984,vowel_harmony,2023.2.3,Win32,60.06366749,447.2162,448.2157,,,,,,,,,,,,,,,,,,,,,,,,,,448.2158,448.8154,m,1,0.5749,,448.8156,448.8156,,0,223,223,55,1,56,akıl,2208,100.3228,2004,0.2191,4,harmonic,1,word,m,,,,,,,
,,,,,,,,,,,Manly McBeefington,001,2023-11-08_10h15.25.984,vowel_harmony,2023.2.3,Win32,60.06366749,448.8159,449.8156,,,,,,,,,,,,,,,,,,,,,,,,,,449.8157,450.4655,z,1,0.6233,,450.4656,450.4657,,0,224,224,221,1,222,yaypın,,,,,6,harmonic,1.75,nw,z,,,,,,,
,,,,,,,,,,,Manly McBeefington,001,2023-11-08_10h15.25.984,vowel_harmony,2023.2.3,Win32,60.06366749,450.4663,451.4655,,,,,,,,,,,,,,,,,,,,,,,,,,451.4656,452.0156,m,1,0.518,,452.0157,452.0157,,0,225,225,138,1,139,kardeş,1270,57.7038,1174,0.1283,6,notharmonic,1.9,word,m,,,,,,,
,,,,,,,,,,,Manly McBeefington,001,2023-11-08_10h15.25.984,vowel_harmony,2023.2.3,Win32,60.06366749,452.0162,453.0154,,,,,,,,,,,,,,,,,,,,,,,,,,453.0154,453.6487,m,1,0.6075,,453.6488,453.649,,0,226,226,61,1,62,yıldız,1775,80.649,1532,0.1675,6,harmonic,1.6,word,m,,,,,,,
,,,,,,,,,,,Manly McBeefington,001,2023-11-08_10h15.25.984,vowel_harmony,2023.2.3,Win32,60.06366749,453.6494,454.6486,,,,,,,,,,,,,,,,,,,,,,,,,,454.6486,455.2153,m,1,0.5341,,455.2154,455.2155,,0,227,227,156,1,157,medya,1784,81.0579,1495,0.1634,5,notharmonic,1.35,word,m,,,,,,,
,,,,,,,,,,,Manly McBeefington,001,2023-11-08_10h15.25.984,vowel_harmony,2023.2.3,Win32,60.06366749,455.216,456.2152,,,,,,,,,,,,,,,,,,,,,,,,,,456.2152,456.8317,z,1,0.5912,,456.8317,456.8318,,0,228,228,329,1,330,taif,,,,,4,notharmonic,1.8,nw,z,,,,,,,
,,,,,,,,,,,Manly McBeefington,001,2023-11-08_10h15.25.984,vowel_harmony,2023.2.3,Win32,60.06366749,456.8322,457.8318,,,,,,,,,,,,,,,,,,,,,,,,,,457.8319,458.3817,m,1,0.5169,,458.3818,458.3818,,0,229,229,106,1,107,esnaf,315,14.3124,284,0.031,5,notharmonic,1.55,word,m,,,,,,,
,,,,,,,,,,,Manly McBeefington,001,2023-11-08_10h15.25.984,vowel_harmony,2023.2.3,Win32,60.06366749,458.3821,459.3817,,,,,,,,,,,,,,,,,,,,,,,,,,459.3818,460.0316,z,1,0.6171,,460.0316,460.0316,,0,230,230,209,1,210,sapor,,,,,5,harmonic,1.8,nw,z,,,,,,,
,,,,,,,,,,,Manly McBeefington,001,2023-11-08_10h15.25.984,vowel_harmony,2023.2.3,Win32,60.06366749,460.032,461.0317,,,,,,,,,,,,,,,,,,,,,,,,,,461.0317,461.5317,m,1,0.4674,,461.5317,461.5319,,0,231,231,9,1,10,karar,8108,368.3954,7436,0.8129,5,harmonic,1.6,word,m,,,,,,,
,,,,,,,,,,,Manly McBeefington,001,2023-11-08_10h15.25.984,vowel_harmony,2023.2.3,Win32,60.06366749,461.5323,462.5316,,,,,,,,,,,,,,,,,,,,,,,,,,462.5316,463.0649,m,1,0.5081,,463.065,463.0651,,0,232,232,85,1,86,geçmiş,4195,190.6042,4039,0.4415,6,harmonic,1.55,word,m,,,,,,,
,,,,,,,,,,,Manly McBeefington,001,2023-11-08_10h15.25.984,vowel_harmony,2023.2.3,Win32,60.06366749,463.0656,464.0648,,,,,,,,,,,,,,,,,,,,,,,,,,464.0649,464.5815,m,1,0.4842,,464.5816,464.5818,,0,233,233,33,1,34,moda,1381,62.7472,1231,0.1346,4,harmonic,1.55,word,m,,,,,,,
,,,,,,,,,,,Manly McBeefington,001,2023-11-08_10h15.25.984,vowel_harmony,2023.2.3,Win32,60.06366749,464.5824,465.5814,,,,,,,,,,,,,,,,,,,,,,,,,,465.5815,466.2255,z,1,0.619,,466.2256,466.2257,,0,234,234,217,1,218,sanfız,,,,,6,harmonic,1.85,nw,z,,,,,,,
,,,,,,,,,,,Manly McBeefington,001,2023-11-08_10h15.25.984,vowel_harmony,2023.2.3,Win32,60.06366749,466.2262,467.2146,,,,,,,,,,,,,,,,,,,,,,,,,,467.2146,467.6978,m,0,0.4503,,467.6979,467.6979,,0,235,235,254,1,255,millek,,,,,6,harmonic,1.8,nw,z,,,,,,,
,,,,,,,,,,,Manly McBeefington,001,2023-11-08_10h15.25.984,vowel_harmony,2023.2.3,Win32,60.06366749,467.6984,468.6977,,,,,,,,,,,,,,,,,,,,,,,,,,468.6977,469.2811,m,1,0.5503,,469.2812,469.2812,,0,236,236,2,1,3,radyo,763,34.6677,636,0.0695,5,harmonic,1.85,word,m,,,,,,,
,,,,,,,,,,,Manly McBeefington,001,2023-11-08_10h15.25.984,vowel_harmony,2023.2.3,Win32,60.06366749,469.2817,470.281,,,,,,,,,,,,,,,,,,,,,,,,,,470.2811,470.8475,m,1,0.541,,470.8477,470.8478,,0,237,237,155,1,156,ilaç,1366,62.0656,1215,0.1328,4,notharmonic,1.75,word,m,,,,,,,
,,,,,,,,,,,Manly McBeefington,001,2023-11-08_10h15.25.984,vowel_harmony,2023.2.3,Win32,60.06366749,470.8481,471.8475,,,,,,,,,,,,,,,,,,,,,,,,,,471.8476,472.4475,m,1,0.5672,,472.4476,472.4476,,0,238,238,12,1,13,konu,5400,245.3546,5110,0.5586,4,harmonic,1,word,m,,,,,,,
,,,,,,,,,,,Manly McBeefington,001,2023-11-08_10h15.25.984,vowel_harmony,2023.2.3,Win32,60.06366749,472.4481,473.4476,,,,,,,,,,,,,,,,,,,,,,,,,,473.4476,474.0476,z,1,0.5678,,474.0477,474.0478,,0,239,239,268,1,269,haldum,,,,,6,harmonic,2,nw,z,,,,,,,
,,,,,,,,,,,Manly McBeefington,001,2023-11-08_10h15.25.984,vowel_harmony,2023.2.3,Win32,60.06366749,474.0482,475.0476,,,,,,,,,,,,,,,,,,,,,,,,,,475.0476,475.6643,z,1,0.5841,,475.6643,484.8135,space,0,240,240,297,1,298,sapet,,,,,5,notharmonic,1.85,nw,z,9.1181,,,,,,
,,,,,,,,,,,Manly McBeefington,001,2023-11-08_10h15.25.984,vowel_harmony,2023.2.3,Win32,60.06366749,484.8219,485.8136,,,,,,,,,,,,,,,,,,,,,,,,,,485.8137,486.4554,z,1,0.6171,,486.4554,486.4556,,0,241,241,299,1,300,fihal,,,,,5,notharmonic,1.95,nw,z,,,,,,,
,,,,,,,,,,,Manly McBeefington,001,2023-11-08_10h15.25.984,vowel_harmony,2023.2.3,Win32,60.06366749,486.4558,487.4469,,,,,,,,,,,,,,,,,,,,,,,,,,487.447,488.0301,z,1,0.5515,,488.0302,488.0303,,0,242,242,223,1,224,kakon,,,,,5,harmonic,1.85,nw,z,,,,,,,
,,,,,,,,,,,Manly McBeefington,001,2023-11-08_10h15.25.984,vowel_harmony,2023.2.3,Win32,60.06366749,488.0307,489.03,,,,,,,,,,,,,,,,,,,,,,,,,,489.03,489.5801,m,1,0.5206,,489.5802,489.5803,,0,243,243,35,1,36,hava,4975,226.0443,4398,0.4808,4,harmonic,1,word,m,,,,,,,
,,,,,,,,,,,Manly McBeefington,001,2023-11-08_10h15.25.984,vowel_harmony,2023.2.3,Win32,60.06366749,489.5808,490.5801,,,,,,,,,,,,,,,,,,,,,,,,,,490.5801,491.0634,m,1,0.4509,,491.0634,491.0636,,0,244,244,26,1,27,sebze,1094,49.707,961,0.1051,5,harmonic,1.9,word,m,,,,,,,
,,,,,,,,,,,Manly McBeefington,001,2023-11-08_10h15.25.984,vowel_harmony,2023.2.3,Win32,60.06366749,491.0642,492.0718,,,,,,,,,,,,,,,,,,,,,,,,,,492.0719,492.6467,z,1,0.5507,,492.6468,492.6469,,0,245,245,288,1,289,molit,,,,,5,notharmonic,1.95,nw,z,,,,,,,
,,,,,,,,,,,Manly McBeefington,001,2023-11-08_10h15.25.984,vowel_harmony,2023.2.3,Win32,60.06366749,492.6474,493.6463,,,,,,,,,,,,,,,,,,,,,,,,,,493.6464,494.2629,z,1,0.5917,,494.263,494.263,,0,246,246,280,1,281,adalek,,,,,6,notharmonic,1.85,nw,z,,,,,,,
,,,,,,,,,,,Manly McBeefington,001,2023-11-08_10h15.25.984,vowel_harmony,2023.2.3,Win32,60.06366749,494.2634,495.2628,,,,,,,,,,,,,,,,,,,,,,,,,,495.2628,495.7632,m,1,0.4675,,495.7632,495.7633,,0,247,247,11,1,12,umut,1988,90.3268,1818,0.1987,4,harmonic,1.55,word,m,,,,,,,
,,,,,,,,,,,Manly McBeefington,001,2023-11-08_10h15.25.984,vowel_harmony,2023.2.3,Win32,60.06366749,495.7637,496.7711,,,,,,,,,,,,,,,,,,,,,,,,,,496.7711,497.3463,m,1,0.5557,,497.3463,497.3465,,0,248,248,118,1,119,meşhur,1092,49.6161,1057,0.1156,6,notharmonic,1.9,word,m,,,,,,,
,,,,,,,,,,,Manly McBeefington,001,2023-11-08_10h15.25.984,vowel_harmony,2023.2.3,Win32,60.06366749,497.347,498.3465,,,,,,,,,,,,,,,,,,,,,,,,,,498.3466,498.8794,z,1,0.5081,,498.8794,498.8795,,0,249,249,324,1,325,pakeh,,,,,5,notharmonic,1.9,nw,z,,,,,,,
,,,,,,,,,,,Manly McBeefington,001,2023-11-08_10h15.25.984,vowel_harmony,2023.2.3,Win32,60.06366749,498.8798,499.8793,,,,,,,,,,,,,,,,,,,,,,,,,,499.8794,500.3626,m,1,0.4545,,500.3626,500.3627,,0,250,250,43,1,44,geniş,3380,153.5738,3185,0.3482,5,harmonic,1.35,word,m,,,,,,,
,,,,,,,,,,,Manly McBeefington,001,2023-11-08_10h15.25.984,vowel_harmony,2023.2.3,Win32,60.06366749,500.363,501.3626,,,,,,,,,,,,,,,,,,,,,,,,,,501.3627,501.9295,m,1,0.5398,,501.9295,501.9296,,0,251,251,107,1,108,merak,5806,263.8016,5524,0.6039,5,notharmonic,1.65,word,m,,,,,,,
,,,,,,,,,,,Manly McBeefington,001,2023-11-08_10h15.25.984,vowel_harmony,2023.2.3,Win32,60.06366749,501.93,502.9293,,,,,,,,,,,,,,,,,,,,,,,,,,502.9293,503.4793,m,1,0.5173,,503.4793,503.4794,,0,252,252,157,1,158,aktif,1062,48.2531,986,0.1078,5,notharmonic,1.9,word,m,,,,,,,
,,,,,,,,,,,Manly McBeefington,001,2023-11-08_10h15.25.984,vowel_harmony,2023.2.3,Win32,60.06366749,503.4799,504.4793,,,,,,,,,,,,,,,,,,,,,,,,,,504.4793,505.0292,m,0,0.5174,,505.0293,505.0294,,0,253,253,181,1,182,rapkı,,,,,5,harmonic,1.85,nw,z,,,,,,,
,,,,,,,,,,,Manly McBeefington,001,2023-11-08_10h15.25.984,vowel_harmony,2023.2.3,Win32,60.06366749,505.0298,506.0292,,,,,,,,,,,,,,,,,,,,,,,,,,506.0292,506.6625,z,1,0.6017,,506.6625,506.6627,,0,254,254,285,1,286,iklon,,,,,5,notharmonic,1.85,nw,z,,,,,,,
,,,,,,,,,,,Manly McBeefington,001,2023-11-08_10h15.25.984,vowel_harmony,2023.2.3,Win32,60.06366749,506.6631,507.6622,,,,,,,,,,,,,,,,,,,,,,,,,,507.6623,508.2958,z,1,0.6082,,508.2958,508.2959,,0,255,255,197,1,198,ranar,,,,,5,harmonic,1.75,nw,z,,,,,,,
,,,,,,,,,,,Manly McBeefington,001,2023-11-08_10h15.25.984,vowel_harmony,2023.2.3,Win32,60.06366749,508.2964,509.2953,,,,,,,,,,,,,,,,,,,,,,,,,,509.2953,510.0123,z,1,0.6873,,510.0124,510.0124,,0,256,256,293,1,294,esnan,,,,,5,notharmonic,1.85,nw,z,,,,,,,
,,,,,,,,,,,Manly McBeefington,001,2023-11-08_10h15.25.984,vowel_harmony,2023.2.3,Win32,60.06366749,510.013,511.0124,,,,,,,,,,,,,,,,,,,,,,,,,,511.0124,511.5622,z,1,0.5209,,511.5622,511.5624,,0,257,257,298,1,299,yelsın,,,,,6,notharmonic,1.95,nw,z,,,,,,,
,,,,,,,,,,,Manly McBeefington,001,2023-11-08_10h15.25.984,vowel_harmony,2023.2.3,Win32,60.06366749,511.5628,512.562,,,,,,,,,,,,,,,,,,,,,,,,,,512.562,513.1121,m,1,0.5244,,513.1122,513.1124,,0,258,258,80,1,81,merkez,1445,65.6551,1255,0.1372,6,harmonic,1.8,word,m,,,,,,,
,,,,,,,,,,,Manly McBeefington,001,2023-11-08_10h15.25.984,vowel_harmony,2023.2.3,Win32,60.06366749,513.1128,514.1121,,,,,,,,,,,,,,,,,,,,,,,,,,514.1121,514.6454,z,1,0.5022,,514.6454,514.6455,,0,259,259,229,1,230,tonam,,,,,5,harmonic,1.8,nw,z,,,,,,,
,,,,,,,,,,,Manly McBeefington,001,2023-11-08_10h15.25.984,vowel_harmony,2023.2.3,Win32,60.06366749,514.6459,515.6453,,,,,,,,,,,,,,,,,,,,,,,,,,515.6453,516.1952,m,1,0.5206,,516.1952,516.1953,,0,260,260,20,1,21,nefes,2871,130.4469,2553,0.2791,5,harmonic,1.8,word,m,,,,,,,
,,,,,,,,,,,Manly McBeefington,001,2023-11-08_10h15.25.984,vowel_harmony,2023.2.3,Win32,60.06366749,516.1956,517.1868,,,,,,,,,,,,,,,,,,,,,,,,,,517.1868,517.8451,z,1,0.6342,,517.8452,517.8453,,0,261,261,359,1,360,kardez,,,,,6,notharmonic,1.95,nw,z,,,,,,,
,,,,,,,,,,,Manly McBeefington,001,2023-11-08_10h15.25.984,vowel_harmony,2023.2.3,Win32,60.06366749,517.8457,518.8452,,,,,,,,,,,,,,,,,,,,,,,,,,518.8453,519.3451,z,1,0.4733,,519.3451,519.3452,,0,262,262,278,1,279,sekon,,,,,5,notharmonic,1.85,nw,z,,,,,,,
,,,,,,,,,,,Manly McBeefington,001,2023-11-08_10h15.25.984,vowel_harmony,2023.2.3,Win32,60.06366749,519.3457,520.3448,,,,,,,,,,,,,,,,,,,,,,,,,,520.3449,520.8948,m,1,0.5249,,520.8948,520.8949,,0,263,263,120,1,121,ihmal,1002,45.5269,977,0.1068,5,notharmonic,1.65,word,m,,,,,,,
,,,,,,,,,,,Manly McBeefington,001,2023-11-08_10h15.25.984,vowel_harmony,2023.2.3,Win32,60.06366749,520.8952,521.895,,,,,,,,,,,,,,,,,,,,,,,,,,521.8951,522.395,m,1,0.4674,,522.395,522.3952,,0,264,264,111,1,112,kahve,2634,119.6785,2283,0.2496,5,notharmonic,1.85,word,m,,,,,,,
,,,,,,,,,,,Manly McBeefington,001,2023-11-08_10h15.25.984,vowel_harmony,2023.2.3,Win32,60.06366749,522.3956,523.3948,,,,,,,,,,,,,,,,,,,,,,,,,,523.3948,523.9448,z,1,0.5235,,523.9449,523.945,,0,265,265,295,1,296,haylin,,,,,6,notharmonic,1.8,nw,z,,,,,,,
,,,,,,,,,,,Manly McBeefington,001,2023-11-08_10h15.25.984,vowel_harmony,2023.2.3,Win32,60.06366749,523.9455,524.9448,,,,,,,,,,,,,,,,,,,,,,,,,,524.9449,525.5281,m,1,0.5506,,525.5282,525.5283,,0,266,266,96,1,97,dahil,3189,144.8955,3060,0.3345,5,notharmonic,1.7,word,m,,,,,,,
,,,,,,,,,,,Manly McBeefington,001,2023-11-08_10h15.25.984,vowel_harmony,2023.2.3,Win32,60.06366749,525.5287,526.5281,,,,,,,,,,,,,,,,,,,,,,,,,,526.5282,527.178,z,1,0.6224,,527.178,527.1782,,0,267,267,252,1,253,anlgı,,,,,5,harmonic,1.9,nw,z,,,,,,,
,,,,,,,,,,,Manly McBeefington,001,2023-11-08_10h15.25.984,vowel_harmony,2023.2.3,Win32,60.06366749,527.1787,528.1778,,,,,,,,,,,,,,,,,,,,,,,,,,528.1778,528.678,m,1,0.4688,,528.6781,528.6782,,0,268,268,47,1,48,kaza,740,33.6227,679,0.0742,4,harmonic,1.85,word,m,,,,,,,
,,,,,,,,,,,Manly McBeefington,001,2023-11-08_10h15.25.984,vowel_harmony,2023.2.3,Win32,60.06366749,528.6786,529.6779,,,,,,,,,,,,,,,,,,,,,,,,,,529.6779,530.2444,m,1,0.5363,,530.2445,530.2446,,0,269,269,141,1,142,madde,3793,172.3389,3389,0.3705,5,notharmonic,1.7,word,m,,,,,,,
,,,,,,,,,,,Manly McBeefington,001,2023-11-08_10h15.25.984,vowel_harmony,2023.2.3,Win32,60.06366749,530.245,531.2443,,,,,,,,,,,,,,,,,,,,,,,,,,531.2443,531.7608,m,1,0.4893,,531.7609,531.7611,,0,270,270,87,1,88,mümkün,6604,300.0596,6264,0.6848,6,harmonic,1.9,word,m,,,,,,,
,,,,,,,,,,,Manly McBeefington,001,2023-11-08_10h15.25.984,vowel_harmony,2023.2.3,Win32,60.06366749,531.7614,532.761,,,,,,,,,,,,,,,,,,,,,,,,,,532.7611,533.361,z,1,0.5734,,533.361,533.3611,,0,271,271,189,1,190,düvre,,,,,5,harmonic,1.85,nw,z,,,,,,,
,,,,,,,,,,,Manly McBeefington,001,2023-11-08_10h15.25.984,vowel_harmony,2023.2.3,Win32,60.06366749,533.3615,534.3608,,,,,,,,,,,,,,,,,,,,,,,,,,534.3608,534.9109,m,1,0.517,,534.9109,534.911,,0,272,272,41,1,42,zengin,2193,99.6412,2015,0.2203,6,harmonic,1.65,word,m,,,,,,,
,,,,,,,,,,,Manly McBeefington,001,2023-11-08_10h15.25.984,vowel_harmony,2023.2.3,Win32,60.06366749,534.9113,535.911,,,,,,,,,,,,,,,,,,,,,,,,,,535.911,536.4941,z,1,0.5505,,536.4942,536.4942,,0,273,273,262,1,263,sauk,,,,,4,harmonic,1.85,nw,z,,,,,,,
,,,,,,,,,,,Manly McBeefington,001,2023-11-08_10h15.25.984,vowel_harmony,2023.2.3,Win32,60.06366749,536.4948,537.494,,,,,,,,,,,,,,,,,,,,,,,,,,537.4941,538.0273,m,1,0.5004,,538.0273,538.0273,,0,274,274,102,1,103,esas,1965,89.2818,1795,0.1962,4,notharmonic,1.75,word,m,,,,,,,
,,,,,,,,,,,Manly McBeefington,001,2023-11-08_10h15.25.984,vowel_harmony,2023.2.3,Win32,60.06366749,538.0277,539.0274,,,,,,,,,,,,,,,,,,,,,,,,,,539.0274,539.6104,z,1,0.5549,,539.6105,539.6106,,0,275,275,199,1,200,movu,,,,,4,harmonic,1.9,nw,z,,,,,,,
,,,,,,,,,,,Manly McBeefington,001,2023-11-08_10h15.25.984,vowel_harmony,2023.2.3,Win32,60.06366749,539.6109,540.6025,,,,,,,,,,,,,,,,,,,,,,,,,,540.6025,541.2104,z,1,0.5878,,541.2104,541.2105,,0,276,276,321,1,322,makih,,,,,5,notharmonic,1.8,nw,z,,,,,,,
,,,,,,,,,,,Manly McBeefington,001,2023-11-08_10h15.25.984,vowel_harmony,2023.2.3,Win32,60.06366749,541.2109,542.2161,,,,,,,,,,,,,,,,,,,,,,,,,,542.2162,542.7436,m,1,0.5073,,542.7436,542.7438,,0,277,277,172,1,173,milyar,1496,67.9723,1078,0.1178,6,notharmonic,1.85,word,m,,,,,,,
,,,,,,,,,,,Manly McBeefington,001,2023-11-08_10h15.25.984,vowel_harmony,2023.2.3,Win32,60.06366749,542.744,543.7438,,,,,,,,,,,,,,,,,,,,,,,,,,543.7438,544.2522,m,1,0.4838,,544.2523,544.2524,,0,278,278,112,1,113,sezon,2315,105.1844,1917,0.2096,5,notharmonic,1.8,word,m,,,,,,,
,,,,,,,,,,,Manly McBeefington,001,2023-11-08_10h15.25.984,vowel_harmony,2023.2.3,Win32,60.06366749,544.2526,545.2518,,,,,,,,,,,,,,,,,,,,,,,,,,545.2518,545.7602,m,1,0.4837,,545.7603,545.7604,,0,279,279,72,1,73,çorba,1674,76.0599,1513,0.1654,5,harmonic,1.75,word,m,,,,,,,
,,,,,,,,,,,Manly McBeefington,001,2023-11-08_10h15.25.984,vowel_harmony,2023.2.3,Win32,60.06366749,545.7607,546.7602,,,,,,,,,,,,,,,,,,,,,,,,,,546.7603,547.3187,z,1,0.5337,,547.3187,547.3188,,0,280,280,305,1,306,tamü,,,,,4,notharmonic,1.75,nw,z,,,,,,,
,,,,,,,,,,,Manly McBeefington,001,2023-11-08_10h15.25.984,vowel_harmony,2023.2.3,Win32,60.06366749,547.3191,548.31,,,,,,,,,,,,,,,,,,,,,,,,,,548.31,548.8601,m,1,0.5217,,548.8601,548.8602,,0,281,281,127,1,128,şahane,1153,52.3877,1108,0.1211,6,notharmonic,1.8,word,m,,,,,,,
,,,,,,,,,,,Manly McBeefington,001,2023-11-08_10h15.25.984,vowel_harmony,2023.2.3,Win32,60.06366749,548.8607,549.8601,,,,,,,,,,,,,,,,,,,,,,,,,,549.8601,550.4267,z,1,0.534,,550.4267,550.4269,,0,282,282,319,1,320,biho,,,,,4,notharmonic,2,nw,z,,,,,,,
,,,,,,,,,,,Manly McBeefington,001,2023-11-08_10h15.25.984,vowel_harmony,2023.2.3,Win32,60.06366749,550.4272,551.4267,,,,,,,,,,,,,,,,,,,,,,,,,,551.4267,551.9266,m,1,0.4675,,551.9267,551.9267,,0,283,283,36,1,37,meslek,1082,49.1618,976,0.1067,6,harmonic,1.9,word,m,,,,,,,
,,,,,,,,,,,Manly McBeefington,001,2023-11-08_10h15.25.984,vowel_harmony,2023.2.3,Win32,60.06366749,551.9272,552.9266,,,,,,,,,,,,,,,,,,,,,,,,,,552.9266,553.4597,m,1,0.5004,,553.4598,553.4599,,0,284,284,32,1,33,temel,4231,192.2399,3851,0.421,5,harmonic,1.55,word,m,,,,,,,
,,,,,,,,,,,Manly McBeefington,001,2023-11-08_10h15.25.984,vowel_harmony,2023.2.3,Win32,60.06366749,553.4603,554.4652,,,,,,,,,,,,,,,,,,,,,,,,,,554.4652,555.0183,m,1,0.5339,,555.0183,555.0184,,0,285,285,46,1,47,takım,4370,198.5555,3726,0.4073,5,harmonic,1.7,word,m,,,,,,,
,,,,,,,,,,,Manly McBeefington,001,2023-11-08_10h15.25.984,vowel_harmony,2023.2.3,Win32,60.06366749,555.0186,556.0096,,,,,,,,,,,,,,,,,,,,,,,,,,556.0096,556.6429,z,1,0.6038,,556.6429,556.6431,,0,286,286,246,1,247,orkın,,,,,5,harmonic,1.9,nw,z,,,,,,,
,,,,,,,,,,,Manly McBeefington,001,2023-11-08_10h15.25.984,vowel_harmony,2023.2.3,Win32,60.06366749,556.6435,557.643,,,,,,,,,,,,,,,,,,,,,,,,,,557.643,558.1427,m,1,0.4745,,558.1427,558.1428,,0,287,287,123,1,124,haber,4559,207.1429,4151,0.4538,5,notharmonic,1.85,word,m,,,,,,,
,,,,,,,,,,,Manly McBeefington,001,2023-11-08_10h15.25.984,vowel_harmony,2023.2.3,Win32,60.06366749,558.1431,559.1428,,,,,,,,,,,,,,,,,,,,,,,,,,559.1429,559.7096,z,1,0.5351,,559.7096,559.7098,,0,288,288,248,1,249,şegim,,,,,5,harmonic,1.9,nw,z,,,,,,,
,,,,,,,,,,,Manly McBeefington,001,2023-11-08_10h15.25.984,vowel_harmony,2023.2.3,Win32,60.06366749,559.7102,560.7093,,,,,,,,,,,,,,,,,,,,,,,,,,560.7093,561.2593,z,1,0.5205,,561.2593,561.2594,,0,289,289,247,1,248,hafgın,,,,,6,harmonic,2,nw,z,,,,,,,
,,,,,,,,,,,Manly McBeefington,001,2023-11-08_10h15.25.984,vowel_harmony,2023.2.3,Win32,60.06366749,561.2598,562.2591,,,,,,,,,,,,,,,,,,,,,,,,,,562.2592,562.7759,m,1,0.4836,,562.776,562.7761,,0,290,290,42,1,43,ürün,2268,103.0489,1954,0.2136,4,harmonic,1.1,word,m,,,,,,,
,,,,,,,,,,,Manly McBeefington,001,2023-11-08_10h15.25.984,vowel_harmony,2023.2.3,Win32,60.06366749,562.7763,563.7676,,,,,,,,,,,,,,,,,,,,,,,,,,563.7677,564.2759,m,1,0.4868,,564.2759,564.2761,,0,291,291,3,1,4,minik,2916,132.4915,2594,0.2836,5,harmonic,1.6,word,m,,,,,,,
,,,,,,,,,,,Manly McBeefington,001,2023-11-08_10h15.25.984,vowel_harmony,2023.2.3,Win32,60.06366749,564.2765,565.2757,,,,,,,,,,,,,,,,,,,,,,,,,,565.2758,565.9756,z,1,0.6669,,565.9756,565.9758,,0,292,292,347,1,348,tekram,,,,,6,notharmonic,1.95,nw,z,,,,,,,
,,,,,,,,,,,Manly McBeefington,001,2023-11-08_10h15.25.984,vowel_harmony,2023.2.3,Win32,60.06366749,565.9761,566.9756,,,,,,,,,,,,,,,,,,,,,,,,,,566.9756,567.5091,z,1,0.5017,,567.5091,567.5091,,0,293,293,242,1,243,kahon,,,,,5,harmonic,1.85,nw,z,,,,,,,
,,,,,,,,,,,Manly McBeefington,001,2023-11-08_10h15.25.984,vowel_harmony,2023.2.3,Win32,60.06366749,567.5094,568.5088,,,,,,,,,,,,,,,,,,,,,,,,,,568.5089,569.1257,z,1,0.5843,,569.1258,569.1258,,0,294,294,354,1,355,taden,,,,,5,notharmonic,1.7,nw,z,,,,,,,
,,,,,,,,,,,Manly McBeefington,001,2023-11-08_10h15.25.984,vowel_harmony,2023.2.3,Win32,60.06366749,569.1261,570.1257,,,,,,,,,,,,,,,,,,,,,,,,,,570.1257,570.6423,z,1,0.4885,,570.6423,570.6424,,0,295,295,220,1,221,denbi,,,,,5,harmonic,1.75,nw,z,,,,,,,
,,,,,,,,,,,Manly McBeefington,001,2023-11-08_10h15.25.984,vowel_harmony,2023.2.3,Win32,60.06366749,570.643,571.6422,,,,,,,,,,,,,,,,,,,,,,,,,,571.6423,572.092,m,1,0.42,,572.092,572.0922,,0,296,296,45,1,46,bilgi,5981,271.7529,5353,0.5852,5,harmonic,1.5,word,m,,,,,,,
,,,,,,,,,,,Manly McBeefington,001,2023-11-08_10h15.25.984,vowel_harmony,2023.2.3,Win32,60.06366749,572.0925,573.0922,,,,,,,,,,,,,,,,,,,,,,,,,,573.0922,573.5754,m,1,0.4507,,573.5755,573.5757,,0,297,297,39,1,40,yaygın,1061,48.2076,1019,0.1114,6,harmonic,1.35,word,m,,,,,,,
,,,,,,,,,,,Manly McBeefington,001,2023-11-08_10h15.25.984,vowel_harmony,2023.2.3,Win32,60.06366749,573.5761,574.5671,,,,,,,,,,,,,,,,,,,,,,,,,,574.5671,575.151,z,1,0.5674,,575.151,575.1511,,0,298,298,213,1,214,kaun,,,,,4,harmonic,1.7,nw,z,,,,,,,
,,,,,,,,,,,Manly McBeefington,001,2023-11-08_10h15.25.984,vowel_harmony,2023.2.3,Win32,60.06366749,575.1516,576.1417,,,,,,,,,,,,,,,,,,,,,,,,,,576.1418,576.7311,m,1,0.5645,,576.7311,576.7311,,0,299,299,66,1,67,sanık,768,34.8949,699,0.0764,5,harmonic,1.85,word,m,,,,,,,
,,,,,,,,,,,Manly McBeefington,001,2023-11-08_10h15.25.984,vowel_harmony,2023.2.3,Win32,60.06366749,576.7314,577.7251,,,,,,,,,,,,,,,,,,,,,,,,,,577.7251,578.2252,m,1,0.4675,,578.2252,578.2253,,0,300,300,37,1,38,hayvan,2363,107.3653,1894,0.2071,6,harmonic,1.5,word,m,,,,,,,
,,,,,,,,,,,Manly McBeefington,001,2023-11-08_10h15.25.984,vowel_harmony,2023.2.3,Win32,60.06366749,578.2258,579.225,,,,,,,,,,,,,,,,,,,,,,,,,,579.225,579.7843,z,1,0.5342,,579.7844,579.7845,,0,301,301,243,1,244,korguf,,,,,6,harmonic,2,nw,z,,,,,,,
,,,,,,,,,,,Manly McBeefington,001,2023-11-08_10h15.25.984,vowel_harmony,2023.2.3,Win32,60.06366749,579.7849,580.775,,,,,,,,,,,,,,,,,,,,,,,,,,580.775,581.2915,m,1,0.4885,,581.2915,581.2916,,0,302,302,53,1,54,gelir,7578,344.3143,7014,0.7668,5,harmonic,1.4,word,m,,,,,,,
,,,,,,,,,,,Manly McBeefington,001,2023-11-08_10h15.25.984,vowel_harmony,2023.2.3,Win32,60.06366749,581.2919,582.2915,,,,,,,,,,,,,,,,,,,,,,,,,,582.2916,582.7748,m,1,0.4505,,582.7748,582.7748,,0,303,303,131,1,132,hakim,1677,76.1962,1559,0.1704,5,notharmonic,1,word,m,,,,,,,
,,,,,,,,,,,Manly McBeefington,001,2023-11-08_10h15.25.984,vowel_harmony,2023.2.3,Win32,60.06366749,582.7752,583.7749,,,,,,,,,,,,,,,,,,,,,,,,,,583.775,584.308,m,1,0.5005,,584.308,584.3081,,0,304,304,167,1,168,adalet,1611,73.1975,1388,0.1517,6,notharmonic,1.65,word,m,,,,,,,
,,,,,,,,,,,Manly McBeefington,001,2023-11-08_10h15.25.984,vowel_harmony,2023.2.3,Win32,60.06366749,584.3084,585.308,,,,,,,,,,,,,,,,,,,,,,,,,,585.308,585.8248,z,1,0.4839,,585.8249,585.825,,0,305,305,212,1,213,ortat,,,,,5,harmonic,1.7,nw,z,,,,,,,
,,,,,,,,,,,Manly McBeefington,001,2023-11-08_10h15.25.984,vowel_harmony,2023.2.3,Win32,60.06366749,585.8255,586.8248,,,,,,,,,,,,,,,,,,,,,,,,,,586.8248,587.308,m,1,0.4531,,587.3081,587.3082,,0,306,306,143,1,144,kitap,8359,379.7998,6786,0.7418,5,notharmonic,1.9,word,m,,,,,,,
,,,,,,,,,,,Manly McBeefington,001,2023-11-08_10h15.25.984,vowel_harmony,2023.2.3,Win32,60.06366749,587.3087,588.3136,,,,,,,,,,,,,,,,,,,,,,,,,,588.3136,588.8912,m,1,0.5539,,588.8912,588.8913,,0,307,307,125,1,126,ikna,1276,57.9764,1173,0.1282,4,notharmonic,1.85,word,m,,,,,,,
,,,,,,,,,,,Manly McBeefington,001,2023-11-08_10h15.25.984,vowel_harmony,2023.2.3,Win32,60.06366749,588.8917,589.8911,,,,,,,,,,,,,,,,,,,,,,,,,,589.8911,590.3668,m,1,0.4508,,590.3668,590.367,,0,308,308,57,1,58,bölüm,1910,86.7828,1605,0.1755,5,harmonic,1.45,word,m,,,,,,,
,,,,,,,,,,,Manly McBeefington,001,2023-11-08_10h15.25.984,vowel_harmony,2023.2.3,Win32,60.06366749,590.3674,591.3578,,,,,,,,,,,,,,,,,,,,,,,,,,591.3578,591.891,z,1,0.5041,,591.8911,591.8911,,0,309,309,186,1,187,habık,,,,,5,harmonic,1.9,nw,z,,,,,,,
,,,,,,,,,,,Manly McBeefington,001,2023-11-08_10h15.25.984,vowel_harmony,2023.2.3,Win32,60.06366749,591.8916,592.891,,,,,,,,,,,,,,,,,,,,,,,,,,592.8911,593.4076,m,1,0.4841,,593.4077,593.4078,,0,310,310,67,1,68,bayram,1948,88.5094,1648,0.1802,6,harmonic,1.85,word,m,,,,,,,
,,,,,,,,,,,Manly McBeefington,001,2023-11-08_10h15.25.984,vowel_harmony,2023.2.3,Win32,60.06366749,593.4083,594.4077,,,,,,,,,,,,,,,,,,,,,,,,,,594.4077,594.924,m,1,0.4856,,594.924,594.9241,,0,311,311,173,1,174,sade,1193,54.2052,1114,0.1218,4,notharmonic,1.55,word,m,,,,,,,
,,,,,,,,,,,Manly McBeefington,001,2023-11-08_10h15.25.984,vowel_harmony,2023.2.3,Win32,60.06366749,594.9245,595.9242,,,,,,,,,,,,,,,,,,,,,,,,,,595.9242,596.4075,m,1,0.4576,,596.4075,596.4077,,0,312,312,68,1,69,ücret,734,33.35,634,0.0693,5,harmonic,1.85,word,m,,,,,,,
,,,,,,,,,,,Manly McBeefington,001,2023-11-08_10h15.25.984,vowel_harmony,2023.2.3,Win32,60.06366749,596.4081,597.4073,,,,,,,,,,,,,,,,,,,,,,,,,,597.4073,597.8908,m,1,0.451,,597.8909,597.891,,0,313,313,82,1,83,aday,1028,46.7082,873,0.0954,4,harmonic,1.45,word,m,,,,,,,
,,,,,,,,,,,Manly McBeefington,001,2023-11-08_10h15.25.984,vowel_harmony,2023.2.3,Win32,60.06366749,597.8915,598.8905,,,,,,,,,,,,,,,,,,,,,,,,,,598.8905,599.3821,m,1,0.467,,599.3822,599.3822,,0,314,314,14,1,15,yaşam,4348,197.5559,3918,0.4283,5,harmonic,1.4,word,m,,,,,,,
,,,,,,,,,,,Manly McBeefington,001,2023-11-08_10h15.25.984,vowel_harmony,2023.2.3,Win32,60.06366749,599.3825,600.3738,,,,,,,,,,,,,,,,,,,,,,,,,,600.3738,601.007,z,1,0.6075,,601.0071,601.0071,,0,315,315,256,1,257,yaruza,,,,,6,harmonic,1.9,nw,z,,,,,,,
,,,,,,,,,,,Manly McBeefington,001,2023-11-08_10h15.25.984,vowel_harmony,2023.2.3,Win32,60.06366749,601.0075,602.007,,,,,,,,,,,,,,,,,,,,,,,,,,602.0071,602.6069,z,1,0.5744,,602.607,602.607,,0,316,316,338,1,339,pardön,,,,,6,notharmonic,1.95,nw,z,,,,,,,
,,,,,,,,,,,Manly McBeefington,001,2023-11-08_10h15.25.984,vowel_harmony,2023.2.3,Win32,60.06366749,602.6073,603.6069,,,,,,,,,,,,,,,,,,,,,,,,,,603.6069,604.1237,z,1,0.484,,604.1237,604.1237,,0,317,317,214,1,215,vecü,,,,,4,harmonic,1.95,nw,z,,,,,,,
,,,,,,,,,,,Manly McBeefington,001,2023-11-08_10h15.25.984,vowel_harmony,2023.2.3,Win32,60.06366749,604.1241,605.1235,,,,,,,,,,,,,,,,,,,,,,,,,,605.1235,605.5652,z,1,0.417,,605.5653,605.5654,,0,318,318,192,1,193,vecö,,,,,4,harmonic,1.95,nw,z,,,,,,,
,,,,,,,,,,,Manly McBeefington,001,2023-11-08_10h15.25.984,vowel_harmony,2023.2.3,Win32,60.06366749,605.5657,606.5567,,,,,,,,,,,,,,,,,,,,,,,,,,606.5568,607.1236,z,1,0.5363,,607.1236,607.1237,,0,319,319,281,1,282,afel,,,,,4,notharmonic,1.8,nw,z,,,,,,,
,,,,,,,,,,,Manly McBeefington,001,2023-11-08_10h15.25.984,vowel_harmony,2023.2.3,Win32,60.06366749,607.124,608.1233,,,,,,,,,,,,,,,,,,,,,,,,,,608.1234,608.6566,z,1,0.5058,,608.6567,608.6568,,0,320,320,195,1,196,netüm,,,,,5,harmonic,1.95,nw,z,,,,,,,
,,,,,,,,,,,Manly McBeefington,001,2023-11-08_10h15.25.984,vowel_harmony,2023.2.3,Win32,60.06366749,608.657,609.6568,,,,,,,,,,,,,,,,,,,,,,,,,,609.6568,610.1568,m,1,0.469,,610.1568,610.157,,0,321,321,110,1,111,rüya,1062,48.2531,937,0.1024,4,notharmonic,1.75,word,m,,,,,,,
,,,,,,,,,,,Manly McBeefington,001,2023-11-08_10h15.25.984,vowel_harmony,2023.2.3,Win32,60.06366749,610.1575,611.1565,,,,,,,,,,,,,,,,,,,,,,,,,,611.1566,611.7233,m,1,0.537,,611.7234,611.7235,,0,322,322,168,1,169,kilo,3389,153.9827,2646,0.2893,4,notharmonic,1.65,word,m,,,,,,,
,,,,,,,,,,,Manly McBeefington,001,2023-11-08_10h15.25.984,vowel_harmony,2023.2.3,Win32,60.06366749,611.7241,612.7231,,,,,,,,,,,,,,,,,,,,,,,,,,612.7232,613.2897,m,1,0.538,,613.2897,613.2897,,0,323,323,142,1,143,siyasi,2909,132.1734,2445,0.2673,6,notharmonic,1.8,word,m,,,,,,,
,,,,,,,,,,,Manly McBeefington,001,2023-11-08_10h15.25.984,vowel_harmony,2023.2.3,Win32,60.06366749,613.2901,614.2899,,,,,,,,,,,,,,,,,,,,,,,,,,614.2899,614.7822,m,1,0.4672,,614.7822,614.7823,,0,324,324,31,1,32,fazla,18293,831.1614,16694,1.825,5,harmonic,1,word,m,,,,,,,
,,,,,,,,,,,Manly McBeefington,001,2023-11-08_10h15.25.984,vowel_harmony,2023.2.3,Win32,60.06366749,614.7827,615.7729,,,,,,,,,,,,,,,,,,,,,,,,,,615.7729,616.5564,z,1,0.7528,,616.5564,616.5565,,0,325,325,279,1,280,tadde,,,,,5,notharmonic,1.8,nw,z,,,,,,,
,,,,,,,,,,,Manly McBeefington,001,2023-11-08_10h15.25.984,vowel_harmony,2023.2.3,Win32,60.06366749,616.557,617.5563,,,,,,,,,,,,,,,,,,,,,,,,,,617.5564,618.0229,m,0,0.4392,,618.0229,618.0231,,0,326,326,312,1,313,şahmin,,,,,6,notharmonic,1.8,nw,z,,,,,,,
,,,,,,,,,,,Manly McBeefington,001,2023-11-08_10h15.25.984,vowel_harmony,2023.2.3,Win32,60.06366749,618.0235,619.0229,,,,,,,,,,,,,,,,,,,,,,,,,,619.023,619.5458,m,1,0.498,,619.5459,619.5461,,0,327,327,124,1,125,ilan,1579,71.7435,1499,0.1639,4,notharmonic,1,word,m,,,,,,,
,,,,,,,,,,,Manly McBeefington,001,2023-11-08_10h15.25.984,vowel_harmony,2023.2.3,Win32,60.06366749,619.5467,620.5396,,,,,,,,,,,,,,,,,,,,,,,,,,620.5396,621.0894,m,1,0.5172,,621.0895,621.0896,,0,328,328,54,1,55,yedek,825,37.4847,732,0.08,5,harmonic,1.65,word,m,,,,,,,
,,,,,,,,,,,Manly McBeefington,001,2023-11-08_10h15.25.984,vowel_harmony,2023.2.3,Win32,60.06366749,621.0901,622.0895,,,,,,,,,,,,,,,,,,,,,,,,,,622.0896,622.6391,m,1,0.5236,,622.6392,622.6392,,0,329,329,75,1,76,roman,1499,68.1086,1281,0.14,5,harmonic,1.6,word,m,,,,,,,
,,,,,,,,,,,Manly McBeefington,001,2023-11-08_10h15.25.984,vowel_harmony,2023.2.3,Win32,60.06366749,622.6395,623.6392,,,,,,,,,,,,,,,,,,,,,,,,,,623.6392,624.106,m,1,0.4383,,624.106,624.1061,,0,330,330,147,1,148,işaret,1888,85.7832,1787,0.1954,6,notharmonic,1,word,m,,,,,,,
,,,,,,,,,,,Manly McBeefington,001,2023-11-08_10h15.25.984,vowel_harmony,2023.2.3,Win32,60.06366749,624.1066,625.1059,,,,,,,,,,,,,,,,,,,,,,,,,,625.1059,625.7391,z,1,0.6039,,625.7391,625.7392,,0,331,331,239,1,240,şekik,,,,,5,harmonic,1.7,nw,z,,,,,,,
,,,,,,,,,,,Manly McBeefington,001,2023-11-08_10h15.25.984,vowel_harmony,2023.2.3,Win32,60.06366749,625.7397,626.739,,,,,,,,,,,,,,,,,,,,,,,,,,626.7391,627.281,z,1,0.5171,,627.281,627.2811,,0,332,332,224,1,225,ertre,,,,,5,harmonic,1.95,nw,z,,,,,,,
,,,,,,,,,,,Manly McBeefington,001,2023-11-08_10h15.25.984,vowel_harmony,2023.2.3,Win32,60.06366749,627.2813,628.2721,,,,,,,,,,,,,,,,,,,,,,,,,,628.2721,628.7891,m,1,0.4852,,628.7892,628.7892,,0,333,333,109,1,110,milyon,3936,178.8362,2958,0.3234,6,notharmonic,1.75,word,m,,,,,,,
,,,,,,,,,,,Manly McBeefington,001,2023-11-08_10h15.25.984,vowel_harmony,2023.2.3,Win32,60.06366749,628.7898,629.7974,,,,,,,,,,,,,,,,,,,,,,,,,,629.7974,630.264,m,1,0.4503,,630.2642,630.2642,,0,334,334,171,1,172,reklam,1565,71.1074,1244,0.136,6,notharmonic,1.9,word,m,,,,,,,
,,,,,,,,,,,Manly McBeefington,001,2023-11-08_10h15.25.984,vowel_harmony,2023.2.3,Win32,60.06366749,630.2646,631.2555,,,,,,,,,,,,,,,,,,,,,,,,,,631.2557,631.8388,z,1,0.5507,,631.8388,631.839,,0,335,335,237,1,238,taşal,,,,,5,harmonic,1.8,nw,z,,,,,,,
,,,,,,,,,,,Manly McBeefington,001,2023-11-08_10h15.25.984,vowel_harmony,2023.2.3,Win32,60.06366749,631.8394,632.8386,,,,,,,,,,,,,,,,,,,,,,,,,,632.8387,633.5387,z,1,0.6672,,633.5388,633.5389,,0,336,336,322,1,323,normin,,,,,6,notharmonic,1.95,nw,z,,,,,,,
,,,,,,,,,,,Manly McBeefington,001,2023-11-08_10h15.25.984,vowel_harmony,2023.2.3,Win32,60.06366749,633.5393,634.5387,,,,,,,,,,,,,,,,,,,,,,,,,,634.5388,635.072,m,1,0.5069,,635.0721,635.073,,0,337,337,154,1,155,sakin,1855,84.2838,1635,0.1787,5,notharmonic,1.05,word,m,,,,,,,
,,,,,,,,,,,Manly McBeefington,001,2023-11-08_10h15.25.984,vowel_harmony,2023.2.3,Win32,60.06366749,635.0734,636.0755,,,,,,,,,,,,,,,,,,,,,,,,,,636.0756,637.0551,z,1,0.9578,,637.0551,637.0552,,0,338,338,271,1,272,mimal,,,,,5,notharmonic,1.8,nw,z,,,,,,,
,,,,,,,,,,,Manly McBeefington,001,2023-11-08_10h15.25.984,vowel_harmony,2023.2.3,Win32,60.06366749,637.0556,638.055,,,,,,,,,,,,,,,,,,,,,,,,,,638.055,638.7218,z,1,0.6384,,638.7219,638.722,,0,339,339,334,1,335,işgan,,,,,5,notharmonic,1.95,nw,z,,,,,,,
,,,,,,,,,,,Manly McBeefington,001,2023-11-08_10h15.25.984,vowel_harmony,2023.2.3,Win32,60.06366749,638.7224,639.7133,,,,,,,,,,,,,,,,,,,,,,,,,,639.7133,640.3551,z,1,0.6205,,640.3552,640.3553,,0,340,340,216,1,217,çeyret,,,,,6,harmonic,1.9,nw,z,,,,,,,
,,,,,,,,,,,Manly McBeefington,001,2023-11-08_10h15.25.984,vowel_harmony,2023.2.3,Win32,60.06366749,640.3557,641.355,,,,,,,,,,,,,,,,,,,,,,,,,,641.355,641.8716,z,1,0.4904,,641.8717,641.8718,,0,341,341,264,1,265,vepü,,,,,4,harmonic,2,nw,z,,,,,,,
,,,,,,,,,,,Manly McBeefington,001,2023-11-08_10h15.25.984,vowel_harmony,2023.2.3,Win32,60.06366749,641.8722,642.8716,,,,,,,,,,,,,,,,,,,,,,,,,,642.8716,643.3548,z,1,0.4505,,643.3549,643.3552,,0,342,342,335,1,336,lilo,,,,,4,notharmonic,1.8,nw,z,,,,,,,
,,,,,,,,,,,Manly McBeefington,001,2023-11-08_10h15.25.984,vowel_harmony,2023.2.3,Win32,60.06366749,643.3556,644.3466,,,,,,,,,,,,,,,,,,,,,,,,,,644.3466,644.9048,z,1,0.5341,,644.9048,644.9051,,0,343,343,257,1,258,zerü,,,,,4,harmonic,1.8,nw,z,,,,,,,
,,,,,,,,,,,Manly McBeefington,001,2023-11-08_10h15.25.984,vowel_harmony,2023.2.3,Win32,60.06366749,644.9055,645.8961,,,,,,,,,,,,,,,,,,,,,,,,,,645.8961,646.4386,z,1,0.5256,,646.4386,646.4388,,0,344,344,231,1,232,norgun,,,,,6,harmonic,1.75,nw,z,,,,,,,
,,,,,,,,,,,Manly McBeefington,001,2023-11-08_10h15.25.984,vowel_harmony,2023.2.3,Win32,60.06366749,646.4392,647.438,,,,,,,,,,,,,,,,,,,,,,,,,,647.4381,647.9545,m,1,0.4882,,647.9546,647.9548,,0,345,345,70,1,71,yarın,3440,156.3,3222,0.3522,5,harmonic,1.85,word,m,,,,,,,
,,,,,,,,,,,Manly McBeefington,001,2023-11-08_10h15.25.984,vowel_harmony,2023.2.3,Win32,60.06366749,647.9552,648.9547,,,,,,,,,,,,,,,,,,,,,,,,,,648.9547,649.6384,z,1,0.659,,649.6385,649.6386,,0,346,346,190,1,191,reklen,,,,,6,harmonic,1.8,nw,z,,,,,,,
,,,,,,,,,,,Manly McBeefington,001,2023-11-08_10h15.25.984,vowel_harmony,2023.2.3,Win32,60.06366749,649.6391,650.6377,,,,,,,,,,,,,,,,,,,,,,,,,,650.6377,651.2463,m,1,0.5839,,651.2463,651.2464,,0,347,347,92,1,93,sahne,1380,62.7017,1238,0.1353,5,notharmonic,1.65,word,m,,,,,,,
,,,,,,,,,,,Manly McBeefington,001,2023-11-08_10h15.25.984,vowel_harmony,2023.2.3,Win32,60.06366749,651.2467,652.2377,,,,,,,,,,,,,,,,,,,,,,,,,,652.2378,652.7711,m,1,0.5038,,652.7711,652.7712,,0,348,348,49,1,50,şeker,4708,213.9128,4170,0.4559,5,harmonic,1.6,word,m,,,,,,,
,,,,,,,,,,,Manly McBeefington,001,2023-11-08_10h15.25.984,vowel_harmony,2023.2.3,Win32,60.06366749,652.7717,653.7708,,,,,,,,,,,,,,,,,,,,,,,,,,653.7708,654.3541,m,1,0.5505,,654.3541,654.3542,,0,349,349,144,1,145,garip,2567,116.6343,2355,0.2574,5,notharmonic,1.65,word,m,,,,,,,
,,,,,,,,,,,Manly McBeefington,001,2023-11-08_10h15.25.984,vowel_harmony,2023.2.3,Win32,60.06366749,654.3546,655.3541,,,,,,,,,,,,,,,,,,,,,,,,,,655.3541,655.9376,z,1,0.5552,,655.9376,655.9377,,0,350,350,330,1,331,vahçe,,,,,5,notharmonic,1.9,nw,z,,,,,,,
,,,,,,,,,,,Manly McBeefington,001,2023-11-08_10h15.25.984,vowel_harmony,2023.2.3,Win32,60.06366749,655.9381,656.9375,,,,,,,,,,,,,,,,,,,,,,,,,,656.9376,657.5041,m,1,0.534,,657.5041,657.5043,,0,351,351,89,1,90,etki,1234,56.0681,1169,0.1278,4,harmonic,1.4,word,m,,,,,,,
,,,,,,,,,,,Manly McBeefington,001,2023-11-08_10h15.25.984,vowel_harmony,2023.2.3,Win32,60.06366749,657.5048,658.4959,,,,,,,,,,,,,,,,,,,,,,,,,,658.4959,659.063,z,1,0.5506,,659.0631,659.0632,,0,352,352,350,1,351,resun,,,,,5,notharmonic,1.85,nw,z,,,,,,,
,,,,,,,,,,,Manly McBeefington,001,2023-11-08_10h15.25.984,vowel_harmony,2023.2.3,Win32,60.06366749,659.0637,660.054,,,,,,,,,,,,,,,,,,,,,,,,,,660.054,660.5956,z,1,0.5169,,660.5957,660.5958,,0,353,353,259,1,260,hayuk,,,,,5,harmonic,1.95,nw,z,,,,,,,
,,,,,,,,,,,Manly McBeefington,001,2023-11-08_10h15.25.984,vowel_harmony,2023.2.3,Win32,60.06366749,660.5961,661.5871,,,,,,,,,,,,,,,,,,,,,,,,,,661.5872,662.1372,z,1,0.5173,,662.1372,662.1374,,0,354,354,292,1,293,kinam,,,,,5,notharmonic,1.85,nw,z,,,,,,,
,,,,,,,,,,,Manly McBeefington,001,2023-11-08_10h15.25.984,vowel_harmony,2023.2.3,Win32,60.06366749,662.1378,663.1289,,,,,,,,,,,,,,,,,,,,,,,,,,663.129,663.6704,m,1,0.5174,,663.6705,663.6706,,0,355,355,8,1,9,güven,1433,65.1098,1300,0.1421,5,harmonic,1.35,word,m,,,,,,,
,,,,,,,,,,,Manly McBeefington,001,2023-11-08_10h15.25.984,vowel_harmony,2023.2.3,Win32,60.06366749,663.671,664.6701,,,,,,,,,,,,,,,,,,,,,,,,,,664.6701,665.2036,z,1,0.5031,,665.2036,665.2037,,0,356,356,274,1,275,pisan,,,,,5,notharmonic,1.75,nw,z,,,,,,,
,,,,,,,,,,,Manly McBeefington,001,2023-11-08_10h15.25.984,vowel_harmony,2023.2.3,Win32,60.06366749,665.2043,666.1951,,,,,,,,,,,,,,,,,,,,,,,,,,666.1951,666.712,m,1,0.5005,,666.7121,666.7122,,0,357,357,25,1,26,rapor,703,31.9415,617,0.0675,5,harmonic,1.8,word,m,,,,,,,
