Welcome_screen.started,Welcome_screen.stopped,key_respwelcome.keys,key_respwelcome.rt,key_respwelcome.duration,intro_x.thisRepN,intro_x.thisTrialN,intro_x.thisN,intro_x.thisIndex,intro_x.ran,Introduction,participant,session,date,expName,psychopyVersion,OS,frameRate,Fixation.started,Fixation.stopped,Studypractice.started,Studypractice.stopped,key_respstudy.keys,key_respstudy.corr,key_respstudy.rt,key_respstudy.duration,rt,corr,Feedback.started,Feedback.stopped,practice_loop.thisRepN,practice_loop.thisTrialN,practice_loop.thisN,practice_loop.thisIndex,practice_loop.ran,item_nr_p,target_p,isHarmonic_p,target_cond_p,CorrAns_p,Instraction.started,Instraction.stopped,key_respınstraction.keys,key_respınstraction.rt,key_respınstraction.duration,TestTrial.started,TestTrial.stopped,key_respTest.keys,key_respTest.corr,key_respTest.rt,key_respTest.duration,Pause.started,Pause.stopped,key_resp_xx.keys,test_loop.thisRepN,test_loop.thisTrialN,test_loop.thisN,test_loop.thisIndex,test_loop.ran,item_nr,target,BlogFreq_A1,BlogFreqpm_A1,BlogCD_A1,BlogCDPc_A1,WordLength_A1,isHarmonic_A1,old20,target_cond,CorrAns,key_resp_xx.rt,key_resp_xx.duration,Goodbye_screen.started,Goodbye_screen.stopped,key_respgoodbye.keys,key_respgoodbye.rt,key_respgoodbye.duration
0.0646,2.197,space,2.0999,,0,0,0,0,1,"Deneye hoş geldiniz,

Devam etmek için BOŞLUK tuşuna basınız.",,001,2023-11-09_11h32.23.369,vowel_harmony,2023.2.3,Win32,59.96641881,,,,,,,,,,,,,,,,,,,,,,,,,,,,,,,,,,,,,,,,,,,,,,,,,,,,,,,,,,,
2.1988,13.1858,space,10.9641,,0,1,1,1,1,"Bu çalışma Valencia Üniversitesi kapsamında yürütülmektedir. Deneydeki göreviniz, ekrana çıkacak Türkçe sözcüklerin kelime olup olmadığını belirlemenizdir. Eğer sözcük gerçek bir kelime ise ""m"" tuşuna, değil ise ""z"" tuşuna basınız.   

Devam etmek için BOŞLUK tuşuna basınız.",,001,2023-11-09_11h32.23.369,vowel_harmony,2023.2.3,Win32,59.96641881,,,,,,,,,,,,,,,,,,,,,,,,,,,,,,,,,,,,,,,,,,,,,,,,,,,,,,,,,,,
13.1867,23.4574,space,10.2391,,0,2,2,2,1,"Her sözcük için en fazla iki saniyede cevap vermeniz beklenmektedir. Aksi takdirde deney bir sonraki sözcük ile devam eder. 
Bu çalışmada oldukça hızlı ve doğru cevaplama yapmanız beklenmektedir.

Devam etmek için BOŞLUK tuşuna basınız.",,001,2023-11-09_11h32.23.369,vowel_harmony,2023.2.3,Win32,59.96641881,,,,,,,,,,,,,,,,,,,,,,,,,,,,,,,,,,,,,,,,,,,,,,,,,,,,,,,,,,,
23.4578,32.166,space,8.6929,,0,3,3,3,1,"Çalışmaya başlamadan önce ufak bir pratik yer almaktadır.
Kelimedir: ""m""
Kelime değildir: ""z""

Pratik teste başlamak için BOŞLUK tuşuna basınız. ",,001,2023-11-09_11h32.23.369,vowel_harmony,2023.2.3,Win32,59.96641881,,,,,,,,,,,,,,,,,,,,,,,,,,,,,,,,,,,,,,,,,,,,,,,,,,,,,,,,,,,
,,,,,,,,,,,,001,2023-11-09_11h32.23.369,vowel_harmony,2023.2.3,Win32,59.96641881,32.1744,33.166,33.1665,34.2158,m,1,1.0127,,1.0127,1,34.2162,35.7121,0,0,0,5,1,6,bahçe,notharmonic,word,m,,,,,,,,,,,,,,,,,,,,,,,,,,,,,,,,,,,,,
,,,,,,,,,,,,001,2023-11-09_11h32.23.369,vowel_harmony,2023.2.3,Win32,59.96641881,35.7138,36.7112,36.7113,37.7952,m,1,1.0593,,1.0593,1,37.7954,39.293,0,1,1,6,1,7,pilot,notharmonic,word,m,,,,,,,,,,,,,,,,,,,,,,,,,,,,,,,,,,,,,
,,,,,,,,,,,,001,2023-11-09_11h32.23.369,vowel_harmony,2023.2.3,Win32,59.96641881,39.2941,40.2959,40.2959,41.3398,z,1,1.0253,,1.0253,1,41.3398,42.8382,0,2,2,11,1,12,geki,harmonic,nw,z,,,,,,,,,,,,,,,,,,,,,,,,,,,,,,,,,,,,,
,,,,,,,,,,,,001,2023-11-09_11h32.23.369,vowel_harmony,2023.2.3,Win32,59.96641881,42.8385,43.8305,43.8306,44.4368,z,0,0.5922,,0.5922,0,44.4369,45.9353,0,3,3,1,1,2,veri,harmonic,word,m,,,,,,,,,,,,,,,,,,,,,,,,,,,,,,,,,,,,,
,,,,,,,,,,,,001,2023-11-09_11h32.23.369,vowel_harmony,2023.2.3,Win32,59.96641881,45.9356,46.9361,46.9362,47.4672,m,1,0.5072,,0.5072,1,47.4673,48.9658,0,4,4,7,1,8,oran,harmonic,word,m,,,,,,,,,,,,,,,,,,,,,,,,,,,,,,,,,,,,,
,,,,,,,,,,,,001,2023-11-09_11h32.23.369,vowel_harmony,2023.2.3,Win32,59.96641881,48.9665,49.9691,49.9692,50.8028,m,1,0.8172,,0.8172,1,50.8029,52.2964,0,5,5,3,1,4,ihlal,notharmonic,word,m,,,,,,,,,,,,,,,,,,,,,,,,,,,,,,,,,,,,,
,,,,,,,,,,,,001,2023-11-09_11h32.23.369,vowel_harmony,2023.2.3,Win32,59.96641881,52.298,53.2967,53.2968,54.5828,m,0,1.2662,,1.2662,0,54.5831,56.0769,0,6,6,10,1,11,mahne,notharmonic,nw,z,,,,,,,,,,,,,,,,,,,,,,,,,,,,,,,,,,,,,
,,,,,,,,,,,,001,2023-11-09_11h32.23.369,vowel_harmony,2023.2.3,Win32,59.96641881,56.0779,57.0745,57.0746,58.9245,z,1,1.8207,,1.8207,1,58.9245,60.4219,0,7,7,9,1,10,orat,harmonic,nw,z,,,,,,,,,,,,,,,,,,,,,,,,,,,,,,,,,,,,,
,,,,,,,,,,,,001,2023-11-09_11h32.23.369,vowel_harmony,2023.2.3,Win32,59.96641881,60.4231,61.4214,61.4215,62.253,z,1,0.8101,,0.8101,1,62.253,63.7529,0,8,8,15,1,16,mımal,harmonic,nw,z,,,,,,,,,,,,,,,,,,,,,,,,,,,,,,,,,,,,,
,,,,,,,,,,,,001,2023-11-09_11h32.23.369,vowel_harmony,2023.2.3,Win32,59.96641881,63.7537,64.7519,64.752,65.5015,z,1,0.7288,,0.7288,1,65.5017,66.9996,0,9,9,13,1,14,pilar,notharmonic,nw,z,,,,,,,,,,,,,,,,,,,,,,,,,,,,,,,,,,,,,
,,,,,,,,,,,,001,2023-11-09_11h32.23.369,vowel_harmony,2023.2.3,Win32,59.96641881,67.0005,67.9983,67.9983,68.8313,m,1,0.804,,0.804,1,68.8315,70.3282,0,10,10,0,1,1,ihale,notharmonic,word,m,,,,,,,,,,,,,,,,,,,,,,,,,,,,,,,,,,,,,
,,,,,,,,,,,,001,2023-11-09_11h32.23.369,vowel_harmony,2023.2.3,Win32,59.96641881,70.3291,71.3319,71.3319,72.1113,z,1,0.762,,0.762,1,72.1114,73.61,0,11,11,12,1,13,ihlot,notharmonic,nw,z,,,,,,,,,,,,,,,,,,,,,,,,,,,,,,,,,,,,,
,,,,,,,,,,,,001,2023-11-09_11h32.23.369,vowel_harmony,2023.2.3,Win32,59.96641881,73.6109,74.6127,74.6127,75.9068,z,1,1.2736,,1.2736,1,75.907,77.406,0,12,12,8,1,9,tahip,notharmonic,nw,z,,,,,,,,,,,,,,,,,,,,,,,,,,,,,,,,,,,,,
,,,,,,,,,,,,001,2023-11-09_11h32.23.369,vowel_harmony,2023.2.3,Win32,59.96641881,77.4071,78.4052,78.4053,78.9043,m,1,0.477,,0.477,1,78.9045,80.4018,0,13,13,4,1,5,mimar,notharmonic,word,m,,,,,,,,,,,,,,,,,,,,,,,,,,,,,,,,,,,,,
,,,,,,,,,,,,001,2023-11-09_11h32.23.369,vowel_harmony,2023.2.3,Win32,59.96641881,80.4025,81.4007,81.4007,82.1181,z,1,0.6903,,0.6903,1,82.1182,83.6162,0,14,14,14,1,15,pimer,harmonic,nw,z,,,,,,,,,,,,,,,,,,,,,,,,,,,,,,,,,,,,,
,,,,,,,,,,,,001,2023-11-09_11h32.23.369,vowel_harmony,2023.2.3,Win32,59.96641881,83.6172,84.6156,84.6157,85.1991,m,1,0.5551,,0.5551,1,85.1992,86.6971,0,15,15,2,1,3,memur,notharmonic,word,m,,,,,,,,,,,,,,,,,,,,,,,,,,,,,,,,,,,,,
,,,,,,,,,,,,001,2023-11-09_11h32.23.369,vowel_harmony,2023.2.3,Win32,59.96641881,,,,,,,,,,,,,,,,,,,,,,,86.6988,94.792,space,8.066,,,,,,,,,,,,,,,,,,,,,,,,,,,,,,,,,
,,,,,,,,,,,,001,2023-11-09_11h32.23.369,vowel_harmony,2023.2.3,Win32,59.96641881,94.844,95.8033,,,,,,,,,,,,,,,,,,,,,,,,,,95.8041,96.5205,z,1,0.6845,,96.5213,96.5226,,0,0,0,214,1,215,vecü,,,,,4,harmonic,1.95,nw,z,,,,,,,
,,,,,,,,,,,,001,2023-11-09_11h32.23.369,vowel_harmony,2023.2.3,Win32,59.96641881,96.5229,97.52,,,,,,,,,,,,,,,,,,,,,,,,,,97.5201,98.1195,m,1,0.5784,,98.1195,98.1197,,0,1,1,121,1,122,mesaj,1604,72.8794,1386,0.1515,5,notharmonic,1.8,word,m,,,,,,,
,,,,,,,,,,,,001,2023-11-09_11h32.23.369,vowel_harmony,2023.2.3,Win32,59.96641881,98.1204,99.1188,,,,,,,,,,,,,,,,,,,,,,,,,,99.1189,99.7173,m,1,0.5715,,99.7176,99.7179,,0,2,2,73,1,74,millet,1658,75.3329,1508,0.1649,6,harmonic,1.7,word,m,,,,,,,
,,,,,,,,,,,,001,2023-11-09_11h32.23.369,vowel_harmony,2023.2.3,Win32,59.96641881,99.7185,100.7165,,,,,,,,,,,,,,,,,,,,,,,,,,100.7168,101.4974,z,1,0.7543,,101.4974,101.4975,,0,3,3,239,1,240,şekik,,,,,5,harmonic,1.7,nw,z,,,,,,,
,,,,,,,,,,,,001,2023-11-09_11h32.23.369,vowel_harmony,2023.2.3,Win32,59.96641881,101.498,102.4985,,,,,,,,,,,,,,,,,,,,,,,,,,102.4985,103.1976,z,1,0.6738,,103.1976,103.1979,,0,4,4,248,1,249,şegim,,,,,5,harmonic,1.9,nw,z,,,,,,,
,,,,,,,,,,,,001,2023-11-09_11h32.23.369,vowel_harmony,2023.2.3,Win32,59.96641881,103.1986,104.1948,,,,,,,,,,,,,,,,,,,,,,,,,,104.1948,104.7778,m,1,0.5514,,104.7778,104.7779,,0,5,5,23,1,24,kurum,986,44.7999,882,0.0964,5,harmonic,1.75,word,m,,,,,,,
,,,,,,,,,,,,001,2023-11-09_11h32.23.369,vowel_harmony,2023.2.3,Win32,59.96641881,104.7784,105.7766,,,,,,,,,,,,,,,,,,,,,,,,,,105.7767,106.5111,z,1,0.703,,106.5113,106.5116,,0,6,6,191,1,192,doab,,,,,4,harmonic,2,nw,z,,,,,,,
,,,,,,,,,,,,001,2023-11-09_11h32.23.369,vowel_harmony,2023.2.3,Win32,59.96641881,106.5124,107.5087,,,,,,,,,,,,,,,,,,,,,,,,,,107.5087,108.1089,m,1,0.5685,,108.109,108.1095,,0,7,7,26,1,27,sebze,1094,49.707,961,0.1051,5,harmonic,1.9,word,m,,,,,,,
,,,,,,,,,,,,001,2023-11-09_11h32.23.369,vowel_harmony,2023.2.3,Win32,59.96641881,108.11,109.1078,,,,,,,,,,,,,,,,,,,,,,,,,,109.1078,109.9233,z,1,0.7899,,109.9235,109.9237,,0,8,8,332,1,333,tahane,,,,,6,notharmonic,1.85,nw,z,,,,,,,
,,,,,,,,,,,,001,2023-11-09_11h32.23.369,vowel_harmony,2023.2.3,Win32,59.96641881,109.9246,110.9217,,,,,,,,,,,,,,,,,,,,,,,,,,110.9217,111.6208,z,1,0.6755,,111.6208,111.6209,,0,9,9,199,1,200,movu,,,,,4,harmonic,1.9,nw,z,,,,,,,
,,,,,,,,,,,,001,2023-11-09_11h32.23.369,vowel_harmony,2023.2.3,Win32,59.96641881,111.6213,112.6198,,,,,,,,,,,,,,,,,,,,,,,,,,112.6198,113.2359,z,1,0.5842,,113.2359,113.236,,0,10,10,283,1,284,fahe,,,,,4,notharmonic,1.95,nw,z,,,,,,,
,,,,,,,,,,,,001,2023-11-09_11h32.23.369,vowel_harmony,2023.2.3,Win32,59.96641881,113.2362,114.2352,,,,,,,,,,,,,,,,,,,,,,,,,,114.2352,114.8511,m,1,0.5839,,114.8512,114.8513,,0,11,11,106,1,107,esnaf,315,14.3124,284,0.031,5,notharmonic,1.55,word,m,,,,,,,
,,,,,,,,,,,,001,2023-11-09_11h32.23.369,vowel_harmony,2023.2.3,Win32,59.96641881,114.8527,115.8505,,,,,,,,,,,,,,,,,,,,,,,,,,115.8505,116.9508,m,1,1.0711,,116.951,116.9513,,0,12,12,67,1,68,bayram,1948,88.5094,1648,0.1802,6,harmonic,1.85,word,m,,,,,,,
,,,,,,,,,,,,001,2023-11-09_11h32.23.369,vowel_harmony,2023.2.3,Win32,59.96641881,116.9522,117.95,,,,,,,,,,,,,,,,,,,,,,,,,,117.9501,119.215,z,1,1.2372,,119.2152,119.2155,,0,13,13,245,1,246,bıyan,,,,,5,harmonic,1.7,nw,z,,,,,,,
,,,,,,,,,,,,001,2023-11-09_11h32.23.369,vowel_harmony,2023.2.3,Win32,59.96641881,119.2165,120.218,,,,,,,,,,,,,,,,,,,,,,,,,,120.2181,120.7836,m,1,0.5498,,120.7836,120.7837,,0,14,14,109,1,110,milyon,3936,178.8362,2958,0.3234,6,notharmonic,1.75,word,m,,,,,,,
,,,,,,,,,,,,001,2023-11-09_11h32.23.369,vowel_harmony,2023.2.3,Win32,59.96641881,120.7838,121.7829,,,,,,,,,,,,,,,,,,,,,,,,,,121.7829,122.8652,z,1,1.0662,,122.8652,122.8653,,0,15,15,318,1,319,yorgün,,,,,6,notharmonic,1.9,nw,z,,,,,,,
,,,,,,,,,,,,001,2023-11-09_11h32.23.369,vowel_harmony,2023.2.3,Win32,59.96641881,122.8656,123.8648,,,,,,,,,,,,,,,,,,,,,,,,,,123.8648,124.6141,m,1,0.7334,,124.6141,124.6143,,0,16,16,176,1,177,harika,4682,212.7315,4422,0.4834,6,notharmonic,1.9,word,m,,,,,,,
,,,,,,,,,,,,001,2023-11-09_11h32.23.369,vowel_harmony,2023.2.3,Win32,59.96641881,124.6149,125.613,,,,,,,,,,,,,,,,,,,,,,,,,,125.6131,126.4953,z,1,0.8666,,126.4954,126.4955,,0,17,17,247,1,248,hafgın,,,,,6,harmonic,2,nw,z,,,,,,,
,,,,,,,,,,,,001,2023-11-09_11h32.23.369,vowel_harmony,2023.2.3,Win32,59.96641881,126.496,127.4941,,,,,,,,,,,,,,,,,,,,,,,,,,127.4941,128.3104,z,1,0.8002,,128.3104,128.3106,,0,18,18,229,1,230,tonam,,,,,5,harmonic,1.8,nw,z,,,,,,,
,,,,,,,,,,,,001,2023-11-09_11h32.23.369,vowel_harmony,2023.2.3,Win32,59.96641881,128.3112,129.3088,,,,,,,,,,,,,,,,,,,,,,,,,,129.3089,129.8092,m,1,0.4839,,129.8092,129.8094,,0,19,19,101,1,102,imza,1358,61.7021,1253,0.137,4,notharmonic,1.65,word,m,,,,,,,
,,,,,,,,,,,,001,2023-11-09_11h32.23.369,vowel_harmony,2023.2.3,Win32,59.96641881,129.81,130.8072,,,,,,,,,,,,,,,,,,,,,,,,,,130.8072,131.4236,m,1,0.6,,131.4237,131.4238,,0,20,20,168,1,169,kilo,3389,153.9827,2646,0.2893,4,notharmonic,1.65,word,m,,,,,,,
,,,,,,,,,,,,001,2023-11-09_11h32.23.369,vowel_harmony,2023.2.3,Win32,59.96641881,131.4242,132.4223,,,,,,,,,,,,,,,,,,,,,,,,,,132.4224,133.0893,z,1,0.6504,,133.0894,133.0895,,0,21,21,226,1,227,tefem,,,,,5,harmonic,1.75,nw,z,,,,,,,
,,,,,,,,,,,,001,2023-11-09_11h32.23.369,vowel_harmony,2023.2.3,Win32,59.96641881,133.0901,134.0867,,,,,,,,,,,,,,,,,,,,,,,,,,134.0867,134.8541,m,1,0.7508,,134.8542,134.8543,,0,22,22,75,1,76,roman,1499,68.1086,1281,0.14,5,harmonic,1.6,word,m,,,,,,,
,,,,,,,,,,,,001,2023-11-09_11h32.23.369,vowel_harmony,2023.2.3,Win32,59.96641881,134.8549,135.8529,,,,,,,,,,,,,,,,,,,,,,,,,,135.8529,136.6024,m,1,0.7337,,136.6025,136.6026,,0,23,23,102,1,103,esas,1965,89.2818,1795,0.1962,4,notharmonic,1.75,word,m,,,,,,,
,,,,,,,,,,,,001,2023-11-09_11h32.23.369,vowel_harmony,2023.2.3,Win32,59.96641881,136.6033,137.6008,,,,,,,,,,,,,,,,,,,,,,,,,,137.601,138.1671,m,1,0.5502,,138.1673,138.1673,,0,24,24,142,1,143,siyasi,2909,132.1734,2445,0.2673,6,notharmonic,1.8,word,m,,,,,,,
,,,,,,,,,,,,001,2023-11-09_11h32.23.369,vowel_harmony,2023.2.3,Win32,59.96641881,138.1678,139.1664,,,,,,,,,,,,,,,,,,,,,,,,,,139.1665,139.9487,z,1,0.7668,,139.9488,139.949,,0,25,25,211,1,212,yarum,,,,,5,harmonic,1.75,nw,z,,,,,,,
,,,,,,,,,,,,001,2023-11-09_11h32.23.369,vowel_harmony,2023.2.3,Win32,59.96641881,139.9496,140.9476,,,,,,,,,,,,,,,,,,,,,,,,,,140.9477,141.5299,m,1,0.5666,,141.53,141.53,,0,26,26,37,1,38,hayvan,2363,107.3653,1894,0.2071,6,harmonic,1.5,word,m,,,,,,,
,,,,,,,,,,,,001,2023-11-09_11h32.23.369,vowel_harmony,2023.2.3,Win32,59.96641881,141.5301,142.5284,,,,,,,,,,,,,,,,,,,,,,,,,,142.5284,143.1956,z,1,0.6501,,143.1957,143.1958,,0,27,27,201,1,202,ergiy,,,,,5,harmonic,1.85,nw,z,,,,,,,
,,,,,,,,,,,,001,2023-11-09_11h32.23.369,vowel_harmony,2023.2.3,Win32,59.96641881,143.1964,144.1945,,,,,,,,,,,,,,,,,,,,,,,,,,144.1946,144.7436,m,1,0.5333,,144.7436,144.7436,,0,28,28,77,1,78,ufak,3252,147.758,2980,0.3258,4,harmonic,1.5,word,m,,,,,,,
,,,,,,,,,,,,001,2023-11-09_11h32.23.369,vowel_harmony,2023.2.3,Win32,59.96641881,144.7438,145.743,,,,,,,,,,,,,,,,,,,,,,,,,,145.7431,146.359,m,1,0.6001,,146.359,146.3591,,0,29,29,59,1,60,köpek,1044,47.4352,901,0.0985,5,harmonic,1.75,word,m,,,,,,,
,,,,,,,,,,,,001,2023-11-09_11h32.23.369,vowel_harmony,2023.2.3,Win32,59.96641881,146.3597,147.3579,,,,,,,,,,,,,,,,,,,,,,,,,,147.3579,147.9243,m,1,0.5503,,147.9243,147.9245,,0,30,30,79,1,80,durum,6783,308.1926,6431,0.703,5,harmonic,1.7,word,m,,,,,,,
,,,,,,,,,,,,001,2023-11-09_11h32.23.369,vowel_harmony,2023.2.3,Win32,59.96641881,147.9251,148.9231,,,,,,,,,,,,,,,,,,,,,,,,,,148.9231,149.3731,m,1,0.4339,,149.3731,149.3733,,0,31,31,138,1,139,kardeş,1270,57.7038,1174,0.1283,6,notharmonic,1.9,word,m,,,,,,,
,,,,,,,,,,,,001,2023-11-09_11h32.23.369,vowel_harmony,2023.2.3,Win32,59.96641881,149.3737,150.3719,,,,,,,,,,,,,,,,,,,,,,,,,,150.372,151.1213,m,1,0.7335,,151.1214,151.1215,,0,32,32,167,1,168,adalet,1611,73.1975,1388,0.1517,6,notharmonic,1.65,word,m,,,,,,,
,,,,,,,,,,,,001,2023-11-09_11h32.23.369,vowel_harmony,2023.2.3,Win32,59.96641881,151.122,152.1201,,,,,,,,,,,,,,,,,,,,,,,,,,152.1202,152.87,z,1,0.7337,,152.8701,152.8702,,0,33,33,355,1,356,adül,,,,,4,notharmonic,1.85,nw,z,,,,,,,
,,,,,,,,,,,,001,2023-11-09_11h32.23.369,vowel_harmony,2023.2.3,Win32,59.96641881,152.871,153.8682,,,,,,,,,,,,,,,,,,,,,,,,,,153.8683,155.1178,z,1,1.2335,,155.1178,155.118,,0,34,34,351,1,352,seğlık,,,,,6,notharmonic,1.9,nw,z,,,,,,,
,,,,,,,,,,,,001,2023-11-09_11h32.23.369,vowel_harmony,2023.2.3,Win32,59.96641881,155.1186,156.1163,,,,,,,,,,,,,,,,,,,,,,,,,,156.1164,156.6322,m,1,0.5001,,156.6322,156.6324,,0,35,35,155,1,156,ilaç,1366,62.0656,1215,0.1328,4,notharmonic,1.75,word,m,,,,,,,
,,,,,,,,,,,,001,2023-11-09_11h32.23.369,vowel_harmony,2023.2.3,Win32,59.96641881,156.6329,157.6313,,,,,,,,,,,,,,,,,,,,,,,,,,157.6314,158.6473,z,1,0.9999,,158.6473,158.6475,,0,36,36,358,1,359,yangin,,,,,6,notharmonic,1.9,nw,z,,,,,,,
,,,,,,,,,,,,001,2023-11-09_11h32.23.369,vowel_harmony,2023.2.3,Win32,59.96641881,158.6481,159.6459,,,,,,,,,,,,,,,,,,,,,,,,,,159.6459,160.3445,m,1,0.6829,,160.3445,160.3445,,0,37,37,88,1,89,yalnız,5891,267.6637,5440,0.5947,6,harmonic,1.6,word,m,,,,,,,
,,,,,,,,,,,,001,2023-11-09_11h32.23.369,vowel_harmony,2023.2.3,Win32,59.96641881,160.3448,161.343,,,,,,,,,,,,,,,,,,,,,,,,,,161.343,162.1606,z,1,0.8008,,162.1607,162.1608,,0,38,38,348,1,349,aife,,,,,4,notharmonic,1.75,nw,z,,,,,,,
,,,,,,,,,,,,001,2023-11-09_11h32.23.369,vowel_harmony,2023.2.3,Win32,59.96641881,162.1613,163.1554,,,,,,,,,,,,,,,,,,,,,,,,,,163.1556,163.6216,m,1,0.4414,,163.6217,163.622,,0,39,39,14,1,15,yaşam,4348,197.5559,3918,0.4283,5,harmonic,1.4,word,m,,,,,,,
,,,,,,,,,,,,001,2023-11-09_11h32.23.369,vowel_harmony,2023.2.3,Win32,59.96641881,163.6226,164.6207,,,,,,,,,,,,,,,,,,,,,,,,,,164.6208,165.2531,m,1,0.6069,,165.2533,165.2534,,0,40,40,87,1,88,mümkün,6604,300.0596,6264,0.6848,6,harmonic,1.9,word,m,,,,,,,
,,,,,,,,,,,,001,2023-11-09_11h32.23.369,vowel_harmony,2023.2.3,Win32,59.96641881,165.2539,166.2521,,,,,,,,,,,,,,,,,,,,,,,,,,166.2524,166.9016,m,1,0.6204,,166.902,166.9022,,0,41,41,124,1,125,ilan,1579,71.7435,1499,0.1639,4,notharmonic,1,word,m,,,,,,,
,,,,,,,,,,,,001,2023-11-09_11h32.23.369,vowel_harmony,2023.2.3,Win32,59.96641881,166.9031,167.9045,,,,,,,,,,,,,,,,,,,,,,,,,,167.9046,169.4543,m,1,1.5334,,169.4544,169.4546,,0,42,42,126,1,127,adet,4367,198.4192,3768,0.4119,4,notharmonic,1.4,word,m,,,,,,,
,,,,,,,,,,,,001,2023-11-09_11h32.23.369,vowel_harmony,2023.2.3,Win32,59.96641881,169.4553,170.4483,,,,,,,,,,,,,,,,,,,,,,,,,,170.4484,171.2461,z,1,0.772,,171.2462,171.2465,,0,43,43,287,1,288,haköm,,,,,5,notharmonic,1.9,nw,z,,,,,,,
,,,,,,,,,,,,001,2023-11-09_11h32.23.369,vowel_harmony,2023.2.3,Win32,59.96641881,171.2482,172.2459,,,,,,,,,,,,,,,,,,,,,,,,,,172.2461,173.3628,z,1,1.0858,,173.3628,173.363,,0,44,44,243,1,244,korguf,,,,,6,harmonic,2,nw,z,,,,,,,
,,,,,,,,,,,,001,2023-11-09_11h32.23.369,vowel_harmony,2023.2.3,Win32,59.96641881,173.3639,174.3613,,,,,,,,,,,,,,,,,,,,,,,,,,174.3614,174.8923,m,1,0.5011,,174.8923,174.8924,,0,45,45,29,1,30,huzur,1911,86.8283,1799,0.1967,5,harmonic,1.8,word,m,,,,,,,
,,,,,,,,,,,,001,2023-11-09_11h32.23.369,vowel_harmony,2023.2.3,Win32,59.96641881,174.8929,175.8962,,,,,,,,,,,,,,,,,,,,,,,,,,175.8962,176.4074,m,1,0.4865,,176.4075,176.4075,,0,46,46,128,1,129,tatil,2152,97.7783,1865,0.2039,5,notharmonic,1.7,word,m,,,,,,,
,,,,,,,,,,,,001,2023-11-09_11h32.23.369,vowel_harmony,2023.2.3,Win32,59.96641881,176.4078,177.4066,,,,,,,,,,,,,,,,,,,,,,,,,,177.4066,177.9724,m,1,0.5403,,177.9724,177.9725,,0,47,47,70,1,71,yarın,3440,156.3,3222,0.3522,5,harmonic,1.85,word,m,,,,,,,
,,,,,,,,,,,,001,2023-11-09_11h32.23.369,vowel_harmony,2023.2.3,Win32,59.96641881,177.9726,178.9715,,,,,,,,,,,,,,,,,,,,,,,,,,178.9715,179.7541,z,1,0.7502,,179.7541,179.7541,,0,48,48,230,1,231,bikir,,,,,5,harmonic,1.75,nw,z,,,,,,,
,,,,,,,,,,,,001,2023-11-09_11h32.23.369,vowel_harmony,2023.2.3,Win32,59.96641881,179.7543,180.7546,,,,,,,,,,,,,,,,,,,,,,,,,,180.7548,181.2863,m,1,0.51,,181.2863,181.2865,,0,49,49,53,1,54,gelir,7578,344.3143,7014,0.7668,5,harmonic,1.4,word,m,,,,,,,
,,,,,,,,,,,,001,2023-11-09_11h32.23.369,vowel_harmony,2023.2.3,Win32,59.96641881,181.2872,182.2851,,,,,,,,,,,,,,,,,,,,,,,,,,182.2852,182.819,m,1,0.5032,,182.8191,182.8193,,0,50,50,177,1,178,tekrar,10788,490.1639,9352,1.0224,6,notharmonic,1.85,word,m,,,,,,,
,,,,,,,,,,,,001,2023-11-09_11h32.23.369,vowel_harmony,2023.2.3,Win32,59.96641881,182.8201,183.817,,,,,,,,,,,,,,,,,,,,,,,,,,183.817,184.3179,m,1,0.4751,,184.318,184.3183,,0,51,51,54,1,55,yedek,825,37.4847,732,0.08,5,harmonic,1.65,word,m,,,,,,,
,,,,,,,,,,,,001,2023-11-09_11h32.23.369,vowel_harmony,2023.2.3,Win32,59.96641881,184.3192,185.3171,,,,,,,,,,,,,,,,,,,,,,,,,,185.3171,185.9659,z,1,0.6278,,185.9661,185.9664,,0,52,52,236,1,237,toklam,,,,,6,harmonic,1.85,nw,z,,,,,,,
,,,,,,,,,,,,001,2023-11-09_11h32.23.369,vowel_harmony,2023.2.3,Win32,59.96641881,185.967,186.964,,,,,,,,,,,,,,,,,,,,,,,,,,186.9641,187.5644,z,1,0.5702,,187.5645,187.5647,,0,53,53,207,1,208,örtre,,,,,5,harmonic,1.85,nw,z,,,,,,,
,,,,,,,,,,,,001,2023-11-09_11h32.23.369,vowel_harmony,2023.2.3,Win32,59.96641881,187.5656,188.5632,,,,,,,,,,,,,,,,,,,,,,,,,,188.5633,189.3113,m,1,0.7211,,189.3113,189.3114,,0,54,54,49,1,50,şeker,4708,213.9128,4170,0.4559,5,harmonic,1.6,word,m,,,,,,,
,,,,,,,,,,,,001,2023-11-09_11h32.23.369,vowel_harmony,2023.2.3,Win32,59.96641881,189.3115,190.3145,,,,,,,,,,,,,,,,,,,,,,,,,,190.3146,190.9278,z,1,0.5863,,190.9279,190.9281,,0,55,55,311,1,312,dedya,,,,,5,notharmonic,1.9,nw,z,,,,,,,
,,,,,,,,,,,,001,2023-11-09_11h32.23.369,vowel_harmony,2023.2.3,Win32,59.96641881,190.9288,191.9257,,,,,,,,,,,,,,,,,,,,,,,,,,191.9257,192.6751,z,1,0.7188,,192.6751,192.6753,,0,56,56,198,1,199,yarbız,,,,,6,harmonic,1.95,nw,z,,,,,,,
,,,,,,,,,,,,001,2023-11-09_11h32.23.369,vowel_harmony,2023.2.3,Win32,59.96641881,192.6761,193.674,,,,,,,,,,,,,,,,,,,,,,,,,,193.674,194.1427,m,1,0.4447,,194.1428,194.143,,0,57,57,161,1,162,komik,1617,73.4701,1506,0.1646,5,notharmonic,1.75,word,m,,,,,,,
,,,,,,,,,,,,001,2023-11-09_11h32.23.369,vowel_harmony,2023.2.3,Win32,59.96641881,194.1438,195.1405,,,,,,,,,,,,,,,,,,,,,,,,,,195.1407,195.8051,z,1,0.6375,,195.8051,195.8052,,0,58,58,314,1,315,seral,,,,,5,notharmonic,1.7,nw,z,,,,,,,
,,,,,,,,,,,,001,2023-11-09_11h32.23.369,vowel_harmony,2023.2.3,Win32,59.96641881,195.8061,196.8057,,,,,,,,,,,,,,,,,,,,,,,,,,196.8058,197.4715,z,1,0.6361,,197.4717,197.4719,,0,59,59,189,1,190,düvre,,,,,5,harmonic,1.85,nw,z,,,,,,,
,,,,,,,,,,,,001,2023-11-09_11h32.23.369,vowel_harmony,2023.2.3,Win32,59.96641881,197.4727,198.4711,,,,,,,,,,,,,,,,,,,,,,,,,,198.4712,199.0021,m,1,0.5034,,199.0023,199.0026,,0,60,60,72,1,73,çorba,1674,76.0599,1513,0.1654,5,harmonic,1.75,word,m,,,,,,,
,,,,,,,,,,,,001,2023-11-09_11h32.23.369,vowel_harmony,2023.2.3,Win32,59.96641881,199.0039,200.0025,,,,,,,,,,,,,,,,,,,,,,,,,,200.0026,200.9016,m,1,0.8722,,200.9018,200.9021,,0,61,61,66,1,67,sanık,768,34.8949,699,0.0764,5,harmonic,1.85,word,m,,,,,,,
,,,,,,,,,,,,001,2023-11-09_11h32.23.369,vowel_harmony,2023.2.3,Win32,59.96641881,200.9029,201.901,,,,,,,,,,,,,,,,,,,,,,,,,,201.9011,202.8501,z,1,0.9223,,202.8501,202.8503,,0,62,62,280,1,281,adalek,,,,,6,notharmonic,1.85,nw,z,,,,,,,
,,,,,,,,,,,,001,2023-11-09_11h32.23.369,vowel_harmony,2023.2.3,Win32,59.96641881,202.8507,203.8489,,,,,,,,,,,,,,,,,,,,,,,,,,203.8491,204.48,m,1,0.6098,,204.48,204.48,,0,63,63,62,1,63,cümle,1911,86.8283,1765,0.193,5,harmonic,1.85,word,m,,,,,,,
,,,,,,,,,,,,001,2023-11-09_11h32.23.369,vowel_harmony,2023.2.3,Win32,59.96641881,204.4805,205.479,,,,,,,,,,,,,,,,,,,,,,,,,,205.479,206.0463,m,1,0.5354,,206.0464,206.0466,,0,64,64,93,1,94,siyah,2944,133.7637,2527,0.2763,5,notharmonic,1.6,word,m,,,,,,,
,,,,,,,,,,,,001,2023-11-09_11h32.23.369,vowel_harmony,2023.2.3,Win32,59.96641881,206.0474,207.0456,,,,,,,,,,,,,,,,,,,,,,,,,,207.0458,207.7108,m,1,0.6341,,207.711,207.7111,,0,65,65,2,1,3,radyo,763,34.6677,636,0.0695,5,harmonic,1.85,word,m,,,,,,,
,,,,,,,,,,,,001,2023-11-09_11h32.23.369,vowel_harmony,2023.2.3,Win32,59.96641881,207.712,208.7092,,,,,,,,,,,,,,,,,,,,,,,,,,208.7092,209.5269,z,1,0.7893,,209.527,209.5272,,0,66,66,289,1,290,karmen,,,,,6,notharmonic,1.75,nw,z,,,,,,,
,,,,,,,,,,,,001,2023-11-09_11h32.23.369,vowel_harmony,2023.2.3,Win32,59.96641881,209.528,210.5259,,,,,,,,,,,,,,,,,,,,,,,,,,210.526,211.0239,m,1,0.4671,,211.024,211.0242,,0,67,67,56,1,57,sağlam,1818,82.6027,1720,0.188,6,harmonic,1.6,word,m,,,,,,,
,,,,,,,,,,,,001,2023-11-09_11h32.23.369,vowel_harmony,2023.2.3,Win32,59.96641881,211.0252,212.0227,,,,,,,,,,,,,,,,,,,,,,,,,,212.0229,212.5731,m,1,0.5214,,212.5733,212.5735,,0,68,68,165,1,166,gazete,1402,63.7013,1270,0.1388,6,notharmonic,1.8,word,m,,,,,,,
,,,,,,,,,,,,001,2023-11-09_11h32.23.369,vowel_harmony,2023.2.3,Win32,59.96641881,212.5743,213.5713,,,,,,,,,,,,,,,,,,,,,,,,,,213.5714,214.7209,z,1,1.0973,,214.721,214.721,,0,69,69,312,1,313,şahmin,,,,,6,notharmonic,1.8,nw,z,,,,,,,
,,,,,,,,,,,,001,2023-11-09_11h32.23.369,vowel_harmony,2023.2.3,Win32,59.96641881,214.7217,215.7192,,,,,,,,,,,,,,,,,,,,,,,,,,215.7192,216.3194,m,1,0.578,,216.3196,216.3198,,0,70,70,164,1,165,sinema,1575,71.5618,1304,0.1426,6,notharmonic,1.8,word,m,,,,,,,
,,,,,,,,,,,,001,2023-11-09_11h32.23.369,vowel_harmony,2023.2.3,Win32,59.96641881,216.3209,217.3192,,,,,,,,,,,,,,,,,,,,,,,,,,217.3192,218.0852,z,1,0.7392,,218.0853,218.0854,,0,71,71,233,1,234,devpi,,,,,5,harmonic,1.8,nw,z,,,,,,,
,,,,,,,,,,,,001,2023-11-09_11h32.23.369,vowel_harmony,2023.2.3,Win32,59.96641881,218.0861,219.0837,,,,,,,,,,,,,,,,,,,,,,,,,,219.0838,219.4831,m,1,0.3692,,219.4832,219.4833,,0,72,72,169,1,170,hikaye,1555,70.653,1405,0.1536,6,notharmonic,1.8,word,m,,,,,,,
,,,,,,,,,,,,001,2023-11-09_11h32.23.369,vowel_harmony,2023.2.3,Win32,59.96641881,219.4842,220.4851,,,,,,,,,,,,,,,,,,,,,,,,,,220.4851,221.1806,z,1,0.6674,,221.1806,221.1807,,0,73,73,292,1,293,kinam,,,,,5,notharmonic,1.85,nw,z,,,,,,,
,,,,,,,,,,,,001,2023-11-09_11h32.23.369,vowel_harmony,2023.2.3,Win32,59.96641881,221.1812,222.181,,,,,,,,,,,,,,,,,,,,,,,,,,222.1811,223.4458,z,1,1.2197,,223.4458,223.4461,,0,74,74,354,1,355,taden,,,,,5,notharmonic,1.7,nw,z,,,,,,,
,,,,,,,,,,,,001,2023-11-09_11h32.23.369,vowel_harmony,2023.2.3,Win32,59.96641881,223.447,224.4447,,,,,,,,,,,,,,,,,,,,,,,,,,224.4447,225.0273,m,1,0.562,,225.0273,225.0274,,0,75,75,10,1,11,bardak,1728,78.5135,1569,0.1715,6,harmonic,1.6,word,m,,,,,,,
,,,,,,,,,,,,001,2023-11-09_11h32.23.369,vowel_harmony,2023.2.3,Win32,59.96641881,225.0281,226.0266,,,,,,,,,,,,,,,,,,,,,,,,,,226.0266,226.7093,m,1,0.6702,,226.7094,226.7096,,0,76,76,113,1,114,model,1200,54.5232,1082,0.1183,5,notharmonic,1.75,word,m,,,,,,,
,,,,,,,,,,,,001,2023-11-09_11h32.23.369,vowel_harmony,2023.2.3,Win32,59.96641881,226.7101,227.7074,,,,,,,,,,,,,,,,,,,,,,,,,,227.7074,228.8405,z,1,1.1171,,228.8406,228.8407,,0,77,77,275,1,276,tahçe,,,,,5,notharmonic,1.95,nw,z,,,,,,,
,,,,,,,,,,,,001,2023-11-09_11h32.23.369,vowel_harmony,2023.2.3,Win32,59.96641881,228.8413,229.8387,,,,,,,,,,,,,,,,,,,,,,,,,,229.8387,230.4215,m,1,0.5742,,230.4216,230.4216,,0,78,78,144,1,145,garip,2567,116.6343,2355,0.2574,5,notharmonic,1.65,word,m,,,,,,,
,,,,,,,,,,,,001,2023-11-09_11h32.23.369,vowel_harmony,2023.2.3,Win32,59.96641881,230.4221,231.42,,,,,,,,,,,,,,,,,,,,,,,,,,231.42,232.3027,z,1,0.8639,,232.3027,232.3027,,0,79,79,253,1,254,meslet,,,,,6,harmonic,1.85,nw,z,,,,,,,
,,,,,,,,,,,,001,2023-11-09_11h32.23.369,vowel_harmony,2023.2.3,Win32,59.96641881,232.3032,233.3016,,,,,,,,,,,,,,,,,,,,,,,,,,233.3016,234.0845,z,1,0.7633,,234.0845,234.0846,,0,80,80,278,1,279,sekon,,,,,5,notharmonic,1.85,nw,z,,,,,,,
,,,,,,,,,,,,001,2023-11-09_11h32.23.369,vowel_harmony,2023.2.3,Win32,59.96641881,234.0847,235.0834,,,,,,,,,,,,,,,,,,,,,,,,,,235.0834,236.2492,z,1,1.1533,,236.2492,236.2494,,0,81,81,338,1,339,pardön,,,,,6,notharmonic,1.95,nw,z,,,,,,,
,,,,,,,,,,,,001,2023-11-09_11h32.23.369,vowel_harmony,2023.2.3,Win32,59.96641881,236.2499,237.2481,,,,,,,,,,,,,,,,,,,,,,,,,,237.2482,237.9817,z,1,0.7163,,237.9817,237.9818,,0,82,82,187,1,188,remrin,,,,,6,harmonic,1.9,nw,z,,,,,,,
,,,,,,,,,,,,001,2023-11-09_11h32.23.369,vowel_harmony,2023.2.3,Win32,59.96641881,237.9823,238.9799,,,,,,,,,,,,,,,,,,,,,,,,,,238.9799,239.4463,m,1,0.4454,,239.4463,239.4465,,0,83,83,91,1,92,ifade,6177,280.6584,5726,0.626,5,notharmonic,1.7,word,m,,,,,,,
,,,,,,,,,,,,001,2023-11-09_11h32.23.369,vowel_harmony,2023.2.3,Win32,59.96641881,239.447,240.4448,,,,,,,,,,,,,,,,,,,,,,,,,,240.4448,241.3448,z,1,0.8837,,241.3449,241.345,,0,84,84,221,1,222,yaypın,,,,,6,harmonic,1.75,nw,z,,,,,,,
,,,,,,,,,,,,001,2023-11-09_11h32.23.369,vowel_harmony,2023.2.3,Win32,59.96641881,241.3458,242.348,,,,,,,,,,,,,,,,,,,,,,,,,,242.3481,242.8923,m,1,0.5221,,242.8924,242.8924,,0,85,85,133,1,134,taze,2268,103.0489,2062,0.2254,4,notharmonic,1.65,word,m,,,,,,,
,,,,,,,,,,,,001,2023-11-09_11h32.23.369,vowel_harmony,2023.2.3,Win32,59.96641881,242.8932,243.8928,,,,,,,,,,,,,,,,,,,,,,,,,,243.8928,244.5755,m,1,0.6537,,244.5758,244.5759,,0,86,86,41,1,42,zengin,2193,99.6412,2015,0.2203,6,harmonic,1.65,word,m,,,,,,,
,,,,,,,,,,,,001,2023-11-09_11h32.23.369,vowel_harmony,2023.2.3,Win32,59.96641881,244.5764,245.5745,,,,,,,,,,,,,,,,,,,,,,,,,,245.5747,246.2905,z,1,0.6872,,246.2907,246.2909,,0,87,87,300,1,301,nilgi,,,,,5,notharmonic,1.85,nw,z,,,,,,,
,,,,,,,,,,,,001,2023-11-09_11h32.23.369,vowel_harmony,2023.2.3,Win32,59.96641881,246.2917,247.2897,,,,,,,,,,,,,,,,,,,,,,,,,,247.2898,247.8874,m,1,0.5772,,247.8874,247.8874,,0,88,88,58,1,59,ayak,2143,97.3694,1931,0.2111,4,harmonic,1,word,m,,,,,,,
,,,,,,,,,,,,001,2023-11-09_11h32.23.369,vowel_harmony,2023.2.3,Win32,59.96641881,247.8876,248.8877,,,,,,,,,,,,,,,,,,,,,,,,,,248.8878,249.4209,m,1,0.5048,,249.4211,249.4212,,0,89,89,8,1,9,güven,1433,65.1098,1300,0.1421,5,harmonic,1.35,word,m,,,,,,,
,,,,,,,,,,,,001,2023-11-09_11h32.23.369,vowel_harmony,2023.2.3,Win32,59.96641881,249.4221,250.4199,,,,,,,,,,,,,,,,,,,,,,,,,,250.42,251.1179,z,1,0.672,,251.1179,251.1179,,0,90,90,266,1,267,düştön,,,,,6,harmonic,1.9,nw,z,,,,,,,
,,,,,,,,,,,,001,2023-11-09_11h32.23.369,vowel_harmony,2023.2.3,Win32,59.96641881,251.1184,252.1165,,,,,,,,,,,,,,,,,,,,,,,,,,252.1165,252.834,z,1,0.688,,252.8341,252.8344,,0,91,91,296,1,297,işban,,,,,5,notharmonic,1.95,nw,z,,,,,,,
,,,,,,,,,,,,001,2023-11-09_11h32.23.369,vowel_harmony,2023.2.3,Win32,59.96641881,252.835,253.8327,,,,,,,,,,,,,,,,,,,,,,,,,,253.8327,254.7328,z,1,0.8461,,254.7328,254.7329,,0,92,92,202,1,203,güvin,,,,,5,harmonic,1.95,nw,z,,,,,,,
,,,,,,,,,,,,001,2023-11-09_11h32.23.369,vowel_harmony,2023.2.3,Win32,59.96641881,254.7339,255.7315,,,,,,,,,,,,,,,,,,,,,,,,,,255.7315,256.4459,m,1,0.6838,,256.4459,256.4459,,0,93,93,46,1,47,takım,4370,198.5555,3726,0.4073,5,harmonic,1.7,word,m,,,,,,,
,,,,,,,,,,,,001,2023-11-09_11h32.23.369,vowel_harmony,2023.2.3,Win32,59.96641881,256.4461,257.4449,,,,,,,,,,,,,,,,,,,,,,,,,,257.4449,258.1792,z,1,0.707,,258.1793,258.1794,,0,94,94,270,1,271,miyaj,,,,,5,notharmonic,1.9,nw,z,,,,,,,
,,,,,,,,,,,,001,2023-11-09_11h32.23.369,vowel_harmony,2023.2.3,Win32,59.96641881,258.1801,259.1767,,,,,,,,,,,,,,,,,,,,,,,,,,259.1768,259.9428,z,1,0.7432,,259.943,259.9431,,0,95,95,329,1,330,taif,,,,,4,notharmonic,1.8,nw,z,,,,,,,
,,,,,,,,,,,,001,2023-11-09_11h32.23.369,vowel_harmony,2023.2.3,Win32,59.96641881,259.9441,260.9432,,,,,,,,,,,,,,,,,,,,,,,,,,260.9433,261.5421,m,1,0.5727,,261.5424,261.5427,,0,96,96,55,1,56,akıl,2208,100.3228,2004,0.2191,4,harmonic,1,word,m,,,,,,,
,,,,,,,,,,,,001,2023-11-09_11h32.23.369,vowel_harmony,2023.2.3,Win32,59.96641881,261.5437,262.5418,,,,,,,,,,,,,,,,,,,,,,,,,,262.5418,263.1576,m,1,0.5889,,263.1577,263.1578,,0,97,97,135,1,136,hafif,3355,152.4379,3101,0.339,5,notharmonic,1.75,word,m,,,,,,,
,,,,,,,,,,,,001,2023-11-09_11h32.23.369,vowel_harmony,2023.2.3,Win32,59.96641881,263.1583,264.1562,,,,,,,,,,,,,,,,,,,,,,,,,,264.1563,264.7394,m,1,0.5586,,264.7395,264.7397,,0,98,98,92,1,93,sahne,1380,62.7017,1238,0.1353,5,notharmonic,1.65,word,m,,,,,,,
,,,,,,,,,,,,001,2023-11-09_11h32.23.369,vowel_harmony,2023.2.3,Win32,59.96641881,264.7405,265.7382,,,,,,,,,,,,,,,,,,,,,,,,,,265.7384,266.4533,z,1,0.6883,,266.4534,266.4537,,0,99,99,249,1,250,hurıt,,,,,5,harmonic,1.95,nw,z,,,,,,,
,,,,,,,,,,,,001,2023-11-09_11h32.23.369,vowel_harmony,2023.2.3,Win32,59.96641881,266.4548,267.4556,,,,,,,,,,,,,,,,,,,,,,,,,,267.4557,268.0522,m,1,0.5747,,268.0523,268.0526,,0,100,100,129,1,130,tahmin,2353,106.911,2273,0.2485,6,notharmonic,1.6,word,m,,,,,,,
,,,,,,,,,,,,001,2023-11-09_11h32.23.369,vowel_harmony,2023.2.3,Win32,59.96641881,268.0533,269.0503,,,,,,,,,,,,,,,,,,,,,,,,,,269.0503,269.6661,m,1,0.5915,,269.6661,269.6662,,0,101,101,162,1,163,hariç,1267,57.5675,1233,0.1348,5,notharmonic,1.75,word,m,,,,,,,
,,,,,,,,,,,,001,2023-11-09_11h32.23.369,vowel_harmony,2023.2.3,Win32,59.96641881,269.667,270.6652,,,,,,,,,,,,,,,,,,,,,,,,,,270.6652,271.1872,m,1,0.5007,,271.1872,271.1873,,0,102,102,115,1,116,saniye,1088,49.4344,984,0.1076,6,notharmonic,1.35,word,m,,,,,,,
,,,,,,,,,,,,001,2023-11-09_11h32.23.369,vowel_harmony,2023.2.3,Win32,59.96641881,271.1879,272.1817,,,,,,,,,,,,,,,,,,,,,,,,,,272.1819,272.8841,z,1,0.6827,,272.8842,272.8843,,0,103,103,323,1,324,devak,,,,,5,notharmonic,1.75,nw,z,,,,,,,
,,,,,,,,,,,,001,2023-11-09_11h32.23.369,vowel_harmony,2023.2.3,Win32,59.96641881,272.8846,273.8802,,,,,,,,,,,,,,,,,,,,,,,,,,273.8804,274.4461,z,1,0.5391,,274.4462,274.4465,,0,104,104,183,1,184,orkın,,,,,5,harmonic,1.9,nw,z,,,,,,,
,,,,,,,,,,,,001,2023-11-09_11h32.23.369,vowel_harmony,2023.2.3,Win32,59.96641881,274.4473,275.4456,,,,,,,,,,,,,,,,,,,,,,,,,,275.4457,276.1598,m,1,0.684,,276.1598,276.1598,,0,105,105,151,1,152,ateş,2108,95.7792,1803,0.1971,4,notharmonic,1.65,word,m,,,,,,,
,,,,,,,,,,,,001,2023-11-09_11h32.23.369,vowel_harmony,2023.2.3,Win32,59.96641881,276.1605,277.1593,,,,,,,,,,,,,,,,,,,,,,,,,,277.1594,277.7594,z,1,0.5769,,277.7596,277.7598,,0,106,106,251,1,252,oştay,,,,,5,harmonic,1.95,nw,z,,,,,,,
,,,,,,,,,,,,001,2023-11-09_11h32.23.369,vowel_harmony,2023.2.3,Win32,59.96641881,277.761,278.7585,,,,,,,,,,,,,,,,,,,,,,,,,,278.7586,279.3064,m,1,0.5172,,279.3064,279.3065,,0,107,107,9,1,10,karar,8108,368.3954,7436,0.8129,5,harmonic,1.6,word,m,,,,,,,
,,,,,,,,,,,,001,2023-11-09_11h32.23.369,vowel_harmony,2023.2.3,Win32,59.96641881,279.307,280.3075,,,,,,,,,,,,,,,,,,,,,,,,,,280.3075,280.8901,m,1,0.5555,,280.8902,280.8905,,0,108,108,12,1,13,konu,5400,245.3546,5110,0.5586,4,harmonic,1,word,m,,,,,,,
,,,,,,,,,,,,001,2023-11-09_11h32.23.369,vowel_harmony,2023.2.3,Win32,59.96641881,280.8915,281.8893,,,,,,,,,,,,,,,,,,,,,,,,,,281.8894,282.5536,m,1,0.6441,,282.5538,282.554,,0,109,109,69,1,70,forma,719,32.6685,597,0.0653,5,harmonic,1.8,word,m,,,,,,,
,,,,,,,,,,,,001,2023-11-09_11h32.23.369,vowel_harmony,2023.2.3,Win32,59.96641881,282.555,283.5528,,,,,,,,,,,,,,,,,,,,,,,,,,283.5529,284.2859,z,1,0.7029,,284.2859,284.2862,,0,110,110,208,1,209,yayram,,,,,6,harmonic,1.85,nw,z,,,,,,,
,,,,,,,,,,,,001,2023-11-09_11h32.23.369,vowel_harmony,2023.2.3,Win32,59.96641881,284.2872,285.2858,,,,,,,,,,,,,,,,,,,,,,,,,,285.286,286.034,m,1,0.722,,286.0342,286.0343,,0,111,111,146,1,147,mavi,2206,100.2319,1934,0.2114,4,notharmonic,1.45,word,m,,,,,,,
,,,,,,,,,,,,001,2023-11-09_11h32.23.369,vowel_harmony,2023.2.3,Win32,59.96641881,286.0353,287.0336,,,,,,,,,,,,,,,,,,,,,,,,,,287.0337,287.4825,m,1,0.4203,,287.4827,287.4829,,0,112,112,86,1,87,gerçek,8983,408.1519,8058,0.8809,6,harmonic,1.7,word,m,,,,,,,
,,,,,,,,,,,,001,2023-11-09_11h32.23.369,vowel_harmony,2023.2.3,Win32,59.96641881,287.4839,288.4819,,,,,,,,,,,,,,,,,,,,,,,,,,288.482,289.2814,z,1,0.776,,289.2815,289.2818,,0,113,113,254,1,255,millek,,,,,6,harmonic,1.8,nw,z,,,,,,,
,,,,,,,,,,,,001,2023-11-09_11h32.23.369,vowel_harmony,2023.2.3,Win32,59.96641881,289.2827,290.2799,,,,,,,,,,,,,,,,,,,,,,,,,,290.28,290.7305,m,1,0.4232,,290.7306,290.7309,,0,114,114,143,1,144,kitap,8359,379.7998,6786,0.7418,5,notharmonic,1.9,word,m,,,,,,,
,,,,,,,,,,,,001,2023-11-09_11h32.23.369,vowel_harmony,2023.2.3,Win32,59.96641881,290.7315,291.7288,,,,,,,,,,,,,,,,,,,,,,,,,,291.7289,292.7281,m,1,0.9716,,292.7284,292.7286,,0,115,115,160,1,161,hakem,603,27.3979,473,0.0517,5,notharmonic,1.3,word,m,,,,,,,
,,,,,,,,,,,,001,2023-11-09_11h32.23.369,vowel_harmony,2023.2.3,Win32,59.96641881,292.7293,293.7275,,,,,,,,,,,,,,,,,,,,,,,,,,293.7277,294.4919,m,1,0.7446,,294.4919,294.4919,,0,116,116,5,1,6,bebek,3301,149.9843,2794,0.3054,5,harmonic,1.6,word,m,,,,,,,
,,,,,,,,,,,,001,2023-11-09_11h32.23.369,vowel_harmony,2023.2.3,Win32,59.96641881,294.493,295.491,,,,,,,,,,,,,,,,,,,,,,,,,,295.491,296.0582,m,1,0.537,,296.0584,296.0587,,0,117,117,116,1,117,daire,621,28.2158,503,0.055,5,notharmonic,1,word,m,,,,,,,
,,,,,,,,,,,,001,2023-11-09_11h32.23.369,vowel_harmony,2023.2.3,Win32,59.96641881,296.0592,297.0573,,,,,,,,,,,,,,,,,,,,,,,,,,297.0574,297.6387,z,1,0.5526,,297.6388,297.6388,,0,118,118,246,1,247,orkın,,,,,5,harmonic,1.9,nw,z,,,,,,,
,,,,,,,,,,,,001,2023-11-09_11h32.23.369,vowel_harmony,2023.2.3,Win32,59.96641881,297.6393,298.6377,,,,,,,,,,,,,,,,,,,,,,,,,,298.6378,299.2716,m,1,0.6051,,299.2717,299.2721,,0,119,119,34,1,35,hoca,1893,86.0104,1526,0.1668,4,harmonic,1.45,word,m,,,,,,,
,,,,,,,,,,,,001,2023-11-09_11h32.23.369,vowel_harmony,2023.2.3,Win32,59.96641881,299.2727,300.2744,,,,,,,,,,,,,,,,,,,,,,,,,,300.2744,301.1699,z,1,0.8709,,301.17,319.0187,space,0,120,120,277,1,278,balsin,,,,,6,notharmonic,1.85,nw,z,17.8265,,,,,,
,,,,,,,,,,,,001,2023-11-09_11h32.23.369,vowel_harmony,2023.2.3,Win32,59.96641881,319.0369,320.0335,,,,,,,,,,,,,,,,,,,,,,,,,,320.0335,320.5845,m,1,0.525,,320.5847,320.5848,,0,121,121,150,1,151,sabit,1046,47.5261,915,0.1,5,notharmonic,1.75,word,m,,,,,,,
,,,,,,,,,,,,001,2023-11-09_11h32.23.369,vowel_harmony,2023.2.3,Win32,59.96641881,320.5854,321.5877,,,,,,,,,,,,,,,,,,,,,,,,,,321.5877,322.3152,z,1,0.7072,,322.3154,322.3156,,0,122,122,272,1,273,daken,,,,,5,notharmonic,1.8,nw,z,,,,,,,
,,,,,,,,,,,,001,2023-11-09_11h32.23.369,vowel_harmony,2023.2.3,Win32,59.96641881,322.3165,323.3136,,,,,,,,,,,,,,,,,,,,,,,,,,323.3136,324.2634,z,1,0.9232,,324.2637,324.2641,,0,123,123,359,1,360,kardez,,,,,6,notharmonic,1.95,nw,z,,,,,,,
,,,,,,,,,,,,001,2023-11-09_11h32.23.369,vowel_harmony,2023.2.3,Win32,59.96641881,324.2652,325.2673,,,,,,,,,,,,,,,,,,,,,,,,,,325.2673,325.7458,m,1,0.4607,,325.7459,325.7462,,0,124,124,31,1,32,fazla,18293,831.1614,16694,1.825,5,harmonic,1,word,m,,,,,,,
,,,,,,,,,,,,001,2023-11-09_11h32.23.369,vowel_harmony,2023.2.3,Win32,59.96641881,325.7471,326.7452,,,,,,,,,,,,,,,,,,,,,,,,,,326.7454,327.2281,z,1,0.4547,,327.2283,327.2285,,0,125,125,192,1,193,vecö,,,,,4,harmonic,1.95,nw,z,,,,,,,
,,,,,,,,,,,,001,2023-11-09_11h32.23.369,vowel_harmony,2023.2.3,Win32,59.96641881,327.2292,328.2272,,,,,,,,,,,,,,,,,,,,,,,,,,328.2273,328.6752,m,1,0.4273,,328.6753,328.6754,,0,126,126,42,1,43,ürün,2268,103.0489,1954,0.2136,4,harmonic,1.1,word,m,,,,,,,
,,,,,,,,,,,,001,2023-11-09_11h32.23.369,vowel_harmony,2023.2.3,Win32,59.96641881,328.6763,329.6739,,,,,,,,,,,,,,,,,,,,,,,,,,329.6739,330.3628,z,1,0.6678,,330.3629,330.363,,0,127,127,216,1,217,çeyret,,,,,6,harmonic,1.9,nw,z,,,,,,,
,,,,,,,,,,,,001,2023-11-09_11h32.23.369,vowel_harmony,2023.2.3,Win32,59.96641881,330.3638,331.3573,,,,,,,,,,,,,,,,,,,,,,,,,,331.3573,331.872,m,1,0.4841,,331.872,331.872,,0,128,128,103,1,104,tane,5623,255.4868,5075,0.5548,4,notharmonic,1.3,word,m,,,,,,,
,,,,,,,,,,,,001,2023-11-09_11h32.23.369,vowel_harmony,2023.2.3,Win32,59.96641881,331.8722,332.8718,,,,,,,,,,,,,,,,,,,,,,,,,,332.8719,333.5554,z,1,0.6626,,333.5555,333.5556,,0,129,129,293,1,294,esnan,,,,,5,notharmonic,1.85,nw,z,,,,,,,
,,,,,,,,,,,,001,2023-11-09_11h32.23.369,vowel_harmony,2023.2.3,Win32,59.96641881,333.5562,334.5536,,,,,,,,,,,,,,,,,,,,,,,,,,334.5537,335.0529,m,0,0.4699,,335.0531,335.0533,,0,130,130,330,1,331,vahçe,,,,,5,notharmonic,1.9,nw,z,,,,,,,
,,,,,,,,,,,,001,2023-11-09_11h32.23.369,vowel_harmony,2023.2.3,Win32,59.96641881,335.0541,336.0528,,,,,,,,,,,,,,,,,,,,,,,,,,336.0528,336.9181,z,1,0.8375,,336.9182,336.9185,,0,131,131,345,1,346,bardeş,,,,,6,notharmonic,1.95,nw,z,,,,,,,
,,,,,,,,,,,,001,2023-11-09_11h32.23.369,vowel_harmony,2023.2.3,Win32,59.96641881,336.9193,337.9178,,,,,,,,,,,,,,,,,,,,,,,,,,337.9178,338.6332,z,1,0.6886,,338.6335,338.6337,,0,132,132,290,1,291,aipa,,,,,4,notharmonic,1.95,nw,z,,,,,,,
,,,,,,,,,,,,001,2023-11-09_11h32.23.369,vowel_harmony,2023.2.3,Win32,59.96641881,338.6344,339.6324,,,,,,,,,,,,,,,,,,,,,,,,,,339.6325,340.231,z,1,0.5776,,340.2311,340.2313,,0,133,133,200,1,201,duşın,,,,,5,harmonic,1.9,nw,z,,,,,,,
,,,,,,,,,,,,001,2023-11-09_11h32.23.369,vowel_harmony,2023.2.3,Win32,59.96641881,340.2326,341.2309,,,,,,,,,,,,,,,,,,,,,,,,,,341.2311,341.8798,z,1,0.6216,,341.8798,341.8802,,0,134,134,195,1,196,netüm,,,,,5,harmonic,1.95,nw,z,,,,,,,
,,,,,,,,,,,,001,2023-11-09_11h32.23.369,vowel_harmony,2023.2.3,Win32,59.96641881,341.8809,342.8791,,,,,,,,,,,,,,,,,,,,,,,,,,342.8793,343.6611,m,1,0.7522,,343.6613,343.6614,,0,135,135,3,1,4,minik,2916,132.4915,2594,0.2836,5,harmonic,1.6,word,m,,,,,,,
,,,,,,,,,,,,001,2023-11-09_11h32.23.369,vowel_harmony,2023.2.3,Win32,59.96641881,343.6624,344.661,,,,,,,,,,,,,,,,,,,,,,,,,,344.661,345.3268,z,1,0.6391,,345.327,345.3273,,0,136,136,341,1,342,işgan,,,,,5,notharmonic,1.95,nw,z,,,,,,,
,,,,,,,,,,,,001,2023-11-09_11h32.23.369,vowel_harmony,2023.2.3,Win32,59.96641881,345.328,346.3259,,,,,,,,,,,,,,,,,,,,,,,,,,346.3259,346.8912,z,1,0.5399,,346.8915,346.8916,,0,137,137,313,1,314,ikas,,,,,4,notharmonic,1.85,nw,z,,,,,,,
,,,,,,,,,,,,001,2023-11-09_11h32.23.369,vowel_harmony,2023.2.3,Win32,59.96641881,346.8924,347.8912,,,,,,,,,,,,,,,,,,,,,,,,,,347.8913,348.5404,m,1,0.6217,,348.5405,348.5407,,0,138,138,65,1,66,fikir,2552,115.9528,2413,0.2638,5,harmonic,1.9,word,m,,,,,,,
,,,,,,,,,,,,001,2023-11-09_11h32.23.369,vowel_harmony,2023.2.3,Win32,59.96641881,348.5413,349.5391,,,,,,,,,,,,,,,,,,,,,,,,,,349.5392,350.1545,z,1,0.5861,,350.1546,350.1548,,0,139,139,206,1,207,bevek,,,,,5,harmonic,1.75,nw,z,,,,,,,
,,,,,,,,,,,,001,2023-11-09_11h32.23.369,vowel_harmony,2023.2.3,Win32,59.96641881,350.1557,351.1529,,,,,,,,,,,,,,,,,,,,,,,,,,351.153,352.2852,z,1,1.1072,,352.2852,352.2855,,0,140,140,310,1,311,yandeş,,,,,6,notharmonic,1.95,nw,z,,,,,,,
,,,,,,,,,,,,001,2023-11-09_11h32.23.369,vowel_harmony,2023.2.3,Win32,59.96641881,352.2868,353.2839,,,,,,,,,,,,,,,,,,,,,,,,,,353.2839,354.15,z,1,0.8373,,354.15,354.15,,0,141,141,261,1,262,kardok,,,,,6,harmonic,1.95,nw,z,,,,,,,
,,,,,,,,,,,,001,2023-11-09_11h32.23.369,vowel_harmony,2023.2.3,Win32,59.96641881,354.1506,355.1504,,,,,,,,,,,,,,,,,,,,,,,,,,355.1506,356.066,m,1,0.8904,,356.0661,356.0664,,0,142,142,19,1,20,ödül,1063,48.2985,926,0.1012,4,harmonic,1.7,word,m,,,,,,,
,,,,,,,,,,,,001,2023-11-09_11h32.23.369,vowel_harmony,2023.2.3,Win32,59.96641881,356.0671,357.0653,,,,,,,,,,,,,,,,,,,,,,,,,,357.0654,357.8189,z,1,0.7339,,357.8189,357.8191,,0,143,143,295,1,296,haylin,,,,,6,notharmonic,1.8,nw,z,,,,,,,
,,,,,,,,,,,,001,2023-11-09_11h32.23.369,vowel_harmony,2023.2.3,Win32,59.96641881,357.8198,358.8175,,,,,,,,,,,,,,,,,,,,,,,,,,358.8176,359.5006,z,1,0.6671,,359.5007,359.5009,,0,144,144,227,1,228,zekö,,,,,4,harmonic,1.9,nw,z,,,,,,,
,,,,,,,,,,,,001,2023-11-09_11h32.23.369,vowel_harmony,2023.2.3,Win32,59.96641881,359.5015,360.4953,,,,,,,,,,,,,,,,,,,,,,,,,,360.4955,361.1616,m,1,0.6387,,361.1618,361.1618,,0,145,145,134,1,135,iptal,793,36.0308,725,0.0793,5,notharmonic,1.35,word,m,,,,,,,
,,,,,,,,,,,,001,2023-11-09_11h32.23.369,vowel_harmony,2023.2.3,Win32,59.96641881,361.1625,362.1602,,,,,,,,,,,,,,,,,,,,,,,,,,362.1604,362.8143,m,1,0.6335,,362.8143,362.8145,,0,146,146,47,1,48,kaza,740,33.6227,679,0.0742,4,harmonic,1.85,word,m,,,,,,,
,,,,,,,,,,,,001,2023-11-09_11h32.23.369,vowel_harmony,2023.2.3,Win32,59.96641881,362.8153,363.8085,,,,,,,,,,,,,,,,,,,,,,,,,,363.8086,365.6452,z,1,1.8164,,365.6452,365.6455,,0,147,147,188,1,189,tonık,,,,,5,harmonic,1.85,nw,z,,,,,,,
,,,,,,,,,,,,001,2023-11-09_11h32.23.369,vowel_harmony,2023.2.3,Win32,59.96641881,365.6632,366.6553,,,,,,,,,,,,,,,,,,,,,,,,,,366.6554,367.4218,z,1,0.7383,,367.422,367.4222,,0,148,148,235,1,236,oşup,,,,,4,harmonic,1.75,nw,z,,,,,,,
,,,,,,,,,,,,001,2023-11-09_11h32.23.369,vowel_harmony,2023.2.3,Win32,59.96641881,367.423,368.4211,,,,,,,,,,,,,,,,,,,,,,,,,,368.4213,369.0202,m,1,0.5785,,369.0204,369.0206,,0,149,149,179,1,180,dakika,5891,267.6637,5207,0.5692,6,notharmonic,1.75,word,m,,,,,,,
,,,,,,,,,,,,001,2023-11-09_11h32.23.369,vowel_harmony,2023.2.3,Win32,59.96641881,369.0211,370.0233,,,,,,,,,,,,,,,,,,,,,,,,,,370.0233,370.6024,m,1,0.5595,,370.6025,370.6026,,0,150,150,57,1,58,bölüm,1910,86.7828,1605,0.1755,5,harmonic,1.45,word,m,,,,,,,
,,,,,,,,,,,,001,2023-11-09_11h32.23.369,vowel_harmony,2023.2.3,Win32,59.96641881,370.6033,371.6013,,,,,,,,,,,,,,,,,,,,,,,,,,371.6014,372.2166,z,1,0.5929,,372.2167,372.2171,,0,151,151,240,1,241,hoga,,,,,4,harmonic,1.75,nw,z,,,,,,,
,,,,,,,,,,,,001,2023-11-09_11h32.23.369,vowel_harmony,2023.2.3,Win32,59.96641881,372.218,373.2153,,,,,,,,,,,,,,,,,,,,,,,,,,373.2154,373.7485,m,1,0.503,,373.7487,373.7489,,0,152,152,36,1,37,meslek,1082,49.1618,976,0.1067,6,harmonic,1.9,word,m,,,,,,,
,,,,,,,,,,,,001,2023-11-09_11h32.23.369,vowel_harmony,2023.2.3,Win32,59.96641881,373.7498,374.7484,,,,,,,,,,,,,,,,,,,,,,,,,,374.7484,375.3305,z,1,0.5617,,375.3307,375.331,,0,153,153,234,1,235,düzöt,,,,,5,harmonic,2.05,nw,z,,,,,,,
,,,,,,,,,,,,001,2023-11-09_11h32.23.369,vowel_harmony,2023.2.3,Win32,59.96641881,375.3317,376.329,,,,,,,,,,,,,,,,,,,,,,,,,,376.3291,376.9126,z,1,0.5543,,376.9128,376.9129,,0,154,154,267,1,268,nokuma,,,,,6,harmonic,1.75,nw,z,,,,,,,
,,,,,,,,,,,,001,2023-11-09_11h32.23.369,vowel_harmony,2023.2.3,Win32,59.96641881,376.9136,377.912,,,,,,,,,,,,,,,,,,,,,,,,,,377.9121,378.7275,m,1,0.7867,,378.7276,378.7279,,0,155,155,153,1,154,inşaat,432,19.6284,376,0.0411,6,notharmonic,1.6,word,m,,,,,,,
,,,,,,,,,,,,001,2023-11-09_11h32.23.369,vowel_harmony,2023.2.3,Win32,59.96641881,378.7288,379.726,,,,,,,,,,,,,,,,,,,,,,,,,,379.726,380.4259,z,1,0.6704,,380.4261,380.4263,,0,156,156,186,1,187,habık,,,,,5,harmonic,1.9,nw,z,,,,,,,
,,,,,,,,,,,,001,2023-11-09_11h32.23.369,vowel_harmony,2023.2.3,Win32,59.96641881,380.427,381.4237,,,,,,,,,,,,,,,,,,,,,,,,,,381.4238,382.0572,m,1,0.6105,,382.0573,382.0576,,0,157,157,16,1,17,yavaş,5087,231.1331,2886,0.3155,5,harmonic,1.6,word,m,,,,,,,
,,,,,,,,,,,,001,2023-11-09_11h32.23.369,vowel_harmony,2023.2.3,Win32,59.96641881,382.0584,383.0566,,,,,,,,,,,,,,,,,,,,,,,,,,383.0566,383.656,z,1,0.5765,,383.6561,383.6563,,0,158,158,288,1,289,molit,,,,,5,notharmonic,1.95,nw,z,,,,,,,
,,,,,,,,,,,,001,2023-11-09_11h32.23.369,vowel_harmony,2023.2.3,Win32,59.96641881,383.6571,384.654,,,,,,,,,,,,,,,,,,,,,,,,,,384.6541,385.1864,m,1,0.5014,,385.1865,385.1867,,0,159,159,82,1,83,aday,1028,46.7082,873,0.0954,4,harmonic,1.45,word,m,,,,,,,
,,,,,,,,,,,,001,2023-11-09_11h32.23.369,vowel_harmony,2023.2.3,Win32,59.96641881,385.1881,386.1871,,,,,,,,,,,,,,,,,,,,,,,,,,386.1872,386.9359,z,1,0.7195,,386.936,386.9363,,0,160,160,286,1,287,cedan,,,,,5,notharmonic,1.8,nw,z,,,,,,,
,,,,,,,,,,,,001,2023-11-09_11h32.23.369,vowel_harmony,2023.2.3,Win32,59.96641881,386.937,387.9351,,,,,,,,,,,,,,,,,,,,,,,,,,387.9353,388.6831,m,1,0.7191,,388.6833,388.6835,,0,161,161,156,1,157,medya,1784,81.0579,1495,0.1634,5,notharmonic,1.35,word,m,,,,,,,
,,,,,,,,,,,,001,2023-11-09_11h32.23.369,vowel_harmony,2023.2.3,Win32,59.96641881,388.6845,389.6836,,,,,,,,,,,,,,,,,,,,,,,,,,389.6837,390.7206,z,1,1.0172,,390.7207,390.7209,,0,162,162,213,1,214,kaun,,,,,4,harmonic,1.7,nw,z,,,,,,,
,,,,,,,,,,,,001,2023-11-09_11h32.23.369,vowel_harmony,2023.2.3,Win32,59.96641881,390.7217,391.7148,,,,,,,,,,,,,,,,,,,,,,,,,,391.7149,392.3974,z,1,0.6584,,392.3976,392.3978,,0,163,163,204,1,205,gerkez,,,,,6,harmonic,1.9,nw,z,,,,,,,
,,,,,,,,,,,,001,2023-11-09_11h32.23.369,vowel_harmony,2023.2.3,Win32,59.96641881,392.3984,393.3962,,,,,,,,,,,,,,,,,,,,,,,,,,393.3962,393.8787,m,1,0.4599,,393.8787,393.8789,,0,164,164,44,1,45,kayıt,1234,56.0681,1058,0.1157,5,harmonic,1.35,word,m,,,,,,,
,,,,,,,,,,,,001,2023-11-09_11h32.23.369,vowel_harmony,2023.2.3,Win32,59.96641881,393.8798,394.8782,,,,,,,,,,,,,,,,,,,,,,,,,,394.8784,395.4932,z,1,0.5883,,395.4933,395.4936,,0,165,165,340,1,341,minya,,,,,5,notharmonic,1.95,nw,z,,,,,,,
,,,,,,,,,,,,001,2023-11-09_11h32.23.369,vowel_harmony,2023.2.3,Win32,59.96641881,395.4946,396.4937,,,,,,,,,,,,,,,,,,,,,,,,,,396.4937,396.977,m,1,0.462,,396.977,396.9771,,0,166,166,130,1,131,hamile,1075,48.8437,877,0.0959,6,notharmonic,1.5,word,m,,,,,,,
,,,,,,,,,,,,001,2023-11-09_11h32.23.369,vowel_harmony,2023.2.3,Win32,59.96641881,396.9777,397.9744,,,,,,,,,,,,,,,,,,,,,,,,,,397.9745,398.7895,m,1,0.786,,398.7896,398.7896,,0,167,167,145,1,146,iddia,2430,110.4096,2295,0.2509,5,notharmonic,1.85,word,m,,,,,,,
,,,,,,,,,,,,001,2023-11-09_11h32.23.369,vowel_harmony,2023.2.3,Win32,59.96641881,398.7905,399.7894,,,,,,,,,,,,,,,,,,,,,,,,,,399.7896,400.6884,z,1,0.8709,,400.6885,400.6888,,0,168,168,250,1,251,kakuk,,,,,5,harmonic,1.9,nw,z,,,,,,,
,,,,,,,,,,,,001,2023-11-09_11h32.23.369,vowel_harmony,2023.2.3,Win32,59.96641881,400.6898,401.6923,,,,,,,,,,,,,,,,,,,,,,,,,,401.6924,402.3213,m,1,0.6085,,402.3214,402.3217,,0,169,169,1,1,2,erkek,6188,281.1582,5195,0.5679,5,harmonic,1.65,word,m,,,,,,,
,,,,,,,,,,,,001,2023-11-09_11h32.23.369,vowel_harmony,2023.2.3,Win32,59.96641881,402.3227,403.3201,,,,,,,,,,,,,,,,,,,,,,,,,,403.3202,403.869,z,1,0.5227,,403.8691,403.8693,,0,170,170,319,1,320,biho,,,,,4,notharmonic,2,nw,z,,,,,,,
,,,,,,,,,,,,001,2023-11-09_11h32.23.369,vowel_harmony,2023.2.3,Win32,59.96641881,403.8701,404.8684,,,,,,,,,,,,,,,,,,,,,,,,,,404.8685,405.468,m,1,0.5722,,405.4681,405.4685,,0,171,171,157,1,158,aktif,1062,48.2531,986,0.1078,5,notharmonic,1.9,word,m,,,,,,,
,,,,,,,,,,,,001,2023-11-09_11h32.23.369,vowel_harmony,2023.2.3,Win32,59.96641881,405.4692,406.4658,,,,,,,,,,,,,,,,,,,,,,,,,,406.466,407.1658,m,1,0.6732,,407.166,407.1663,,0,172,172,97,1,98,mevcut,3007,136.6262,2842,0.3107,6,notharmonic,1.95,word,m,,,,,,,
,,,,,,,,,,,,001,2023-11-09_11h32.23.369,vowel_harmony,2023.2.3,Win32,59.96641881,407.1672,408.1636,,,,,,,,,,,,,,,,,,,,,,,,,,408.1636,409.0971,z,1,0.9057,,409.0972,409.0973,,0,173,173,343,1,344,tarne,,,,,5,notharmonic,1.85,nw,z,,,,,,,
,,,,,,,,,,,,001,2023-11-09_11h32.23.369,vowel_harmony,2023.2.3,Win32,59.96641881,409.0982,410.0968,,,,,,,,,,,,,,,,,,,,,,,,,,410.0969,410.8787,z,1,0.7536,,410.8788,410.8791,,0,174,174,344,1,345,barika,,,,,6,notharmonic,1.75,nw,z,,,,,,,
,,,,,,,,,,,,001,2023-11-09_11h32.23.369,vowel_harmony,2023.2.3,Win32,59.96641881,410.8802,411.8775,,,,,,,,,,,,,,,,,,,,,,,,,,411.8776,412.5426,m,1,0.6424,,412.5426,412.5426,,0,175,175,61,1,62,yıldız,1775,80.649,1532,0.1675,6,harmonic,1.6,word,m,,,,,,,
,,,,,,,,,,,,001,2023-11-09_11h32.23.369,vowel_harmony,2023.2.3,Win32,59.96641881,412.5431,413.5417,,,,,,,,,,,,,,,,,,,,,,,,,,413.5417,414.0916,m,1,0.5177,,414.0917,414.092,,0,176,176,127,1,128,şahane,1153,52.3877,1108,0.1211,6,notharmonic,1.8,word,m,,,,,,,
,,,,,,,,,,,,001,2023-11-09_11h32.23.369,vowel_harmony,2023.2.3,Win32,59.96641881,414.0931,415.0944,,,,,,,,,,,,,,,,,,,,,,,,,,415.0945,415.6728,m,1,0.561,,415.6728,415.6728,,0,177,177,141,1,142,madde,3793,172.3389,3389,0.3705,5,notharmonic,1.7,word,m,,,,,,,
,,,,,,,,,,,,001,2023-11-09_11h32.23.369,vowel_harmony,2023.2.3,Win32,59.96641881,415.673,416.6724,,,,,,,,,,,,,,,,,,,,,,,,,,416.6725,417.2048,m,1,0.5111,,417.2049,417.2049,,0,178,178,175,1,176,aile,3655,166.0687,3126,0.3417,4,notharmonic,1,word,m,,,,,,,
,,,,,,,,,,,,001,2023-11-09_11h32.23.369,vowel_harmony,2023.2.3,Win32,59.96641881,417.2059,418.205,,,,,,,,,,,,,,,,,,,,,,,,,,418.2051,418.8212,z,1,0.5861,,418.8214,418.8216,,0,179,179,219,1,220,barlum,,,,,6,harmonic,1.9,nw,z,,,,,,,
,,,,,,,,,,,,001,2023-11-09_11h32.23.369,vowel_harmony,2023.2.3,Win32,59.96641881,418.8224,419.8242,,,,,,,,,,,,,,,,,,,,,,,,,,419.8243,420.3201,m,1,0.4705,,420.3203,420.3206,,0,180,180,108,1,109,tarih,2806,127.4935,2483,0.2714,5,notharmonic,1.55,word,m,,,,,,,
,,,,,,,,,,,,001,2023-11-09_11h32.23.369,vowel_harmony,2023.2.3,Win32,59.96641881,420.3216,421.3184,,,,,,,,,,,,,,,,,,,,,,,,,,421.3185,421.7836,m,1,0.4358,,421.7836,421.7836,,0,181,181,171,1,172,reklam,1565,71.1074,1244,0.136,6,notharmonic,1.9,word,m,,,,,,,
,,,,,,,,,,,,001,2023-11-09_11h32.23.369,vowel_harmony,2023.2.3,Win32,59.96641881,421.7841,422.7843,,,,,,,,,,,,,,,,,,,,,,,,,,422.7844,423.5487,z,1,0.7365,,423.5488,423.5491,,0,182,182,184,1,185,yapor,,,,,5,harmonic,1.9,nw,z,,,,,,,
,,,,,,,,,,,,001,2023-11-09_11h32.23.369,vowel_harmony,2023.2.3,Win32,59.96641881,423.5508,424.5483,,,,,,,,,,,,,,,,,,,,,,,,,,424.5484,425.1156,m,1,0.5376,,425.1157,425.116,,0,183,183,30,1,31,çevre,1662,75.5147,1409,0.154,5,harmonic,1.55,word,m,,,,,,,
,,,,,,,,,,,,001,2023-11-09_11h32.23.369,vowel_harmony,2023.2.3,Win32,59.96641881,425.1169,426.114,,,,,,,,,,,,,,,,,,,,,,,,,,426.1141,426.8455,m,1,0.7004,,426.8455,426.8456,,0,184,184,51,1,52,ilginç,2803,127.3572,2690,0.2941,6,harmonic,1.8,word,m,,,,,,,
,,,,,,,,,,,,001,2023-11-09_11h32.23.369,vowel_harmony,2023.2.3,Win32,59.96641881,426.8464,427.8451,,,,,,,,,,,,,,,,,,,,,,,,,,427.8453,428.4775,z,1,0.61,,428.4777,428.478,,0,185,185,257,1,258,zerü,,,,,4,harmonic,1.8,nw,z,,,,,,,
,,,,,,,,,,,,001,2023-11-09_11h32.23.369,vowel_harmony,2023.2.3,Win32,59.96641881,428.4791,429.4779,,,,,,,,,,,,,,,,,,,,,,,,,,429.4781,430.0605,m,1,0.5543,,430.0607,430.0609,,0,186,186,104,1,105,cevap,5232,237.7213,4822,0.5271,5,notharmonic,1.85,word,m,,,,,,,
,,,,,,,,,,,,001,2023-11-09_11h32.23.369,vowel_harmony,2023.2.3,Win32,59.96641881,430.0619,431.0592,,,,,,,,,,,,,,,,,,,,,,,,,,431.0594,431.7087,z,1,0.62,,431.7089,431.7092,,0,187,187,336,1,337,diyam,,,,,5,notharmonic,1.85,nw,z,,,,,,,
,,,,,,,,,,,,001,2023-11-09_11h32.23.369,vowel_harmony,2023.2.3,Win32,59.96641881,431.7098,432.7072,,,,,,,,,,,,,,,,,,,,,,,,,,432.7073,433.3057,z,1,0.5703,,433.3057,433.3058,,0,188,188,331,1,332,ehun,,,,,4,notharmonic,1.95,nw,z,,,,,,,
,,,,,,,,,,,,001,2023-11-09_11h32.23.369,vowel_harmony,2023.2.3,Win32,59.96641881,433.3068,434.3049,,,,,,,,,,,,,,,,,,,,,,,,,,434.305,434.9042,m,1,0.5771,,434.9042,434.9044,,0,189,189,22,1,23,anlam,1730,78.6043,1617,0.1768,5,harmonic,1.25,word,m,,,,,,,
,,,,,,,,,,,,001,2023-11-09_11h32.23.369,vowel_harmony,2023.2.3,Win32,59.96641881,434.9053,435.9033,,,,,,,,,,,,,,,,,,,,,,,,,,435.9033,436.5031,m,1,0.5711,,436.5032,436.5033,,0,190,190,107,1,108,merak,5806,263.8016,5524,0.6039,5,notharmonic,1.65,word,m,,,,,,,
,,,,,,,,,,,,001,2023-11-09_11h32.23.369,vowel_harmony,2023.2.3,Win32,59.96641881,436.5043,437.5026,,,,,,,,,,,,,,,,,,,,,,,,,,437.5026,438.1022,z,1,0.5692,,438.1024,438.1026,,0,191,191,315,1,316,takep,,,,,5,notharmonic,1.85,nw,z,,,,,,,
,,,,,,,,,,,,001,2023-11-09_11h32.23.369,vowel_harmony,2023.2.3,Win32,59.96641881,438.1034,439.1003,,,,,,,,,,,,,,,,,,,,,,,,,,439.1004,439.7338,m,1,0.6028,,439.7339,439.7344,,0,192,192,6,1,7,hayal,4498,204.3713,4079,0.4459,5,harmonic,1.45,word,m,,,,,,,
,,,,,,,,,,,,001,2023-11-09_11h32.23.369,vowel_harmony,2023.2.3,Win32,59.96641881,439.7351,440.7324,,,,,,,,,,,,,,,,,,,,,,,,,,440.7325,441.2314,m,1,0.4743,,441.2316,441.2322,,0,193,193,99,1,100,ilave,3173,144.1685,2619,0.2863,5,notharmonic,1.85,word,m,,,,,,,
,,,,,,,,,,,,001,2023-11-09_11h32.23.369,vowel_harmony,2023.2.3,Win32,59.96641881,441.2332,442.2304,,,,,,,,,,,,,,,,,,,,,,,,,,442.2305,442.6799,m,1,0.4228,,442.6799,442.6799,,0,194,194,15,1,16,hayat,7922,359.9443,7314,0.7996,5,harmonic,1.9,word,m,,,,,,,
,,,,,,,,,,,,001,2023-11-09_11h32.23.369,vowel_harmony,2023.2.3,Win32,59.96641881,442.6807,443.6844,,,,,,,,,,,,,,,,,,,,,,,,,,443.6845,444.4791,z,1,0.7688,,444.4792,444.4794,,0,195,195,294,1,295,mesap,,,,,5,notharmonic,1.8,nw,z,,,,,,,
,,,,,,,,,,,,001,2023-11-09_11h32.23.369,vowel_harmony,2023.2.3,Win32,59.96641881,444.4803,445.4777,,,,,,,,,,,,,,,,,,,,,,,,,,445.4778,446.0617,m,1,0.5543,,446.0619,446.0621,,0,196,196,119,1,120,kulüp,649,29.488,467,0.0511,5,notharmonic,1.4,word,m,,,,,,,
,,,,,,,,,,,,001,2023-11-09_11h32.23.369,vowel_harmony,2023.2.3,Win32,59.96641881,446.0627,447.061,,,,,,,,,,,,,,,,,,,,,,,,,,447.061,447.4928,m,1,0.4039,,447.4929,447.4933,,0,197,197,178,1,179,dikkat,6230,283.0665,5888,0.6437,6,notharmonic,2.05,word,m,,,,,,,
,,,,,,,,,,,,001,2023-11-09_11h32.23.369,vowel_harmony,2023.2.3,Win32,59.96641881,447.4939,448.4965,,,,,,,,,,,,,,,,,,,,,,,,,,448.4966,449.3417,z,1,0.8256,,449.3418,449.3421,,0,198,198,279,1,280,tadde,,,,,5,notharmonic,1.8,nw,z,,,,,,,
,,,,,,,,,,,,001,2023-11-09_11h32.23.369,vowel_harmony,2023.2.3,Win32,59.96641881,449.3428,450.3407,,,,,,,,,,,,,,,,,,,,,,,,,,450.3408,451.0233,z,1,0.6542,,451.0234,451.0236,,0,199,199,185,1,186,örtin,,,,,5,harmonic,1.9,nw,z,,,,,,,
,,,,,,,,,,,,001,2023-11-09_11h32.23.369,vowel_harmony,2023.2.3,Win32,59.96641881,451.0244,452.0226,,,,,,,,,,,,,,,,,,,,,,,,,,452.0228,452.7885,z,1,0.7427,,452.7887,452.7888,,0,200,200,335,1,336,lilo,,,,,4,notharmonic,1.8,nw,z,,,,,,,
,,,,,,,,,,,,001,2023-11-09_11h32.23.369,vowel_harmony,2023.2.3,Win32,59.96641881,452.7895,453.7874,,,,,,,,,,,,,,,,,,,,,,,,,,453.7874,454.4531,z,1,0.6371,,454.4532,454.4535,,0,201,201,325,1,326,garit,,,,,5,notharmonic,1.85,nw,z,,,,,,,
,,,,,,,,,,,,001,2023-11-09_11h32.23.369,vowel_harmony,2023.2.3,Win32,59.96641881,454.4543,455.4525,,,,,,,,,,,,,,,,,,,,,,,,,,455.4526,456.4014,m,1,0.9199,,456.4015,456.4017,,0,202,202,71,1,72,örnek,3463,157.345,3266,0.357,5,harmonic,1.85,word,m,,,,,,,
,,,,,,,,,,,,001,2023-11-09_11h32.23.369,vowel_harmony,2023.2.3,Win32,59.96641881,456.4023,457.4042,,,,,,,,,,,,,,,,,,,,,,,,,,457.4043,458.2329,m,1,0.8064,,458.2331,458.2336,,0,203,203,139,1,140,lira,1253,56.9314,947,0.1035,4,notharmonic,1.4,word,m,,,,,,,
,,,,,,,,,,,,001,2023-11-09_11h32.23.369,vowel_harmony,2023.2.3,Win32,59.96641881,458.2345,459.2316,,,,,,,,,,,,,,,,,,,,,,,,,,459.2317,459.7978,z,1,0.5435,,459.7979,459.7983,,0,204,204,282,1,283,taöz,,,,,4,notharmonic,1.9,nw,z,,,,,,,
,,,,,,,,,,,,001,2023-11-09_11h32.23.369,vowel_harmony,2023.2.3,Win32,59.96641881,459.7988,460.7972,,,,,,,,,,,,,,,,,,,,,,,,,,460.7974,461.8796,z,1,1.053,,461.8798,461.8799,,0,205,205,271,1,272,mimal,,,,,5,notharmonic,1.8,nw,z,,,,,,,
,,,,,,,,,,,,001,2023-11-09_11h32.23.369,vowel_harmony,2023.2.3,Win32,59.96641881,461.8806,462.8782,,,,,,,,,,,,,,,,,,,,,,,,,,462.8783,463.4946,z,1,0.59,,463.4947,463.4948,,0,206,206,223,1,224,kakon,,,,,5,harmonic,1.85,nw,z,,,,,,,
,,,,,,,,,,,,001,2023-11-09_11h32.23.369,vowel_harmony,2023.2.3,Win32,59.96641881,463.4956,464.4938,,,,,,,,,,,,,,,,,,,,,,,,,,464.4939,465.1927,z,1,0.6737,,465.1929,465.1931,,0,207,207,317,1,318,mevul,,,,,5,notharmonic,1.95,nw,z,,,,,,,
,,,,,,,,,,,,001,2023-11-09_11h32.23.369,vowel_harmony,2023.2.3,Win32,59.96641881,465.1937,466.1913,,,,,,,,,,,,,,,,,,,,,,,,,,466.1914,466.8911,m,1,0.6725,,466.8912,466.8914,,0,208,208,80,1,81,merkez,1445,65.6551,1255,0.1372,6,harmonic,1.8,word,m,,,,,,,
,,,,,,,,,,,,001,2023-11-09_11h32.23.369,vowel_harmony,2023.2.3,Win32,59.96641881,466.892,467.8897,,,,,,,,,,,,,,,,,,,,,,,,,,467.8898,468.906,z,1,0.993,,468.906,468.9062,,0,209,209,327,1,328,parkeş,,,,,6,notharmonic,1.9,nw,z,,,,,,,
,,,,,,,,,,,,001,2023-11-09_11h32.23.369,vowel_harmony,2023.2.3,Win32,59.96641881,468.9069,469.904,,,,,,,,,,,,,,,,,,,,,,,,,,469.9042,470.5207,m,1,0.5913,,470.5209,470.5212,,0,210,210,28,1,29,parlak,1142,51.888,1088,0.1189,6,harmonic,1.7,word,m,,,,,,,
,,,,,,,,,,,,001,2023-11-09_11h32.23.369,vowel_harmony,2023.2.3,Win32,59.96641881,470.522,471.5183,,,,,,,,,,,,,,,,,,,,,,,,,,471.5183,472.2009,z,1,0.6504,,472.2009,472.2009,,0,211,211,194,1,195,rayna,,,,,5,harmonic,1.7,nw,z,,,,,,,
,,,,,,,,,,,,001,2023-11-09_11h32.23.369,vowel_harmony,2023.2.3,Win32,59.96641881,472.2015,473.1998,,,,,,,,,,,,,,,,,,,,,,,,,,473.1998,473.9325,z,1,0.702,,473.9325,473.9325,,0,212,212,241,1,242,porlam,,,,,6,harmonic,2,nw,z,,,,,,,
,,,,,,,,,,,,001,2023-11-09_11h32.23.369,vowel_harmony,2023.2.3,Win32,59.96641881,473.9332,474.9319,,,,,,,,,,,,,,,,,,,,,,,,,,474.932,475.4199,m,1,0.4673,,475.42,475.4202,,0,213,213,100,1,101,düşman,1065,48.3894,962,0.1052,6,notharmonic,1.85,word,m,,,,,,,
,,,,,,,,,,,,001,2023-11-09_11h32.23.369,vowel_harmony,2023.2.3,Win32,59.96641881,475.4207,476.4147,,,,,,,,,,,,,,,,,,,,,,,,,,476.4148,477.2639,z,1,0.8235,,477.2641,477.2644,,0,214,214,316,1,317,misaf,,,,,5,notharmonic,1.85,nw,z,,,,,,,
,,,,,,,,,,,,001,2023-11-09_11h32.23.369,vowel_harmony,2023.2.3,Win32,59.96641881,477.2654,478.2636,,,,,,,,,,,,,,,,,,,,,,,,,,478.2637,478.9333,z,1,0.6503,,478.9334,478.9335,,0,215,215,291,1,292,mepan,,,,,5,notharmonic,1.75,nw,z,,,,,,,
,,,,,,,,,,,,001,2023-11-09_11h32.23.369,vowel_harmony,2023.2.3,Win32,59.96641881,478.9342,479.9283,,,,,,,,,,,,,,,,,,,,,,,,,,479.9285,480.5281,z,1,0.5706,,480.5281,480.5283,,0,216,216,237,1,238,taşal,,,,,5,harmonic,1.8,nw,z,,,,,,,
,,,,,,,,,,,,001,2023-11-09_11h32.23.369,vowel_harmony,2023.2.3,Win32,59.96641881,480.529,481.5263,,,,,,,,,,,,,,,,,,,,,,,,,,481.5265,482.1128,m,0,0.566,,482.1128,482.1129,,0,217,217,333,1,334,heyran,,,,,6,notharmonic,1.85,nw,z,,,,,,,
,,,,,,,,,,,,001,2023-11-09_11h32.23.369,vowel_harmony,2023.2.3,Win32,59.96641881,482.1131,483.1086,,,,,,,,,,,,,,,,,,,,,,,,,,483.1087,483.6744,z,1,0.5374,,483.6745,483.6747,,0,218,218,242,1,243,kahon,,,,,5,harmonic,1.85,nw,z,,,,,,,
,,,,,,,,,,,,001,2023-11-09_11h32.23.369,vowel_harmony,2023.2.3,Win32,59.96641881,483.6755,484.6737,,,,,,,,,,,,,,,,,,,,,,,,,,484.6739,485.2893,m,1,0.5882,,485.2894,485.2897,,0,219,219,140,1,141,sahil,481,21.8547,443,0.0484,5,notharmonic,1.45,word,m,,,,,,,
,,,,,,,,,,,,001,2023-11-09_11h32.23.369,vowel_harmony,2023.2.3,Win32,59.96641881,485.2904,486.2889,,,,,,,,,,,,,,,,,,,,,,,,,,486.289,487.0371,m,1,0.7202,,487.0372,487.0375,,0,220,220,45,1,46,bilgi,5981,271.7529,5353,0.5852,5,harmonic,1.5,word,m,,,,,,,
,,,,,,,,,,,,001,2023-11-09_11h32.23.369,vowel_harmony,2023.2.3,Win32,59.96641881,487.0386,488.0368,,,,,,,,,,,,,,,,,,,,,,,,,,488.0369,488.585,m,1,0.5273,,488.585,488.5853,,0,221,221,85,1,86,geçmiş,4195,190.6042,4039,0.4415,6,harmonic,1.55,word,m,,,,,,,
,,,,,,,,,,,,001,2023-11-09_11h32.23.369,vowel_harmony,2023.2.3,Win32,59.96641881,488.5862,489.5858,,,,,,,,,,,,,,,,,,,,,,,,,,489.5858,490.2518,z,1,0.6391,,490.2519,490.252,,0,222,222,322,1,323,normin,,,,,6,notharmonic,1.95,nw,z,,,,,,,
,,,,,,,,,,,,001,2023-11-09_11h32.23.369,vowel_harmony,2023.2.3,Win32,59.96641881,490.2527,491.2496,,,,,,,,,,,,,,,,,,,,,,,,,,491.2498,491.9996,z,1,0.7226,,491.9998,492.0001,,0,223,223,276,1,277,iptap,,,,,5,notharmonic,1.95,nw,z,,,,,,,
,,,,,,,,,,,,001,2023-11-09_11h32.23.369,vowel_harmony,2023.2.3,Win32,59.96641881,492.0009,492.9992,,,,,,,,,,,,,,,,,,,,,,,,,,492.9993,493.6646,z,1,0.6371,,493.6647,493.6649,,0,224,224,244,1,245,kaof,,,,,4,harmonic,1.9,nw,z,,,,,,,
,,,,,,,,,,,,001,2023-11-09_11h32.23.369,vowel_harmony,2023.2.3,Win32,59.96641881,493.6655,494.6637,,,,,,,,,,,,,,,,,,,,,,,,,,494.6639,495.3129,m,1,0.62,,495.3132,495.3137,,0,225,225,78,1,79,ulusal,1551,70.4713,1355,0.1481,6,harmonic,1.75,word,m,,,,,,,
,,,,,,,,,,,,001,2023-11-09_11h32.23.369,vowel_harmony,2023.2.3,Win32,59.96641881,495.3145,496.3124,,,,,,,,,,,,,,,,,,,,,,,,,,496.3125,497.2614,z,1,0.9183,,497.2616,497.2617,,0,226,226,304,1,305,annö,,,,,4,notharmonic,1.95,nw,z,,,,,,,
,,,,,,,,,,,,001,2023-11-09_11h32.23.369,vowel_harmony,2023.2.3,Win32,59.96641881,497.2627,498.2642,,,,,,,,,,,,,,,,,,,,,,,,,,498.2642,498.9258,z,1,0.6373,,498.926,498.9262,,0,227,227,350,1,351,resun,,,,,5,notharmonic,1.85,nw,z,,,,,,,
,,,,,,,,,,,,001,2023-11-09_11h32.23.369,vowel_harmony,2023.2.3,Win32,59.96641881,498.9269,499.9247,,,,,,,,,,,,,,,,,,,,,,,,,,499.9249,500.5576,m,1,0.607,,500.5578,500.5581,,0,228,228,32,1,33,temel,4231,192.2399,3851,0.421,5,harmonic,1.55,word,m,,,,,,,
,,,,,,,,,,,,001,2023-11-09_11h32.23.369,vowel_harmony,2023.2.3,Win32,59.96641881,500.5588,501.5575,,,,,,,,,,,,,,,,,,,,,,,,,,501.5576,502.2231,z,1,0.6372,,502.2232,502.2235,,0,229,229,285,1,286,iklon,,,,,5,notharmonic,1.85,nw,z,,,,,,,
,,,,,,,,,,,,001,2023-11-09_11h32.23.369,vowel_harmony,2023.2.3,Win32,59.96641881,502.2243,503.2263,,,,,,,,,,,,,,,,,,,,,,,,,,503.2263,503.8218,m,1,0.5722,,503.822,503.8222,,0,230,230,122,1,123,devam,17666,802.673,16284,1.7802,5,notharmonic,1.55,word,m,,,,,,,
,,,,,,,,,,,,001,2023-11-09_11h32.23.369,vowel_harmony,2023.2.3,Win32,59.96641881,503.8232,504.8206,,,,,,,,,,,,,,,,,,,,,,,,,,504.8207,505.4368,m,1,0.5903,,505.4369,505.4371,,0,231,231,118,1,119,meşhur,1092,49.6161,1057,0.1156,6,notharmonic,1.9,word,m,,,,,,,
,,,,,,,,,,,,001,2023-11-09_11h32.23.369,vowel_harmony,2023.2.3,Win32,59.96641881,505.4379,506.434,,,,,,,,,,,,,,,,,,,,,,,,,,506.434,507.0178,z,1,0.5579,,507.0179,507.0182,,0,232,232,182,1,183,orsın,,,,,5,harmonic,1.95,nw,z,,,,,,,
,,,,,,,,,,,,001,2023-11-09_11h32.23.369,vowel_harmony,2023.2.3,Win32,59.96641881,507.019,508.0168,,,,,,,,,,,,,,,,,,,,,,,,,,508.0169,508.5007,z,1,0.4562,,508.5008,508.501,,0,233,233,353,1,354,ikno,,,,,4,notharmonic,1.95,nw,z,,,,,,,
,,,,,,,,,,,,001,2023-11-09_11h32.23.369,vowel_harmony,2023.2.3,Win32,59.96641881,508.5022,509.4997,,,,,,,,,,,,,,,,,,,,,,,,,,509.4998,510.1323,m,1,0.6041,,510.1324,510.1326,,0,234,234,172,1,173,milyar,1496,67.9723,1078,0.1178,6,notharmonic,1.85,word,m,,,,,,,
,,,,,,,,,,,,001,2023-11-09_11h32.23.369,vowel_harmony,2023.2.3,Win32,59.96641881,510.1333,511.1312,,,,,,,,,,,,,,,,,,,,,,,,,,511.1314,512.2631,z,1,1.1028,,512.2634,512.2636,,0,235,235,224,1,225,ertre,,,,,5,harmonic,1.95,nw,z,,,,,,,
,,,,,,,,,,,,001,2023-11-09_11h32.23.369,vowel_harmony,2023.2.3,Win32,59.96641881,512.2646,513.2627,,,,,,,,,,,,,,,,,,,,,,,,,,513.2628,514.2616,z,1,0.9731,,514.2617,514.2619,,0,236,236,357,1,358,işarek,,,,,6,notharmonic,1.95,nw,z,,,,,,,
,,,,,,,,,,,,001,2023-11-09_11h32.23.369,vowel_harmony,2023.2.3,Win32,59.96641881,514.2626,515.2598,,,,,,,,,,,,,,,,,,,,,,,,,,515.2599,515.9145,m,1,0.6345,,515.9145,515.9147,,0,237,237,90,1,91,tarif,2834,128.7657,2611,0.2854,5,notharmonic,1.5,word,m,,,,,,,
,,,,,,,,,,,,001,2023-11-09_11h32.23.369,vowel_harmony,2023.2.3,Win32,59.96641881,515.9154,516.9094,,,,,,,,,,,,,,,,,,,,,,,,,,516.9095,517.4735,m,1,0.5338,,517.4736,517.4741,,0,238,238,76,1,77,ilişki,1675,76.1054,1524,0.1666,6,harmonic,1.8,word,m,,,,,,,
,,,,,,,,,,,,001,2023-11-09_11h32.23.369,vowel_harmony,2023.2.3,Win32,59.96641881,517.4754,518.4729,,,,,,,,,,,,,,,,,,,,,,,,,,518.473,519.2236,z,1,0.724,,519.2237,519.2239,,0,239,239,352,1,353,yılden,,,,,6,notharmonic,1.8,nw,z,,,,,,,
,,,,,,,,,,,,001,2023-11-09_11h32.23.369,vowel_harmony,2023.2.3,Win32,59.96641881,519.2248,520.222,,,,,,,,,,,,,,,,,,,,,,,,,,520.2221,520.9048,z,1,0.6574,,520.9049,552.008,space,0,240,240,326,1,327,ailo,,,,,4,notharmonic,1.75,nw,z,31.08,,,,,,
,,,,,,,,,,,,001,2023-11-09_11h32.23.369,vowel_harmony,2023.2.3,Win32,59.96641881,552.0288,553.023,,,,,,,,,,,,,,,,,,,,,,,,,,553.0231,554.6881,z,1,1.6361,,554.6882,554.6885,,0,241,241,256,1,257,yaruza,,,,,6,harmonic,1.9,nw,z,,,,,,,
,,,,,,,,,,,,001,2023-11-09_11h32.23.369,vowel_harmony,2023.2.3,Win32,59.96641881,554.689,555.6875,,,,,,,,,,,,,,,,,,,,,,,,,,555.6875,556.403,z,1,0.688,,556.4031,556.4033,,0,242,242,196,1,197,bilön,,,,,5,harmonic,1.9,nw,z,,,,,,,
,,,,,,,,,,,,001,2023-11-09_11h32.23.369,vowel_harmony,2023.2.3,Win32,59.96641881,556.4042,557.4026,,,,,,,,,,,,,,,,,,,,,,,,,,557.4027,558.0347,m,1,0.611,,558.0348,558.0352,,0,243,243,4,1,5,metre,1156,52.5241,1015,0.111,5,harmonic,1.7,word,m,,,,,,,
,,,,,,,,,,,,001,2023-11-09_11h32.23.369,vowel_harmony,2023.2.3,Win32,59.96641881,558.0356,559.0378,,,,,,,,,,,,,,,,,,,,,,,,,,559.0378,559.6002,m,1,0.5382,,559.6004,559.6006,,0,244,244,84,1,85,ülke,3121,141.8059,2801,0.3062,4,harmonic,1.65,word,m,,,,,,,
,,,,,,,,,,,,001,2023-11-09_11h32.23.369,vowel_harmony,2023.2.3,Win32,59.96641881,559.602,560.5991,,,,,,,,,,,,,,,,,,,,,,,,,,560.5992,561.1639,z,1,0.5371,,561.1639,561.1641,,0,245,245,262,1,263,sauk,,,,,4,harmonic,1.85,nw,z,,,,,,,
,,,,,,,,,,,,001,2023-11-09_11h32.23.369,vowel_harmony,2023.2.3,Win32,59.96641881,561.1651,562.1644,,,,,,,,,,,,,,,,,,,,,,,,,,562.1645,562.8294,z,1,0.6442,,562.8295,562.8297,,0,246,246,209,1,210,sapor,,,,,5,harmonic,1.8,nw,z,,,,,,,
,,,,,,,,,,,,001,2023-11-09_11h32.23.369,vowel_harmony,2023.2.3,Win32,59.96641881,562.8307,563.8298,,,,,,,,,,,,,,,,,,,,,,,,,,563.83,564.4613,m,1,0.6032,,564.4615,564.4618,,0,247,247,96,1,97,dahil,3189,144.8955,3060,0.3345,5,notharmonic,1.7,word,m,,,,,,,
,,,,,,,,,,,,001,2023-11-09_11h32.23.369,vowel_harmony,2023.2.3,Win32,59.96641881,564.4629,565.4613,,,,,,,,,,,,,,,,,,,,,,,,,,565.4614,566.1261,z,1,0.6398,,566.1263,566.1264,,0,248,248,281,1,282,afel,,,,,4,notharmonic,1.8,nw,z,,,,,,,
,,,,,,,,,,,,001,2023-11-09_11h32.23.369,vowel_harmony,2023.2.3,Win32,59.96641881,566.1274,567.1262,,,,,,,,,,,,,,,,,,,,,,,,,,567.1262,567.709,m,1,0.5556,,567.709,567.7093,,0,249,249,43,1,44,geniş,3380,153.5738,3185,0.3482,5,harmonic,1.35,word,m,,,,,,,
,,,,,,,,,,,,001,2023-11-09_11h32.23.369,vowel_harmony,2023.2.3,Win32,59.96641881,567.7103,568.708,,,,,,,,,,,,,,,,,,,,,,,,,,568.7081,569.2737,m,1,0.5362,,569.2739,569.2742,,0,250,250,170,1,171,basit,3385,153.801,3177,0.3473,5,notharmonic,1.65,word,m,,,,,,,
,,,,,,,,,,,,001,2023-11-09_11h32.23.369,vowel_harmony,2023.2.3,Win32,59.96641881,569.2748,570.2717,,,,,,,,,,,,,,,,,,,,,,,,,,570.2718,570.8556,m,1,0.5544,,570.8557,570.856,,0,251,251,125,1,126,ikna,1276,57.9764,1173,0.1282,4,notharmonic,1.85,word,m,,,,,,,
,,,,,,,,,,,,001,2023-11-09_11h32.23.369,vowel_harmony,2023.2.3,Win32,59.96641881,570.8565,571.855,,,,,,,,,,,,,,,,,,,,,,,,,,571.8552,572.5586,z,1,0.6837,,572.5587,572.5588,,0,252,252,197,1,198,ranar,,,,,5,harmonic,1.75,nw,z,,,,,,,
,,,,,,,,,,,,001,2023-11-09_11h32.23.369,vowel_harmony,2023.2.3,Win32,59.96641881,572.5596,573.5571,,,,,,,,,,,,,,,,,,,,,,,,,,573.5571,574.1694,m,1,0.587,,574.1696,574.1697,,0,253,253,20,1,21,nefes,2871,130.4469,2553,0.2791,5,harmonic,1.8,word,m,,,,,,,
,,,,,,,,,,,,001,2023-11-09_11h32.23.369,vowel_harmony,2023.2.3,Win32,59.96641881,574.1705,575.1727,,,,,,,,,,,,,,,,,,,,,,,,,,575.1728,575.7679,z,1,0.5725,,575.7679,575.7681,,0,254,254,260,1,261,yarlam,,,,,6,harmonic,1.75,nw,z,,,,,,,
,,,,,,,,,,,,001,2023-11-09_11h32.23.369,vowel_harmony,2023.2.3,Win32,59.96641881,575.7688,576.7653,,,,,,,,,,,,,,,,,,,,,,,,,,576.7653,577.4995,z,1,0.7062,,577.4997,577.4999,,0,255,255,356,1,357,mergun,,,,,6,notharmonic,1.95,nw,z,,,,,,,
,,,,,,,,,,,,001,2023-11-09_11h32.23.369,vowel_harmony,2023.2.3,Win32,59.96641881,577.5009,578.4987,,,,,,,,,,,,,,,,,,,,,,,,,,578.4987,579.1645,m,1,0.636,,579.1646,579.1648,,0,256,256,52,1,53,resim,2506,113.8627,2188,0.2392,5,harmonic,1.4,word,m,,,,,,,
,,,,,,,,,,,,001,2023-11-09_11h32.23.369,vowel_harmony,2023.2.3,Win32,59.96641881,579.1656,580.1636,,,,,,,,,,,,,,,,,,,,,,,,,,580.1637,580.7459,m,1,0.5568,,580.746,580.7463,,0,257,257,39,1,40,yaygın,1061,48.2076,1019,0.1114,6,harmonic,1.35,word,m,,,,,,,
,,,,,,,,,,,,001,2023-11-09_11h32.23.369,vowel_harmony,2023.2.3,Win32,59.96641881,580.7471,581.7453,,,,,,,,,,,,,,,,,,,,,,,,,,581.7454,582.2776,m,1,0.5037,,582.2778,582.2782,,0,258,258,64,1,65,lise,888,40.3472,816,0.0892,4,harmonic,1.5,word,m,,,,,,,
,,,,,,,,,,,,001,2023-11-09_11h32.23.369,vowel_harmony,2023.2.3,Win32,59.96641881,582.2788,583.2772,,,,,,,,,,,,,,,,,,,,,,,,,,583.2773,583.8763,z,1,0.5698,,583.8765,583.8767,,0,259,259,231,1,232,norgun,,,,,6,harmonic,1.75,nw,z,,,,,,,
,,,,,,,,,,,,001,2023-11-09_11h32.23.369,vowel_harmony,2023.2.3,Win32,59.96641881,583.8774,584.8758,,,,,,,,,,,,,,,,,,,,,,,,,,584.8758,585.4745,z,1,0.5722,,585.4747,585.475,,0,260,260,264,1,265,vepü,,,,,4,harmonic,2,nw,z,,,,,,,
,,,,,,,,,,,,001,2023-11-09_11h32.23.369,vowel_harmony,2023.2.3,Win32,59.96641881,585.4756,586.4738,,,,,,,,,,,,,,,,,,,,,,,,,,586.4739,587.3442,z,1,0.8504,,587.3443,587.3445,,0,261,261,347,1,348,tekram,,,,,6,notharmonic,1.95,nw,z,,,,,,,
,,,,,,,,,,,,001,2023-11-09_11h32.23.369,vowel_harmony,2023.2.3,Win32,59.96641881,587.3451,588.3427,,,,,,,,,,,,,,,,,,,,,,,,,,588.3427,588.9546,m,1,0.5864,,588.9548,588.955,,0,262,262,68,1,69,ücret,734,33.35,634,0.0693,5,harmonic,1.85,word,m,,,,,,,
,,,,,,,,,,,,001,2023-11-09_11h32.23.369,vowel_harmony,2023.2.3,Win32,59.96641881,588.9557,589.9531,,,,,,,,,,,,,,,,,,,,,,,,,,589.9532,590.6537,m,1,0.6726,,590.6538,590.6539,,0,263,263,63,1,64,sultan,1756,79.7857,1368,0.1496,6,harmonic,1.55,word,m,,,,,,,
,,,,,,,,,,,,001,2023-11-09_11h32.23.369,vowel_harmony,2023.2.3,Win32,59.96641881,590.6549,591.6506,,,,,,,,,,,,,,,,,,,,,,,,,,591.6506,592.2829,z,1,0.6013,,592.2829,592.283,,0,264,264,268,1,269,haldum,,,,,6,harmonic,2,nw,z,,,,,,,
,,,,,,,,,,,,001,2023-11-09_11h32.23.369,vowel_harmony,2023.2.3,Win32,59.96641881,592.2832,593.2823,,,,,,,,,,,,,,,,,,,,,,,,,,593.2823,593.9985,z,1,0.6867,,593.9986,593.9989,,0,265,265,269,1,270,vekü,,,,,4,harmonic,2,nw,z,,,,,,,
,,,,,,,,,,,,001,2023-11-09_11h32.23.369,vowel_harmony,2023.2.3,Win32,59.96641881,594.0002,594.9985,,,,,,,,,,,,,,,,,,,,,,,,,,594.9986,595.5814,z,1,0.553,,595.5815,595.5818,,0,266,266,193,1,194,yokın,,,,,5,harmonic,1.85,nw,z,,,,,,,
,,,,,,,,,,,,001,2023-11-09_11h32.23.369,vowel_harmony,2023.2.3,Win32,59.96641881,595.5825,596.5825,,,,,,,,,,,,,,,,,,,,,,,,,,596.5826,597.213,z,1,0.6066,,597.2132,597.2135,,0,267,267,210,1,211,şevci,,,,,5,harmonic,1.75,nw,z,,,,,,,
,,,,,,,,,,,,001,2023-11-09_11h32.23.369,vowel_harmony,2023.2.3,Win32,59.96641881,597.2144,598.2115,,,,,,,,,,,,,,,,,,,,,,,,,,598.2116,598.779,z,1,0.5455,,598.779,598.7793,,0,268,268,203,1,204,döves,,,,,5,harmonic,1.8,nw,z,,,,,,,
,,,,,,,,,,,,001,2023-11-09_11h32.23.369,vowel_harmony,2023.2.3,Win32,59.96641881,598.7799,599.7776,,,,,,,,,,,,,,,,,,,,,,,,,,599.7777,600.2767,m,1,0.4762,,600.2768,600.2771,,0,269,269,148,1,149,selam,1868,84.8745,1764,0.1928,5,notharmonic,1.35,word,m,,,,,,,
,,,,,,,,,,,,001,2023-11-09_11h32.23.369,vowel_harmony,2023.2.3,Win32,59.96641881,600.278,601.2761,,,,,,,,,,,,,,,,,,,,,,,,,,601.2762,602.3919,m,1,1.0941,,602.392,602.3921,,0,270,270,17,1,18,yakın,7990,363.0339,7595,0.8303,5,harmonic,1.8,word,m,,,,,,,
,,,,,,,,,,,,001,2023-11-09_11h32.23.369,vowel_harmony,2023.2.3,Win32,59.96641881,602.3929,603.3913,,,,,,,,,,,,,,,,,,,,,,,,,,603.3913,604.007,m,1,0.5894,,604.0072,604.0073,,0,271,271,83,1,84,küçük,14048,638.2854,12467,1.3629,5,harmonic,1.75,word,m,,,,,,,
,,,,,,,,,,,,001,2023-11-09_11h32.23.369,vowel_harmony,2023.2.3,Win32,59.96641881,604.0082,605.006,,,,,,,,,,,,,,,,,,,,,,,,,,605.0061,605.6214,m,1,0.5891,,605.6216,605.6221,,0,272,272,112,1,113,sezon,2315,105.1844,1917,0.2096,5,notharmonic,1.8,word,m,,,,,,,
,,,,,,,,,,,,001,2023-11-09_11h32.23.369,vowel_harmony,2023.2.3,Win32,59.96641881,605.6229,606.6202,,,,,,,,,,,,,,,,,,,,,,,,,,606.6203,607.2688,z,1,0.6181,,607.2688,607.2688,,0,273,273,298,1,299,yelsın,,,,,6,notharmonic,1.95,nw,z,,,,,,,
,,,,,,,,,,,,001,2023-11-09_11h32.23.369,vowel_harmony,2023.2.3,Win32,59.96641881,607.2694,608.268,,,,,,,,,,,,,,,,,,,,,,,,,,608.2681,608.9517,z,1,0.6585,,608.9519,608.9522,,0,274,274,258,1,259,karıha,,,,,6,harmonic,1.75,nw,z,,,,,,,
,,,,,,,,,,,,001,2023-11-09_11h32.23.369,vowel_harmony,2023.2.3,Win32,59.96641881,608.9529,609.9513,,,,,,,,,,,,,,,,,,,,,,,,,,609.9514,610.5213,m,1,0.5505,,610.5214,610.5215,,0,275,275,159,1,160,vakit,3476,157.9357,3298,0.3605,5,notharmonic,1.65,word,m,,,,,,,
,,,,,,,,,,,,001,2023-11-09_11h32.23.369,vowel_harmony,2023.2.3,Win32,59.96641881,610.5223,611.5161,,,,,,,,,,,,,,,,,,,,,,,,,,611.5162,612.0981,m,1,0.56,,612.0982,612.0984,,0,276,276,111,1,112,kahve,2634,119.6785,2283,0.2496,5,notharmonic,1.85,word,m,,,,,,,
,,,,,,,,,,,,001,2023-11-09_11h32.23.369,vowel_harmony,2023.2.3,Win32,59.96641881,612.0992,613.0981,,,,,,,,,,,,,,,,,,,,,,,,,,613.0981,613.8467,z,1,0.7193,,613.8468,613.847,,0,277,277,321,1,322,makih,,,,,5,notharmonic,1.8,nw,z,,,,,,,
,,,,,,,,,,,,001,2023-11-09_11h32.23.369,vowel_harmony,2023.2.3,Win32,59.96641881,613.8476,614.8461,,,,,,,,,,,,,,,,,,,,,,,,,,614.8463,615.5453,z,1,0.6733,,615.5454,615.5456,,0,278,278,215,1,216,aydo,,,,,4,harmonic,1.9,nw,z,,,,,,,
,,,,,,,,,,,,001,2023-11-09_11h32.23.369,vowel_harmony,2023.2.3,Win32,59.96641881,615.5463,616.5444,,,,,,,,,,,,,,,,,,,,,,,,,,616.5446,617.1936,z,1,0.6205,,617.1936,617.1941,,0,279,279,342,1,343,kulön,,,,,5,notharmonic,1.9,nw,z,,,,,,,
,,,,,,,,,,,,001,2023-11-09_11h32.23.369,vowel_harmony,2023.2.3,Win32,59.96641881,617.1947,618.1929,,,,,,,,,,,,,,,,,,,,,,,,,,618.193,619.0251,m,1,0.804,,619.0253,619.0255,,0,280,280,21,1,22,duygu,1877,85.2834,1760,0.1924,5,harmonic,1.8,word,m,,,,,,,
,,,,,,,,,,,,001,2023-11-09_11h32.23.369,vowel_harmony,2023.2.3,Win32,59.96641881,619.0264,620.0237,,,,,,,,,,,,,,,,,,,,,,,,,,620.0238,621.09,m,1,1.0392,,621.0902,621.0903,,0,281,281,120,1,121,ihmal,1002,45.5269,977,0.1068,5,notharmonic,1.65,word,m,,,,,,,
,,,,,,,,,,,,001,2023-11-09_11h32.23.369,vowel_harmony,2023.2.3,Win32,59.96641881,621.0911,622.0891,,,,,,,,,,,,,,,,,,,,,,,,,,622.0892,622.6052,m,1,0.4937,,622.6052,622.6054,,0,282,282,0,1,1,sanat,3121,141.8059,2485,0.2717,5,harmonic,1.4,word,m,,,,,,,
,,,,,,,,,,,,001,2023-11-09_11h32.23.369,vowel_harmony,2023.2.3,Win32,59.96641881,622.606,623.6081,,,,,,,,,,,,,,,,,,,,,,,,,,623.6081,624.037,m,1,0.4014,,624.0371,624.0373,,0,283,283,18,1,19,normal,4154,188.7413,3788,0.4141,6,harmonic,1.75,word,m,,,,,,,
,,,,,,,,,,,,001,2023-11-09_11h32.23.369,vowel_harmony,2023.2.3,Win32,59.96641881,624.0379,625.0358,,,,,,,,,,,,,,,,,,,,,,,,,,625.036,625.5856,m,1,0.5207,,625.5858,625.5859,,0,284,284,152,1,153,tedavi,1865,84.7382,1597,0.1746,6,notharmonic,1.8,word,m,,,,,,,
,,,,,,,,,,,,001,2023-11-09_11h32.23.369,vowel_harmony,2023.2.3,Win32,59.96641881,625.5867,626.5849,,,,,,,,,,,,,,,,,,,,,,,,,,626.5849,627.1006,m,1,0.4954,,627.1008,627.101,,0,285,285,149,1,150,ceza,2611,118.6335,2169,0.2371,4,notharmonic,1.5,word,m,,,,,,,
,,,,,,,,,,,,001,2023-11-09_11h32.23.369,vowel_harmony,2023.2.3,Win32,59.96641881,627.1013,628.0996,,,,,,,,,,,,,,,,,,,,,,,,,,628.0998,628.7494,z,1,0.622,,628.7497,628.7501,,0,286,286,349,1,350,harten,,,,,6,notharmonic,1.85,nw,z,,,,,,,
,,,,,,,,,,,,001,2023-11-09_11h32.23.369,vowel_harmony,2023.2.3,Win32,59.96641881,628.7512,629.7483,,,,,,,,,,,,,,,,,,,,,,,,,,629.7484,630.6803,m,1,0.9057,,630.6804,630.6809,,0,287,287,81,1,82,üretim,1593,72.3796,1283,0.1403,6,harmonic,1.6,word,m,,,,,,,
,,,,,,,,,,,,001,2023-11-09_11h32.23.369,vowel_harmony,2023.2.3,Win32,59.96641881,630.6819,631.6795,,,,,,,,,,,,,,,,,,,,,,,,,,631.6796,632.1621,m,1,0.4533,,632.1621,632.1624,,0,288,288,38,1,39,dönem,2820,128.1296,2437,0.2664,5,harmonic,1.4,word,m,,,,,,,
,,,,,,,,,,,,001,2023-11-09_11h32.23.369,vowel_harmony,2023.2.3,Win32,59.96641881,632.1632,633.1654,,,,,,,,,,,,,,,,,,,,,,,,,,633.1656,633.7439,z,1,0.5598,,633.7441,633.7445,,0,289,289,339,1,340,asmel,,,,,5,notharmonic,1.95,nw,z,,,,,,,
,,,,,,,,,,,,001,2023-11-09_11h32.23.369,vowel_harmony,2023.2.3,Win32,59.96641881,633.7452,634.7429,,,,,,,,,,,,,,,,,,,,,,,,,,634.7431,635.4424,m,1,0.67,,635.4425,635.4429,,0,290,290,48,1,49,teşvik,932,42.3464,867,0.0948,6,harmonic,1.8,word,m,,,,,,,
,,,,,,,,,,,,001,2023-11-09_11h32.23.369,vowel_harmony,2023.2.3,Win32,59.96641881,635.4435,636.4401,,,,,,,,,,,,,,,,,,,,,,,,,,636.4401,637.0891,z,1,0.6172,,637.0891,637.0892,,0,291,291,265,1,266,parula,,,,,6,harmonic,1.75,nw,z,,,,,,,
,,,,,,,,,,,,001,2023-11-09_11h32.23.369,vowel_harmony,2023.2.3,Win32,59.96641881,637.0898,638.0889,,,,,,,,,,,,,,,,,,,,,,,,,,638.089,638.8388,z,1,0.7232,,638.839,638.8394,,0,292,292,205,1,206,kahay,,,,,5,harmonic,1.9,nw,z,,,,,,,
,,,,,,,,,,,,001,2023-11-09_11h32.23.369,vowel_harmony,2023.2.3,Win32,59.96641881,638.8401,639.8386,,,,,,,,,,,,,,,,,,,,,,,,,,639.8387,640.3375,m,1,0.4702,,640.3377,640.338,,0,293,293,40,1,41,tepki,1695,77.0141,1578,0.1725,5,harmonic,1.55,word,m,,,,,,,
,,,,,,,,,,,,001,2023-11-09_11h32.23.369,vowel_harmony,2023.2.3,Win32,59.96641881,640.3385,641.3368,,,,,,,,,,,,,,,,,,,,,,,,,,641.3369,642.0032,z,1,0.6452,,642.0033,642.0036,,0,294,294,308,1,309,hafer,,,,,5,notharmonic,1.85,nw,z,,,,,,,
,,,,,,,,,,,,001,2023-11-09_11h32.23.369,vowel_harmony,2023.2.3,Win32,59.96641881,642.0046,643.0057,,,,,,,,,,,,,,,,,,,,,,,,,,643.0059,643.6339,m,1,0.5768,,643.634,643.6341,,0,295,295,60,1,61,doğu,2105,95.6429,1823,0.1993,4,harmonic,1.05,word,m,,,,,,,
,,,,,,,,,,,,001,2023-11-09_11h32.23.369,vowel_harmony,2023.2.3,Win32,59.96641881,643.6349,644.6328,,,,,,,,,,,,,,,,,,,,,,,,,,644.6329,645.166,m,1,0.5148,,645.166,645.1662,,0,296,296,13,1,14,nokta,2085,94.7341,1939,0.212,5,harmonic,1.5,word,m,,,,,,,
,,,,,,,,,,,,001,2023-11-09_11h32.23.369,vowel_harmony,2023.2.3,Win32,59.96641881,645.167,646.1648,,,,,,,,,,,,,,,,,,,,,,,,,,646.1649,646.6645,m,1,0.48,,646.6646,646.6647,,0,297,297,158,1,159,klasik,1871,85.0108,1734,0.1896,6,notharmonic,2,word,m,,,,,,,
,,,,,,,,,,,,001,2023-11-09_11h32.23.369,vowel_harmony,2023.2.3,Win32,59.96641881,646.6654,647.6633,,,,,,,,,,,,,,,,,,,,,,,,,,647.6633,648.3629,z,1,0.6761,,648.363,648.3632,,0,298,298,212,1,213,ortat,,,,,5,harmonic,1.7,nw,z,,,,,,,
,,,,,,,,,,,,001,2023-11-09_11h32.23.369,vowel_harmony,2023.2.3,Win32,59.96641881,648.3642,649.3619,,,,,,,,,,,,,,,,,,,,,,,,,,649.3619,650.0113,z,1,0.6283,,650.0114,650.0117,,0,299,299,232,1,233,kanur,,,,,5,harmonic,1.7,nw,z,,,,,,,
,,,,,,,,,,,,001,2023-11-09_11h32.23.369,vowel_harmony,2023.2.3,Win32,59.96641881,650.0125,651.0102,,,,,,,,,,,,,,,,,,,,,,,,,,651.0103,651.6262,m,1,0.6007,,651.6262,651.6264,,0,300,300,94,1,95,final,876,39.802,778,0.0851,5,notharmonic,1,word,m,,,,,,,
,,,,,,,,,,,,001,2023-11-09_11h32.23.369,vowel_harmony,2023.2.3,Win32,59.96641881,651.6271,652.6256,,,,,,,,,,,,,,,,,,,,,,,,,,652.6257,653.4904,z,1,0.8405,,653.4904,653.4906,,0,301,301,301,1,302,mezak,,,,,5,notharmonic,1.8,nw,z,,,,,,,
,,,,,,,,,,,,001,2023-11-09_11h32.23.369,vowel_harmony,2023.2.3,Win32,59.96641881,653.4911,654.4904,,,,,,,,,,,,,,,,,,,,,,,,,,654.4905,655.1909,z,1,0.6851,,655.191,655.1912,,0,302,302,302,1,303,işgar,,,,,5,notharmonic,1.9,nw,z,,,,,,,
,,,,,,,,,,,,001,2023-11-09_11h32.23.369,vowel_harmony,2023.2.3,Win32,59.96641881,655.1919,656.1888,,,,,,,,,,,,,,,,,,,,,,,,,,656.1888,656.8543,z,1,0.647,,656.8543,656.8545,,0,303,303,273,1,274,nimal,,,,,5,notharmonic,1.9,nw,z,,,,,,,
,,,,,,,,,,,,001,2023-11-09_11h32.23.369,vowel_harmony,2023.2.3,Win32,59.96641881,656.8553,657.8536,,,,,,,,,,,,,,,,,,,,,,,,,,657.8537,658.4531,z,1,0.5772,,658.4532,658.4536,,0,304,304,307,1,308,merbat,,,,,6,notharmonic,1.95,nw,z,,,,,,,
,,,,,,,,,,,,001,2023-11-09_11h32.23.369,vowel_harmony,2023.2.3,Win32,59.96641881,658.4545,659.4522,,,,,,,,,,,,,,,,,,,,,,,,,,659.4524,660.0181,m,1,0.548,,660.0182,660.0183,,0,305,305,173,1,174,sade,1193,54.2052,1114,0.1218,4,notharmonic,1.55,word,m,,,,,,,
,,,,,,,,,,,,001,2023-11-09_11h32.23.369,vowel_harmony,2023.2.3,Win32,59.96641881,660.0188,661.0173,,,,,,,,,,,,,,,,,,,,,,,,,,661.0173,661.6332,m,1,0.6009,,661.6332,661.6334,,0,306,306,163,1,164,limon,1658,75.3329,1481,0.1619,5,notharmonic,1.75,word,m,,,,,,,
,,,,,,,,,,,,001,2023-11-09_11h32.23.369,vowel_harmony,2023.2.3,Win32,59.96641881,661.6342,662.6323,,,,,,,,,,,,,,,,,,,,,,,,,,662.6325,663.3643,z,1,0.7143,,663.3643,663.3645,,0,307,307,225,1,226,düvem,,,,,5,harmonic,1.7,nw,z,,,,,,,
,,,,,,,,,,,,001,2023-11-09_11h32.23.369,vowel_harmony,2023.2.3,Win32,59.96641881,663.3649,664.3637,,,,,,,,,,,,,,,,,,,,,,,,,,664.3637,665.0129,m,1,0.6286,,665.0131,665.0133,,0,308,308,110,1,111,rüya,1062,48.2531,937,0.1024,4,notharmonic,1.75,word,m,,,,,,,
,,,,,,,,,,,,001,2023-11-09_11h32.23.369,vowel_harmony,2023.2.3,Win32,59.96641881,665.014,666.0122,,,,,,,,,,,,,,,,,,,,,,,,,,666.0123,666.5619,m,1,0.5281,,666.562,666.5622,,0,309,309,117,1,118,nasip,1069,48.5711,1042,0.1139,5,notharmonic,1.8,word,m,,,,,,,
,,,,,,,,,,,,001,2023-11-09_11h32.23.369,vowel_harmony,2023.2.3,Win32,59.96641881,666.5628,667.5611,,,,,,,,,,,,,,,,,,,,,,,,,,667.5612,668.1427,z,1,0.5615,,668.1427,668.1428,,0,310,310,222,1,223,gelü,,,,,4,harmonic,1.75,nw,z,,,,,,,
,,,,,,,,,,,,001,2023-11-09_11h32.23.369,vowel_harmony,2023.2.3,Win32,59.96641881,668.1432,669.1419,,,,,,,,,,,,,,,,,,,,,,,,,,669.1419,669.8587,z,1,0.6988,,669.8588,669.8591,,0,311,311,328,1,329,kirul,,,,,5,notharmonic,1.95,nw,z,,,,,,,
,,,,,,,,,,,,001,2023-11-09_11h32.23.369,vowel_harmony,2023.2.3,Win32,59.96641881,669.8598,670.8576,,,,,,,,,,,,,,,,,,,,,,,,,,670.8577,671.457,z,1,0.5808,,671.457,671.4572,,0,312,312,324,1,325,pakeh,,,,,5,notharmonic,1.9,nw,z,,,,,,,
,,,,,,,,,,,,001,2023-11-09_11h32.23.369,vowel_harmony,2023.2.3,Win32,59.96641881,671.458,672.4562,,,,,,,,,,,,,,,,,,,,,,,,,,672.4562,673.0716,m,1,0.5887,,673.0717,673.0718,,0,313,313,166,1,167,maden,402,18.2653,339,0.0371,5,notharmonic,1.45,word,m,,,,,,,
,,,,,,,,,,,,001,2023-11-09_11h32.23.369,vowel_harmony,2023.2.3,Win32,59.96641881,673.0722,674.0707,,,,,,,,,,,,,,,,,,,,,,,,,,674.0707,674.6372,z,1,0.5439,,674.6372,674.6375,,0,314,314,306,1,307,otet,,,,,4,notharmonic,1.95,nw,z,,,,,,,
,,,,,,,,,,,,001,2023-11-09_11h32.23.369,vowel_harmony,2023.2.3,Win32,59.96641881,674.6383,675.6362,,,,,,,,,,,,,,,,,,,,,,,,,,675.6362,676.2516,m,1,0.5933,,676.2517,676.252,,0,315,315,11,1,12,umut,1988,90.3268,1818,0.1987,4,harmonic,1.55,word,m,,,,,,,
,,,,,,,,,,,,001,2023-11-09_11h32.23.369,vowel_harmony,2023.2.3,Win32,59.96641881,676.2527,677.2515,,,,,,,,,,,,,,,,,,,,,,,,,,677.2516,677.8175,z,1,0.5507,,677.8176,677.8179,,0,316,316,220,1,221,denbi,,,,,5,harmonic,1.75,nw,z,,,,,,,
,,,,,,,,,,,,001,2023-11-09_11h32.23.369,vowel_harmony,2023.2.3,Win32,59.96641881,677.8187,678.8168,,,,,,,,,,,,,,,,,,,,,,,,,,678.8168,679.4657,z,1,0.6242,,679.4658,679.4661,,0,317,317,238,1,239,kocı,,,,,4,harmonic,1.95,nw,z,,,,,,,
,,,,,,,,,,,,001,2023-11-09_11h32.23.369,vowel_harmony,2023.2.3,Win32,59.96641881,679.4668,680.4647,,,,,,,,,,,,,,,,,,,,,,,,,,680.4647,681.3635,z,1,0.8801,,681.3635,681.3638,,0,318,318,180,1,181,ayaro,,,,,5,harmonic,1.8,nw,z,,,,,,,
,,,,,,,,,,,,001,2023-11-09_11h32.23.369,vowel_harmony,2023.2.3,Win32,59.96641881,681.3644,682.3629,,,,,,,,,,,,,,,,,,,,,,,,,,682.363,682.9624,m,1,0.5751,,682.9624,682.9627,,0,319,319,27,1,28,bölge,1283,58.2944,1123,0.1228,5,harmonic,1.65,word,m,,,,,,,
,,,,,,,,,,,,001,2023-11-09_11h32.23.369,vowel_harmony,2023.2.3,Win32,59.96641881,682.9634,683.9612,,,,,,,,,,,,,,,,,,,,,,,,,,683.9612,684.5601,m,1,0.5786,,684.5601,684.5602,,0,320,320,114,1,115,nisan,2321,105.457,2044,0.2235,5,notharmonic,1.6,word,m,,,,,,,
,,,,,,,,,,,,001,2023-11-09_11h32.23.369,vowel_harmony,2023.2.3,Win32,59.96641881,684.5609,685.5603,,,,,,,,,,,,,,,,,,,,,,,,,,685.5603,686.2093,m,1,0.6245,,686.2093,686.2095,,0,321,321,25,1,26,rapor,703,31.9415,617,0.0675,5,harmonic,1.8,word,m,,,,,,,
,,,,,,,,,,,,001,2023-11-09_11h32.23.369,vowel_harmony,2023.2.3,Win32,59.96641881,686.2102,687.2082,,,,,,,,,,,,,,,,,,,,,,,,,,687.2082,687.8742,z,1,0.6487,,687.8743,687.8747,,0,322,322,259,1,260,hayuk,,,,,5,harmonic,1.95,nw,z,,,,,,,
,,,,,,,,,,,,001,2023-11-09_11h32.23.369,vowel_harmony,2023.2.3,Win32,59.96641881,687.8755,688.8734,,,,,,,,,,,,,,,,,,,,,,,,,,688.8736,689.5896,m,1,0.6922,,689.5897,689.59,,0,323,323,137,1,138,parti,2613,118.7244,2059,0.2251,5,notharmonic,1.8,word,m,,,,,,,
,,,,,,,,,,,,001,2023-11-09_11h32.23.369,vowel_harmony,2023.2.3,Win32,59.96641881,689.5908,690.5882,,,,,,,,,,,,,,,,,,,,,,,,,,690.5883,691.3044,m,1,0.6871,,691.3046,691.3048,,0,324,324,24,1,25,yorgun,1153,52.3877,1108,0.1211,6,harmonic,1.55,word,m,,,,,,,
,,,,,,,,,,,,001,2023-11-09_11h32.23.369,vowel_harmony,2023.2.3,Win32,59.96641881,691.3056,692.3035,,,,,,,,,,,,,,,,,,,,,,,,,,692.3036,692.9033,z,1,0.5701,,692.9033,692.9037,,0,325,325,217,1,218,sanfız,,,,,6,harmonic,1.85,nw,z,,,,,,,
,,,,,,,,,,,,001,2023-11-09_11h32.23.369,vowel_harmony,2023.2.3,Win32,59.96641881,692.9044,693.9013,,,,,,,,,,,,,,,,,,,,,,,,,,693.9014,694.739,m,1,0.817,,694.7391,694.7393,,0,326,326,50,1,51,kanun,1198,54.4324,1010,0.1104,5,harmonic,1.6,word,m,,,,,,,
,,,,,,,,,,,,001,2023-11-09_11h32.23.369,vowel_harmony,2023.2.3,Win32,59.96641881,694.74,695.7326,,,,,,,,,,,,,,,,,,,,,,,,,,695.7326,696.4163,z,1,0.6552,,696.4164,696.4167,,0,327,327,299,1,300,fihal,,,,,5,notharmonic,1.95,nw,z,,,,,,,
,,,,,,,,,,,,001,2023-11-09_11h32.23.369,vowel_harmony,2023.2.3,Win32,59.96641881,696.4175,697.4154,,,,,,,,,,,,,,,,,,,,,,,,,,697.4155,697.9482,m,1,0.5116,,697.9482,697.9485,,0,328,328,105,1,106,sahip,10887,494.6621,9847,1.0765,5,notharmonic,1.25,word,m,,,,,,,
,,,,,,,,,,,,001,2023-11-09_11h32.23.369,vowel_harmony,2023.2.3,Win32,59.96641881,697.9491,698.9469,,,,,,,,,,,,,,,,,,,,,,,,,,698.947,699.5961,z,1,0.6216,,699.5963,699.5965,,0,329,329,255,1,256,yokın,,,,,5,harmonic,1.85,nw,z,,,,,,,
,,,,,,,,,,,,001,2023-11-09_11h32.23.369,vowel_harmony,2023.2.3,Win32,59.96641881,699.5971,700.5951,,,,,,,,,,,,,,,,,,,,,,,,,,700.5952,701.3948,z,1,0.7753,,701.3949,701.3951,,0,330,330,284,1,285,deval,,,,,5,notharmonic,1.75,nw,z,,,,,,,
,,,,,,,,,,,,001,2023-11-09_11h32.23.369,vowel_harmony,2023.2.3,Win32,59.96641881,701.3958,702.3939,,,,,,,,,,,,,,,,,,,,,,,,,,702.394,702.9434,m,1,0.5235,,702.9434,702.9436,,0,331,331,136,1,137,beyaz,5517,250.6706,4788,0.5234,5,notharmonic,1.85,word,m,,,,,,,
,,,,,,,,,,,,001,2023-11-09_11h32.23.369,vowel_harmony,2023.2.3,Win32,59.96641881,702.9447,703.9422,,,,,,,,,,,,,,,,,,,,,,,,,,703.9426,704.4585,m,1,0.4888,,704.4586,704.4587,,0,332,332,131,1,132,hakim,1677,76.1962,1559,0.1704,5,notharmonic,1,word,m,,,,,,,
,,,,,,,,,,,,001,2023-11-09_11h32.23.369,vowel_harmony,2023.2.3,Win32,59.96641881,704.4596,705.461,,,,,,,,,,,,,,,,,,,,,,,,,,705.4611,706.1736,z,1,0.6949,,706.1737,706.174,,0,333,333,337,1,338,bakem,,,,,5,notharmonic,1.7,nw,z,,,,,,,
,,,,,,,,,,,,001,2023-11-09_11h32.23.369,vowel_harmony,2023.2.3,Win32,59.96641881,706.1748,707.1729,,,,,,,,,,,,,,,,,,,,,,,,,,707.1729,708.0042,z,1,0.804,,708.0043,708.0045,,0,334,334,190,1,191,reklen,,,,,6,harmonic,1.8,nw,z,,,,,,,
,,,,,,,,,,,,001,2023-11-09_11h32.23.369,vowel_harmony,2023.2.3,Win32,59.96641881,708.0054,709.0035,,,,,,,,,,,,,,,,,,,,,,,,,,709.0036,709.8699,z,1,0.8376,,709.87,709.8702,,0,335,335,181,1,182,rapkı,,,,,5,harmonic,1.85,nw,z,,,,,,,
,,,,,,,,,,,,001,2023-11-09_11h32.23.369,vowel_harmony,2023.2.3,Win32,59.96641881,709.8709,710.8668,,,,,,,,,,,,,,,,,,,,,,,,,,710.8668,711.4209,z,1,0.5334,,711.421,711.421,,0,336,336,252,1,253,anlgı,,,,,5,harmonic,1.9,nw,z,,,,,,,
,,,,,,,,,,,,001,2023-11-09_11h32.23.369,vowel_harmony,2023.2.3,Win32,59.96641881,711.4212,712.4158,,,,,,,,,,,,,,,,,,,,,,,,,,712.416,712.9315,m,1,0.4841,,712.9315,712.9315,,0,337,337,95,1,96,takip,4996,226.9984,4651,0.5084,5,notharmonic,1.55,word,m,,,,,,,
,,,,,,,,,,,,001,2023-11-09_11h32.23.369,vowel_harmony,2023.2.3,Win32,59.96641881,712.932,713.9304,,,,,,,,,,,,,,,,,,,,,,,,,,713.9304,714.4799,z,1,0.5171,,714.4799,714.48,,0,338,338,334,1,335,işgan,,,,,5,notharmonic,1.95,nw,z,,,,,,,
,,,,,,,,,,,,001,2023-11-09_11h32.23.369,vowel_harmony,2023.2.3,Win32,59.96641881,714.4802,715.4844,,,,,,,,,,,,,,,,,,,,,,,,,,715.4844,715.9635,m,1,0.4577,,715.9636,715.9639,,0,339,339,123,1,124,haber,4559,207.1429,4151,0.4538,5,notharmonic,1.85,word,m,,,,,,,
,,,,,,,,,,,,001,2023-11-09_11h32.23.369,vowel_harmony,2023.2.3,Win32,59.96641881,715.9645,716.9622,,,,,,,,,,,,,,,,,,,,,,,,,,716.9624,717.5455,m,1,0.5577,,717.5455,717.5458,,0,340,340,7,1,8,hizmet,3023,137.3531,2689,0.294,6,harmonic,1.75,word,m,,,,,,,
,,,,,,,,,,,,001,2023-11-09_11h32.23.369,vowel_harmony,2023.2.3,Win32,59.96641881,717.5464,718.5479,,,,,,,,,,,,,,,,,,,,,,,,,,718.5479,719.0816,m,1,0.5174,,719.0817,719.082,,0,341,341,132,1,133,modern,2326,105.6842,2031,0.222,6,notharmonic,1.85,word,m,,,,,,,
,,,,,,,,,,,,001,2023-11-09_11h32.23.369,vowel_harmony,2023.2.3,Win32,59.96641881,719.0826,720.0799,,,,,,,,,,,,,,,,,,,,,,,,,,720.08,720.5252,m,1,0.4198,,720.5254,720.5256,,0,342,342,74,1,75,başarı,1398,63.5196,1300,0.1421,6,harmonic,1.2,word,m,,,,,,,
,,,,,,,,,,,,001,2023-11-09_11h32.23.369,vowel_harmony,2023.2.3,Win32,59.96641881,720.5265,721.5241,,,,,,,,,,,,,,,,,,,,,,,,,,721.5242,721.9248,m,1,0.3793,,721.9249,721.9251,,0,343,343,174,1,175,bugün,13879,630.6067,12842,1.4039,5,notharmonic,1.85,word,m,,,,,,,
,,,,,,,,,,,,001,2023-11-09_11h32.23.369,vowel_harmony,2023.2.3,Win32,59.96641881,721.9258,722.9237,,,,,,,,,,,,,,,,,,,,,,,,,,722.9238,723.5388,z,1,0.5886,,723.539,723.5392,,0,344,344,303,1,304,fisor,,,,,5,notharmonic,1.9,nw,z,,,,,,,
,,,,,,,,,,,,001,2023-11-09_11h32.23.369,vowel_harmony,2023.2.3,Win32,59.96641881,723.54,724.5385,,,,,,,,,,,,,,,,,,,,,,,,,,724.5387,725.1047,m,1,0.5387,,725.1049,725.105,,0,345,345,98,1,99,paket,1532,69.608,1392,0.1522,5,notharmonic,1.55,word,m,,,,,,,
,,,,,,,,,,,,001,2023-11-09_11h32.23.369,vowel_harmony,2023.2.3,Win32,59.96641881,725.1058,726.1035,,,,,,,,,,,,,,,,,,,,,,,,,,726.1036,726.6865,m,1,0.5546,,726.6867,726.687,,0,346,346,35,1,36,hava,4975,226.0443,4398,0.4808,4,harmonic,1,word,m,,,,,,,
,,,,,,,,,,,,001,2023-11-09_11h32.23.369,vowel_harmony,2023.2.3,Win32,59.96641881,726.6879,727.6858,,,,,,,,,,,,,,,,,,,,,,,,,,727.6858,728.3849,z,1,0.6694,,728.3852,728.3853,,0,347,347,297,1,298,sapet,,,,,5,notharmonic,1.85,nw,z,,,,,,,
,,,,,,,,,,,,001,2023-11-09_11h32.23.369,vowel_harmony,2023.2.3,Win32,59.96641881,728.386,729.3839,,,,,,,,,,,,,,,,,,,,,,,,,,729.384,730.2498,m,1,0.8389,,730.2499,730.2502,,0,348,348,33,1,34,moda,1381,62.7472,1231,0.1346,4,harmonic,1.55,word,m,,,,,,,
,,,,,,,,,,,,001,2023-11-09_11h32.23.369,vowel_harmony,2023.2.3,Win32,59.96641881,730.251,731.2489,,,,,,,,,,,,,,,,,,,,,,,,,,731.249,732.0976,z,1,0.8174,,732.0978,732.0981,,0,349,349,320,1,321,finak,,,,,5,notharmonic,1.85,nw,z,,,,,,,
,,,,,,,,,,,,001,2023-11-09_11h32.23.369,vowel_harmony,2023.2.3,Win32,59.96641881,732.0986,733.0965,,,,,,,,,,,,,,,,,,,,,,,,,,733.0966,733.7671,m,1,0.6509,,733.7671,733.7673,,0,350,350,147,1,148,işaret,1888,85.7832,1787,0.1954,6,notharmonic,1,word,m,,,,,,,
,,,,,,,,,,,,001,2023-11-09_11h32.23.369,vowel_harmony,2023.2.3,Win32,59.96641881,733.7679,734.7623,,,,,,,,,,,,,,,,,,,,,,,,,,734.7624,735.4108,z,1,0.6243,,735.4109,735.4111,,0,351,351,305,1,306,tamü,,,,,4,notharmonic,1.75,nw,z,,,,,,,
,,,,,,,,,,,,001,2023-11-09_11h32.23.369,vowel_harmony,2023.2.3,Win32,59.96641881,735.4118,736.4105,,,,,,,,,,,,,,,,,,,,,,,,,,736.4106,737.0474,z,1,0.6176,,737.0475,737.0477,,0,352,352,274,1,275,pisan,,,,,5,notharmonic,1.75,nw,z,,,,,,,
,,,,,,,,,,,,001,2023-11-09_11h32.23.369,vowel_harmony,2023.2.3,Win32,59.96641881,737.0485,738.0423,,,,,,,,,,,,,,,,,,,,,,,,,,738.0424,738.7407,z,1,0.6747,,738.7408,738.741,,0,353,353,309,1,310,yorgen,,,,,6,notharmonic,1.9,nw,z,,,,,,,
,,,,,,,,,,,,001,2023-11-09_11h32.23.369,vowel_harmony,2023.2.3,Win32,59.96641881,738.7417,739.74,,,,,,,,,,,,,,,,,,,,,,,,,,739.7402,740.1068,m,0,0.3455,,740.1069,740.1071,,0,354,354,263,1,264,duzur,,,,,5,harmonic,1.8,nw,z,,,,,,,
,,,,,,,,,,,,001,2023-11-09_11h32.23.369,vowel_harmony,2023.2.3,Win32,59.96641881,740.1078,741.1059,,,,,,,,,,,,,,,,,,,,,,,,,,741.1059,741.8589,z,1,0.7334,,741.8589,741.859,,0,355,355,346,1,347,kidan,,,,,5,notharmonic,1.8,nw,z,,,,,,,
,,,,,,,,,,,,001,2023-11-09_11h32.23.369,vowel_harmony,2023.2.3,Win32,59.96641881,741.8597,742.8539,,,,,,,,,,,,,,,,,,,,,,,,,,742.854,743.4364,z,1,0.5569,,743.4366,743.437,,0,356,356,218,1,219,tezöl,,,,,5,harmonic,2,nw,z,,,,,,,
,,,,,,,,,,,,001,2023-11-09_11h32.23.369,vowel_harmony,2023.2.3,Win32,59.96641881,743.4378,744.4355,,,,,,,,,,,,,,,,,,,,,,,,,,744.4357,745.0008,z,1,0.5434,,745.0009,745.0011,,0,357,357,228,1,229,haytam,,,,,6,harmonic,1.75,nw,z,,,,,,,
,,,,,,,,,,,,001,2023-11-09_11h32.23.369,vowel_harmony,2023.2.3,Win32,59.96641881,745.0021,746.0012,,,,,,,,,,,,,,,,,,,,,,,,,,746.0013,746.617,m,1,0.5924,,746.6172,746.6175,,0,358,358,154,1,155,sakin,1855,84.2838,1635,0.1787,5,notharmonic,1.05,word,m,,,,,,,
,,,,,,,,,,,,001,2023-11-09_11h32.23.369,vowel_harmony,2023.2.3,Win32,59.96641881,746.6183,747.616,,,,,,,,,,,,,,,,,,,,,,,,,,747.6162,748.1989,m,1,0.5537,,748.199,748.1993,,0,359,359,89,1,90,etki,1234,56.0681,1169,0.1278,4,harmonic,1.4,word,m,,,,,,,
,,,,,,,,,,,,001,2023-11-09_11h32.23.369,vowel_harmony,2023.2.3,Win32,59.96641881,,,,,,,,,,,,,,,,,,,,,,,,,,,,,,,,,,,,,,,,,,,,,,,,,,,,,,,748.2009,750.3806,space,2.1581,