Welcome_screen.started,Welcome_screen.stopped,key_respwelcome.keys,key_respwelcome.rt,key_respwelcome.duration,intro_x.thisRepN,intro_x.thisTrialN,intro_x.thisN,intro_x.thisIndex,intro_x.ran,Introduction,participant,session,date,expName,psychopyVersion,OS,frameRate,Fixation.started,Fixation.stopped,Studypractice.started,Studypractice.stopped,key_respstudy.keys,key_respstudy.corr,key_respstudy.rt,key_respstudy.duration,rt,corr,Feedback.started,Feedback.stopped,practice_loop.thisRepN,practice_loop.thisTrialN,practice_loop.thisN,practice_loop.thisIndex,practice_loop.ran,item_nr_p,target_p,isHarmonic_p,target_cond_p,CorrAns_p,Instraction.started,Instraction.stopped,key_respınstraction.keys,key_respınstraction.rt,key_respınstraction.duration,TestTrial.started,TestTrial.stopped,key_respTest.keys,key_respTest.corr,key_respTest.rt,key_respTest.duration,Pause.started,Pause.stopped,key_resp_xx.keys,test_loop.thisRepN,test_loop.thisTrialN,test_loop.thisN,test_loop.thisIndex,test_loop.ran,item_nr,target,BlogFreq_A1,BlogFreqpm_A1,BlogCD_A1,BlogCDPc_A1,WordLength_A1,isHarmonic_A1,old20,target_cond,CorrAns,key_resp_xx.rt,key_resp_xx.duration,Goodbye_screen.started,Goodbye_screen.stopped,key_respgoodbye.keys,key_respgoodbye.rt,key_respgoodbye.duration
0.0111,2.1749,space,2.1398,,0,0,0,0,1,"Deneye hoş geldiniz,

Devam etmek için BOŞLUK tuşuna basınız.",,001,2023-11-08_24h06.32.116,vowel_harmony,2023.2.3,Win32,60.21919788,,,,,,,,,,,,,,,,,,,,,,,,,,,,,,,,,,,,,,,,,,,,,,,,,,,,,,,,,,,
2.1756,13.9243,space,11.726,,0,1,1,1,1,"Bu çalışma Valencia Üniversitesi kapsamında yürütülmektedir. Deneydeki göreviniz, ekrana çıkacak Türkçe sözcüklerin kelime olup olmadığını belirlemenizdir. Eğer sözcük gerçek bir kelime ise ""m"" tuşuna, değil ise ""z"" tuşuna basınız.   

Devam etmek için BOŞLUK tuşuna basınız.",,001,2023-11-08_24h06.32.116,vowel_harmony,2023.2.3,Win32,60.21919788,,,,,,,,,,,,,,,,,,,,,,,,,,,,,,,,,,,,,,,,,,,,,,,,,,,,,,,,,,,
13.9246,18.8251,space,4.8933,,0,2,2,2,1,"Her sözcük için en fazla iki saniyede cevap vermeniz beklenmektedir. Aksi takdirde deney bir sonraki sözcük ile devam eder. 
Bu çalışmada oldukça hızlı ve doğru cevaplama yapmanız beklenmektedir.

Devam etmek için BOŞLUK tuşuna basınız.",,001,2023-11-08_24h06.32.116,vowel_harmony,2023.2.3,Win32,60.21919788,,,,,,,,,,,,,,,,,,,,,,,,,,,,,,,,,,,,,,,,,,,,,,,,,,,,,,,,,,,
18.8254,23.7419,space,4.8944,,0,3,3,3,1,"Çalışmaya başlamadan önce ufak bir pratik yer almaktadır.
Kelimedir: ""m""
Kelime değildir: ""z""

Pratik teste başlamak için BOŞLUK tuşuna basınız. ",,001,2023-11-08_24h06.32.116,vowel_harmony,2023.2.3,Win32,60.21919788,,,,,,,,,,,,,,,,,,,,,,,,,,,,,,,,,,,,,,,,,,,,,,,,,,,,,,,,,,,
,,,,,,,,,,,,001,2023-11-08_24h06.32.116,vowel_harmony,2023.2.3,Win32,60.21919788,23.7502,24.7416,24.7416,25.4921,m,0,0.7238,,0.7238,0,25.4923,26.9913,0,0,0,12,1,13,ihlot,notharmonic,nw,z,,,,,,,,,,,,,,,,,,,,,,,,,,,,,,,,,,,,,
,,,,,,,,,,,,001,2023-11-08_24h06.32.116,vowel_harmony,2023.2.3,Win32,60.21919788,26.9917,27.9913,27.9913,28.1246,z,0,0.1147,,0.1147,0,28.1246,29.6249,0,1,1,4,1,5,mimar,notharmonic,word,m,,,,,,,,,,,,,,,,,,,,,,,,,,,,,,,,,,,,,
,,,,,,,,,,,,001,2023-11-08_24h06.32.116,vowel_harmony,2023.2.3,Win32,60.21919788,29.625,30.6254,30.6254,31.5079,z,1,0.8656,,0.8656,1,31.5079,33.0088,0,2,2,13,1,14,pilar,notharmonic,nw,z,,,,,,,,,,,,,,,,,,,,,,,,,,,,,,,,,,,,,
,,,,,,,,,,,,001,2023-11-08_24h06.32.116,vowel_harmony,2023.2.3,Win32,60.21919788,33.0091,34.0083,34.0083,34.7914,z,1,0.7654,,0.7654,1,34.7915,36.2921,0,3,3,15,1,16,mımal,harmonic,nw,z,,,,,,,,,,,,,,,,,,,,,,,,,,,,,,,,,,,,,
,,,,,,,,,,,,001,2023-11-08_24h06.32.116,vowel_harmony,2023.2.3,Win32,60.21919788,36.2925,37.2915,37.2915,38.1581,m,1,0.8564,,0.8564,1,38.1581,39.6583,0,4,4,6,1,7,pilot,notharmonic,word,m,,,,,,,,,,,,,,,,,,,,,,,,,,,,,,,,,,,,,
,,,,,,,,,,,,001,2023-11-08_24h06.32.116,vowel_harmony,2023.2.3,Win32,60.21919788,39.6585,40.6582,40.6582,41.4917,z,1,0.8247,,0.8247,1,41.4917,42.9918,0,5,5,9,1,10,orat,harmonic,nw,z,,,,,,,,,,,,,,,,,,,,,,,,,,,,,,,,,,,,,
,,,,,,,,,,,,001,2023-11-08_24h06.32.116,vowel_harmony,2023.2.3,Win32,60.21919788,42.9921,43.9918,43.9919,44.725,z,1,0.7133,,0.7133,1,44.7251,46.2249,0,6,6,14,1,15,pimer,harmonic,nw,z,,,,,,,,,,,,,,,,,,,,,,,,,,,,,,,,,,,,,
,,,,,,,,,,,,001,2023-11-08_24h06.32.116,vowel_harmony,2023.2.3,Win32,60.21919788,46.2252,47.225,47.2251,47.9916,m,1,0.7624,,0.7624,1,47.9917,49.4917,0,7,7,3,1,4,ihlal,notharmonic,word,m,,,,,,,,,,,,,,,,,,,,,,,,,,,,,,,,,,,,,
,,,,,,,,,,,,001,2023-11-08_24h06.32.116,vowel_harmony,2023.2.3,Win32,60.21919788,49.4919,50.4917,50.4918,51.5754,m,0,1.0642,,1.0642,0,51.5755,53.0757,0,8,8,10,1,11,mahne,notharmonic,nw,z,,,,,,,,,,,,,,,,,,,,,,,,,,,,,,,,,,,,,
,,,,,,,,,,,,001,2023-11-08_24h06.32.116,vowel_harmony,2023.2.3,Win32,60.21919788,53.0759,54.0759,54.0759,54.7586,m,1,0.6708,,0.6708,1,54.7587,56.2594,0,9,9,5,1,6,bahçe,notharmonic,word,m,,,,,,,,,,,,,,,,,,,,,,,,,,,,,,,,,,,,,
,,,,,,,,,,,,001,2023-11-08_24h06.32.116,vowel_harmony,2023.2.3,Win32,60.21919788,56.26,57.259,57.259,57.8922,m,1,0.6227,,0.6227,1,57.8922,59.392,0,10,10,2,1,3,memur,notharmonic,word,m,,,,,,,,,,,,,,,,,,,,,,,,,,,,,,,,,,,,,
,,,,,,,,,,,,001,2023-11-08_24h06.32.116,vowel_harmony,2023.2.3,Win32,60.21919788,59.3923,60.3919,60.392,61.1254,m,1,0.7183,,0.7183,1,61.1254,62.6253,0,11,11,7,1,8,oran,harmonic,word,m,,,,,,,,,,,,,,,,,,,,,,,,,,,,,,,,,,,,,
,,,,,,,,,,,,001,2023-11-08_24h06.32.116,vowel_harmony,2023.2.3,Win32,60.21919788,62.6256,63.6255,63.6255,64.3925,z,1,0.7451,,0.7451,1,64.3925,65.8922,0,12,12,8,1,9,tahip,notharmonic,nw,z,,,,,,,,,,,,,,,,,,,,,,,,,,,,,,,,,,,,,
,,,,,,,,,,,,001,2023-11-08_24h06.32.116,vowel_harmony,2023.2.3,Win32,60.21919788,65.8925,66.8926,66.8926,67.659,z,1,0.7563,,0.7563,1,67.659,69.1589,0,13,13,11,1,12,geki,harmonic,nw,z,,,,,,,,,,,,,,,,,,,,,,,,,,,,,,,,,,,,,
,,,,,,,,,,,,001,2023-11-08_24h06.32.116,vowel_harmony,2023.2.3,Win32,60.21919788,69.159,70.1588,70.1589,70.8093,m,1,0.6451,,0.6451,1,70.8094,72.3092,0,14,14,0,1,1,ihale,notharmonic,word,m,,,,,,,,,,,,,,,,,,,,,,,,,,,,,,,,,,,,,
,,,,,,,,,,,,001,2023-11-08_24h06.32.116,vowel_harmony,2023.2.3,Win32,60.21919788,72.3095,73.3093,73.3094,73.9591,m,1,0.6366,,0.6366,1,73.9592,75.4593,0,15,15,1,1,2,veri,harmonic,word,m,,,,,,,,,,,,,,,,,,,,,,,,,,,,,,,,,,,,,
,,,,,,,,,,,,001,2023-11-08_24h06.32.116,vowel_harmony,2023.2.3,Win32,60.21919788,,,,,,,,,,,,,,,,,,,,,,,75.4599,81.0761,space,5.5971,,,,,,,,,,,,,,,,,,,,,,,,,,,,,,,,,
,,,,,,,,,,,,001,2023-11-08_24h06.32.116,vowel_harmony,2023.2.3,Win32,60.21919788,81.1153,82.0926,,,,,,,,,,,,,,,,,,,,,,,,,,82.0929,82.8764,z,1,0.7715,,82.8765,82.8775,,0,0,0,272,1,273,daken,,,,,5,notharmonic,1.8,nw,z,,,,,,,
,,,,,,,,,,,,001,2023-11-08_24h06.32.116,vowel_harmony,2023.2.3,Win32,60.21919788,82.8776,83.876,,,,,,,,,,,,,,,,,,,,,,,,,,83.876,84.4426,m,1,0.5557,,84.4426,84.4427,,0,1,1,108,1,109,tarih,2806,127.4935,2483,0.2714,5,notharmonic,1.55,word,m,,,,,,,
,,,,,,,,,,,,001,2023-11-08_24h06.32.116,vowel_harmony,2023.2.3,Win32,60.21919788,84.4429,85.4433,,,,,,,,,,,,,,,,,,,,,,,,,,85.4434,86.2593,z,1,0.7994,,86.2593,86.2594,,0,2,2,193,1,194,yokın,,,,,5,harmonic,1.85,nw,z,,,,,,,
,,,,,,,,,,,,001,2023-11-08_24h06.32.116,vowel_harmony,2023.2.3,Win32,60.21919788,86.2595,87.2594,,,,,,,,,,,,,,,,,,,,,,,,,,87.2595,88.243,z,1,0.9769,,88.243,88.2431,,0,3,3,228,1,229,haytam,,,,,6,harmonic,1.75,nw,z,,,,,,,
,,,,,,,,,,,,001,2023-11-08_24h06.32.116,vowel_harmony,2023.2.3,Win32,60.21919788,88.2433,89.2427,,,,,,,,,,,,,,,,,,,,,,,,,,89.2427,89.8928,m,1,0.6397,,89.8928,89.8929,,0,4,4,58,1,59,ayak,2143,97.3694,1931,0.2111,4,harmonic,1,word,m,,,,,,,
,,,,,,,,,,,,001,2023-11-08_24h06.32.116,vowel_harmony,2023.2.3,Win32,60.21919788,89.8931,90.8936,,,,,,,,,,,,,,,,,,,,,,,,,,90.8937,91.5093,m,1,0.603,,91.5093,91.5095,,0,5,5,141,1,142,madde,3793,172.3389,3389,0.3705,5,notharmonic,1.7,word,m,,,,,,,
,,,,,,,,,,,,001,2023-11-08_24h06.32.116,vowel_harmony,2023.2.3,Win32,60.21919788,91.5096,92.5096,,,,,,,,,,,,,,,,,,,,,,,,,,92.5096,93.2429,z,1,0.7264,,93.2429,93.243,,0,6,6,286,1,287,cedan,,,,,5,notharmonic,1.8,nw,z,,,,,,,
,,,,,,,,,,,,001,2023-11-08_24h06.32.116,vowel_harmony,2023.2.3,Win32,60.21919788,93.2431,94.2428,,,,,,,,,,,,,,,,,,,,,,,,,,94.2428,94.9429,z,1,0.6887,,94.9429,94.943,,0,7,7,217,1,218,sanfız,,,,,6,harmonic,1.85,nw,z,,,,,,,
,,,,,,,,,,,,001,2023-11-08_24h06.32.116,vowel_harmony,2023.2.3,Win32,60.21919788,94.9431,95.9428,,,,,,,,,,,,,,,,,,,,,,,,,,95.9428,96.6429,z,1,0.6841,,96.6429,96.643,,0,8,8,238,1,239,kocı,,,,,4,harmonic,1.95,nw,z,,,,,,,
,,,,,,,,,,,,001,2023-11-08_24h06.32.116,vowel_harmony,2023.2.3,Win32,60.21919788,96.6432,97.6434,,,,,,,,,,,,,,,,,,,,,,,,,,97.6435,98.1929,m,1,0.5425,,98.1929,98.193,,0,9,9,56,1,57,sağlam,1818,82.6027,1720,0.188,6,harmonic,1.6,word,m,,,,,,,
,,,,,,,,,,,,001,2023-11-08_24h06.32.116,vowel_harmony,2023.2.3,Win32,60.21919788,98.1933,99.193,,,,,,,,,,,,,,,,,,,,,,,,,,99.1931,99.9263,z,1,0.7162,,99.9264,99.9264,,0,10,10,211,1,212,yarum,,,,,5,harmonic,1.75,nw,z,,,,,,,
,,,,,,,,,,,,001,2023-11-08_24h06.32.116,vowel_harmony,2023.2.3,Win32,60.21919788,99.9266,100.9263,,,,,,,,,,,,,,,,,,,,,,,,,,100.9263,101.5439,m,1,0.5992,,101.544,101.5442,,0,11,11,74,1,75,başarı,1398,63.5196,1300,0.1421,6,harmonic,1.2,word,m,,,,,,,
,,,,,,,,,,,,001,2023-11-08_24h06.32.116,vowel_harmony,2023.2.3,Win32,60.21919788,101.5447,102.5436,,,,,,,,,,,,,,,,,,,,,,,,,,102.5436,103.1929,m,1,0.6398,,103.193,103.193,,0,12,12,153,1,154,inşaat,432,19.6284,376,0.0411,6,notharmonic,1.6,word,m,,,,,,,
,,,,,,,,,,,,001,2023-11-08_24h06.32.116,vowel_harmony,2023.2.3,Win32,60.21919788,103.1932,104.1931,,,,,,,,,,,,,,,,,,,,,,,,,,104.1931,104.8434,m,1,0.6423,,104.8434,104.8435,,0,13,13,50,1,51,kanun,1198,54.4324,1010,0.1104,5,harmonic,1.6,word,m,,,,,,,
,,,,,,,,,,,,001,2023-11-08_24h06.32.116,vowel_harmony,2023.2.3,Win32,60.21919788,104.8437,105.8432,,,,,,,,,,,,,,,,,,,,,,,,,,105.8432,106.4098,m,1,0.5554,,106.4098,106.4099,,0,14,14,11,1,12,umut,1988,90.3268,1818,0.1987,4,harmonic,1.55,word,m,,,,,,,
,,,,,,,,,,,,001,2023-11-08_24h06.32.116,vowel_harmony,2023.2.3,Win32,60.21919788,106.4101,107.41,,,,,,,,,,,,,,,,,,,,,,,,,,107.4101,108.1101,z,1,0.681,,108.1101,108.1102,,0,15,15,183,1,184,orkın,,,,,5,harmonic,1.9,nw,z,,,,,,,
,,,,,,,,,,,,001,2023-11-08_24h06.32.116,vowel_harmony,2023.2.3,Win32,60.21919788,108.1105,109.1099,,,,,,,,,,,,,,,,,,,,,,,,,,109.11,109.8449,z,1,0.7136,,109.845,109.8451,,0,16,16,305,1,306,tamü,,,,,4,notharmonic,1.75,nw,z,,,,,,,
,,,,,,,,,,,,001,2023-11-08_24h06.32.116,vowel_harmony,2023.2.3,Win32,60.21919788,109.846,110.8438,,,,,,,,,,,,,,,,,,,,,,,,,,110.8439,111.5598,z,1,0.7029,,111.5599,111.5599,,0,17,17,232,1,233,kanur,,,,,5,harmonic,1.7,nw,z,,,,,,,
,,,,,,,,,,,,001,2023-11-08_24h06.32.116,vowel_harmony,2023.2.3,Win32,60.21919788,111.5601,112.5598,,,,,,,,,,,,,,,,,,,,,,,,,,112.5599,113.1932,m,1,0.6268,,113.1932,113.1933,,0,18,18,41,1,42,zengin,2193,99.6412,2015,0.2203,6,harmonic,1.65,word,m,,,,,,,
,,,,,,,,,,,,001,2023-11-08_24h06.32.116,vowel_harmony,2023.2.3,Win32,60.21919788,113.1934,114.1933,,,,,,,,,,,,,,,,,,,,,,,,,,114.1933,114.8266,m,1,0.6266,,114.8266,114.8267,,0,19,19,124,1,125,ilan,1579,71.7435,1499,0.1639,4,notharmonic,1,word,m,,,,,,,
,,,,,,,,,,,,001,2023-11-08_24h06.32.116,vowel_harmony,2023.2.3,Win32,60.21919788,114.8269,115.8269,,,,,,,,,,,,,,,,,,,,,,,,,,115.8269,116.5937,z,1,0.7504,,116.5938,116.5939,,0,20,20,302,1,303,işgar,,,,,5,notharmonic,1.9,nw,z,,,,,,,
,,,,,,,,,,,,001,2023-11-08_24h06.32.116,vowel_harmony,2023.2.3,Win32,60.21919788,116.5941,117.5936,,,,,,,,,,,,,,,,,,,,,,,,,,117.5937,118.2769,z,1,0.6681,,118.2769,118.277,,0,21,21,235,1,236,oşup,,,,,4,harmonic,1.75,nw,z,,,,,,,
,,,,,,,,,,,,001,2023-11-08_24h06.32.116,vowel_harmony,2023.2.3,Win32,60.21919788,118.2772,119.2768,,,,,,,,,,,,,,,,,,,,,,,,,,119.2768,119.9436,z,1,0.6507,,119.9436,119.9436,,0,22,22,277,1,278,balsin,,,,,6,notharmonic,1.85,nw,z,,,,,,,
,,,,,,,,,,,,001,2023-11-08_24h06.32.116,vowel_harmony,2023.2.3,Win32,60.21919788,119.9438,120.9435,,,,,,,,,,,,,,,,,,,,,,,,,,120.9435,121.6268,z,1,0.668,,121.6268,121.6269,,0,23,23,303,1,304,fisor,,,,,5,notharmonic,1.9,nw,z,,,,,,,
,,,,,,,,,,,,001,2023-11-08_24h06.32.116,vowel_harmony,2023.2.3,Win32,60.21919788,121.6271,122.6273,,,,,,,,,,,,,,,,,,,,,,,,,,122.6273,123.3435,z,1,0.698,,123.3436,123.3436,,0,24,24,322,1,323,normin,,,,,6,notharmonic,1.95,nw,z,,,,,,,
,,,,,,,,,,,,001,2023-11-08_24h06.32.116,vowel_harmony,2023.2.3,Win32,60.21919788,123.3437,124.3436,,,,,,,,,,,,,,,,,,,,,,,,,,124.3438,124.9768,m,1,0.6267,,124.9768,124.9769,,0,25,25,22,1,23,anlam,1730,78.6043,1617,0.1768,5,harmonic,1.25,word,m,,,,,,,
,,,,,,,,,,,,001,2023-11-08_24h06.32.116,vowel_harmony,2023.2.3,Win32,60.21919788,124.9771,125.977,,,,,,,,,,,,,,,,,,,,,,,,,,125.977,126.6943,m,1,0.6986,,126.6944,126.6945,,0,26,26,107,1,108,merak,5806,263.8016,5524,0.6039,5,notharmonic,1.65,word,m,,,,,,,
,,,,,,,,,,,,001,2023-11-08_24h06.32.116,vowel_harmony,2023.2.3,Win32,60.21919788,126.695,127.6937,,,,,,,,,,,,,,,,,,,,,,,,,,127.6938,128.3773,m,1,0.6657,,128.3774,128.3775,,0,27,27,161,1,162,komik,1617,73.4701,1506,0.1646,5,notharmonic,1.75,word,m,,,,,,,
,,,,,,,,,,,,001,2023-11-08_24h06.32.116,vowel_harmony,2023.2.3,Win32,60.21919788,128.3778,129.3776,,,,,,,,,,,,,,,,,,,,,,,,,,129.3776,130.0604,m,1,0.6643,,130.0605,130.0605,,0,28,28,24,1,25,yorgun,1153,52.3877,1108,0.1211,6,harmonic,1.55,word,m,,,,,,,
,,,,,,,,,,,,001,2023-11-08_24h06.32.116,vowel_harmony,2023.2.3,Win32,60.21919788,130.0609,131.0606,,,,,,,,,,,,,,,,,,,,,,,,,,131.0606,131.7438,z,1,0.6662,,131.7439,131.7439,,0,29,29,264,1,265,vepü,,,,,4,harmonic,2,nw,z,,,,,,,
,,,,,,,,,,,,001,2023-11-08_24h06.32.116,vowel_harmony,2023.2.3,Win32,60.21919788,131.7441,132.7438,,,,,,,,,,,,,,,,,,,,,,,,,,132.7438,133.5437,z,1,0.7822,,133.5438,133.5438,,0,30,30,347,1,348,tekram,,,,,6,notharmonic,1.95,nw,z,,,,,,,
,,,,,,,,,,,,001,2023-11-08_24h06.32.116,vowel_harmony,2023.2.3,Win32,60.21919788,133.5441,134.544,,,,,,,,,,,,,,,,,,,,,,,,,,134.544,135.1949,z,1,0.633,,135.195,135.1951,,0,31,31,185,1,186,örtin,,,,,5,harmonic,1.9,nw,z,,,,,,,
,,,,,,,,,,,,001,2023-11-08_24h06.32.116,vowel_harmony,2023.2.3,Win32,60.21919788,135.1956,136.1944,,,,,,,,,,,,,,,,,,,,,,,,,,136.1945,136.8943,m,1,0.6869,,136.8944,136.8945,,0,32,32,172,1,173,milyar,1496,67.9723,1078,0.1178,6,notharmonic,1.85,word,m,,,,,,,
,,,,,,,,,,,,001,2023-11-08_24h06.32.116,vowel_harmony,2023.2.3,Win32,60.21919788,136.8957,137.894,,,,,,,,,,,,,,,,,,,,,,,,,,137.894,138.7439,z,1,0.834,,138.7439,138.744,,0,33,33,248,1,249,şegim,,,,,5,harmonic,1.9,nw,z,,,,,,,
,,,,,,,,,,,,001,2023-11-08_24h06.32.116,vowel_harmony,2023.2.3,Win32,60.21919788,138.7443,139.7439,,,,,,,,,,,,,,,,,,,,,,,,,,139.7439,140.7106,m,1,0.9493,,140.7106,140.7107,,0,34,34,66,1,67,sanık,768,34.8949,699,0.0764,5,harmonic,1.85,word,m,,,,,,,
,,,,,,,,,,,,001,2023-11-08_24h06.32.116,vowel_harmony,2023.2.3,Win32,60.21919788,140.7109,141.7105,,,,,,,,,,,,,,,,,,,,,,,,,,141.7106,142.4774,z,1,0.7588,,142.4774,142.4775,,0,35,35,279,1,280,tadde,,,,,5,notharmonic,1.8,nw,z,,,,,,,
,,,,,,,,,,,,001,2023-11-08_24h06.32.116,vowel_harmony,2023.2.3,Win32,60.21919788,142.4777,143.4776,,,,,,,,,,,,,,,,,,,,,,,,,,143.4777,144.1282,z,1,0.6451,,144.1282,144.1284,,0,36,36,202,1,203,güvin,,,,,5,harmonic,1.95,nw,z,,,,,,,
,,,,,,,,,,,,001,2023-11-08_24h06.32.116,vowel_harmony,2023.2.3,Win32,60.21919788,144.1295,145.1279,,,,,,,,,,,,,,,,,,,,,,,,,,145.1279,145.8441,z,1,0.697,,145.8441,145.8442,,0,37,37,308,1,309,hafer,,,,,5,notharmonic,1.85,nw,z,,,,,,,
,,,,,,,,,,,,001,2023-11-08_24h06.32.116,vowel_harmony,2023.2.3,Win32,60.21919788,145.8444,146.8441,,,,,,,,,,,,,,,,,,,,,,,,,,146.8441,147.4776,m,1,0.6231,,147.4776,147.4776,,0,38,38,176,1,177,harika,4682,212.7315,4422,0.4834,6,notharmonic,1.9,word,m,,,,,,,
,,,,,,,,,,,,001,2023-11-08_24h06.32.116,vowel_harmony,2023.2.3,Win32,60.21919788,147.4779,148.4776,,,,,,,,,,,,,,,,,,,,,,,,,,148.4776,149.1277,m,1,0.6373,,149.1277,149.1277,,0,39,39,138,1,139,kardeş,1270,57.7038,1174,0.1283,6,notharmonic,1.9,word,m,,,,,,,
,,,,,,,,,,,,001,2023-11-08_24h06.32.116,vowel_harmony,2023.2.3,Win32,60.21919788,149.128,150.1276,,,,,,,,,,,,,,,,,,,,,,,,,,150.1276,150.8776,z,1,0.735,,150.8776,150.8777,,0,40,40,180,1,181,ayaro,,,,,5,harmonic,1.8,nw,z,,,,,,,
,,,,,,,,,,,,001,2023-11-08_24h06.32.116,vowel_harmony,2023.2.3,Win32,60.21919788,150.8778,151.8775,,,,,,,,,,,,,,,,,,,,,,,,,,151.8776,152.6282,z,1,0.733,,152.6283,152.6283,,0,41,41,259,1,260,hayuk,,,,,5,harmonic,1.95,nw,z,,,,,,,
,,,,,,,,,,,,001,2023-11-08_24h06.32.116,vowel_harmony,2023.2.3,Win32,60.21919788,152.6286,153.6278,,,,,,,,,,,,,,,,,,,,,,,,,,153.6279,154.3276,z,1,0.6873,,154.3276,154.3276,,0,42,42,214,1,215,vecü,,,,,4,harmonic,1.95,nw,z,,,,,,,
,,,,,,,,,,,,001,2023-11-08_24h06.32.116,vowel_harmony,2023.2.3,Win32,60.21919788,154.3279,155.3278,,,,,,,,,,,,,,,,,,,,,,,,,,155.3279,155.9276,m,1,0.5849,,155.9276,155.9276,,0,43,43,10,1,11,bardak,1728,78.5135,1569,0.1715,6,harmonic,1.6,word,m,,,,,,,
,,,,,,,,,,,,001,2023-11-08_24h06.32.116,vowel_harmony,2023.2.3,Win32,60.21919788,155.9279,156.9278,,,,,,,,,,,,,,,,,,,,,,,,,,156.9278,157.5776,z,1,0.6332,,157.5777,157.5777,,0,44,44,218,1,219,tezöl,,,,,5,harmonic,2,nw,z,,,,,,,
,,,,,,,,,,,,001,2023-11-08_24h06.32.116,vowel_harmony,2023.2.3,Win32,60.21919788,157.5779,158.5776,,,,,,,,,,,,,,,,,,,,,,,,,,158.5776,159.1615,z,1,0.5678,,159.1616,159.1616,,0,45,45,282,1,283,taöz,,,,,4,notharmonic,1.9,nw,z,,,,,,,
,,,,,,,,,,,,001,2023-11-08_24h06.32.116,vowel_harmony,2023.2.3,Win32,60.21919788,159.1618,160.1615,,,,,,,,,,,,,,,,,,,,,,,,,,160.1615,160.7777,z,1,0.609,,160.7777,160.7778,,0,46,46,334,1,335,işgan,,,,,5,notharmonic,1.95,nw,z,,,,,,,
,,,,,,,,,,,,001,2023-11-08_24h06.32.116,vowel_harmony,2023.2.3,Win32,60.21919788,160.7779,161.7777,,,,,,,,,,,,,,,,,,,,,,,,,,161.7777,162.3953,z,1,0.609,,162.3953,162.3955,,0,47,47,221,1,222,yaypın,,,,,6,harmonic,1.75,nw,z,,,,,,,
,,,,,,,,,,,,001,2023-11-08_24h06.32.116,vowel_harmony,2023.2.3,Win32,60.21919788,162.396,163.3955,,,,,,,,,,,,,,,,,,,,,,,,,,163.3956,164.0612,m,1,0.6459,,164.0612,164.0613,,0,48,48,173,1,174,sade,1193,54.2052,1114,0.1218,4,notharmonic,1.55,word,m,,,,,,,
,,,,,,,,,,,,001,2023-11-08_24h06.32.116,vowel_harmony,2023.2.3,Win32,60.21919788,164.0614,165.062,,,,,,,,,,,,,,,,,,,,,,,,,,165.0621,165.7444,z,1,0.6674,,165.7445,165.7445,,0,49,49,352,1,353,yılden,,,,,6,notharmonic,1.8,nw,z,,,,,,,
,,,,,,,,,,,,001,2023-11-08_24h06.32.116,vowel_harmony,2023.2.3,Win32,60.21919788,165.7448,166.7446,,,,,,,,,,,,,,,,,,,,,,,,,,166.7446,167.3612,z,1,0.6106,,167.3612,167.3613,,0,50,50,320,1,321,finak,,,,,5,notharmonic,1.85,nw,z,,,,,,,
,,,,,,,,,,,,001,2023-11-08_24h06.32.116,vowel_harmony,2023.2.3,Win32,60.21919788,167.3615,168.3622,,,,,,,,,,,,,,,,,,,,,,,,,,168.3623,168.9279,z,1,0.5592,,168.9279,168.928,,0,51,51,274,1,275,pisan,,,,,5,notharmonic,1.75,nw,z,,,,,,,
,,,,,,,,,,,,001,2023-11-08_24h06.32.116,vowel_harmony,2023.2.3,Win32,60.21919788,168.9281,169.9281,,,,,,,,,,,,,,,,,,,,,,,,,,169.9282,170.5279,m,1,0.5911,,170.5279,170.528,,0,52,52,122,1,123,devam,17666,802.673,16284,1.7802,5,notharmonic,1.55,word,m,,,,,,,
,,,,,,,,,,,,001,2023-11-08_24h06.32.116,vowel_harmony,2023.2.3,Win32,60.21919788,170.5282,171.5281,,,,,,,,,,,,,,,,,,,,,,,,,,171.5281,172.2113,z,1,0.6643,,172.2113,172.2113,,0,53,53,346,1,347,kidan,,,,,5,notharmonic,1.8,nw,z,,,,,,,
,,,,,,,,,,,,001,2023-11-08_24h06.32.116,vowel_harmony,2023.2.3,Win32,60.21919788,172.2115,173.2112,,,,,,,,,,,,,,,,,,,,,,,,,,173.2113,173.8114,m,1,0.585,,173.8115,173.8115,,0,54,54,170,1,171,basit,3385,153.801,3177,0.3473,5,notharmonic,1.65,word,m,,,,,,,
,,,,,,,,,,,,001,2023-11-08_24h06.32.116,vowel_harmony,2023.2.3,Win32,60.21919788,173.8117,174.8114,,,,,,,,,,,,,,,,,,,,,,,,,,174.8114,175.3781,z,1,0.5507,,175.3781,175.3782,,0,55,55,314,1,315,seral,,,,,5,notharmonic,1.7,nw,z,,,,,,,
,,,,,,,,,,,,001,2023-11-08_24h06.32.116,vowel_harmony,2023.2.3,Win32,60.21919788,175.3784,176.3781,,,,,,,,,,,,,,,,,,,,,,,,,,176.3781,176.9615,z,1,0.5779,,176.9615,176.9616,,0,56,56,224,1,225,ertre,,,,,5,harmonic,1.95,nw,z,,,,,,,
,,,,,,,,,,,,001,2023-11-08_24h06.32.116,vowel_harmony,2023.2.3,Win32,60.21919788,176.9618,177.9617,,,,,,,,,,,,,,,,,,,,,,,,,,177.9617,178.6615,z,1,0.6851,,178.6616,178.6616,,0,57,57,294,1,295,mesap,,,,,5,notharmonic,1.8,nw,z,,,,,,,
,,,,,,,,,,,,001,2023-11-08_24h06.32.116,vowel_harmony,2023.2.3,Win32,60.21919788,178.6619,179.6617,,,,,,,,,,,,,,,,,,,,,,,,,,179.6617,180.3115,z,1,0.6299,,180.3115,180.3116,,0,58,58,265,1,266,parula,,,,,6,harmonic,1.75,nw,z,,,,,,,
,,,,,,,,,,,,001,2023-11-08_24h06.32.116,vowel_harmony,2023.2.3,Win32,60.21919788,180.3118,181.3115,,,,,,,,,,,,,,,,,,,,,,,,,,181.3115,181.9288,z,1,0.6133,,181.9288,181.9289,,0,59,59,295,1,296,haylin,,,,,6,notharmonic,1.8,nw,z,,,,,,,
,,,,,,,,,,,,001,2023-11-08_24h06.32.116,vowel_harmony,2023.2.3,Win32,60.21919788,181.9292,182.9285,,,,,,,,,,,,,,,,,,,,,,,,,,182.9285,183.5116,z,1,0.5663,,183.5117,183.5117,,0,60,60,223,1,224,kakon,,,,,5,harmonic,1.85,nw,z,,,,,,,
,,,,,,,,,,,,001,2023-11-08_24h06.32.116,vowel_harmony,2023.2.3,Win32,60.21919788,183.5119,184.5116,,,,,,,,,,,,,,,,,,,,,,,,,,184.5116,185.0951,m,1,0.5715,,185.0952,185.0953,,0,61,61,174,1,175,bugün,13879,630.6067,12842,1.4039,5,notharmonic,1.85,word,m,,,,,,,
,,,,,,,,,,,,001,2023-11-08_24h06.32.116,vowel_harmony,2023.2.3,Win32,60.21919788,185.0963,186.0951,,,,,,,,,,,,,,,,,,,,,,,,,,186.0952,186.7951,m,1,0.6807,,186.7952,186.7952,,0,62,62,168,1,169,kilo,3389,153.9827,2646,0.2893,4,notharmonic,1.65,word,m,,,,,,,
,,,,,,,,,,,,001,2023-11-08_24h06.32.116,vowel_harmony,2023.2.3,Win32,60.21919788,186.7955,187.7957,,,,,,,,,,,,,,,,,,,,,,,,,,187.7957,188.5116,z,1,0.7101,,188.5116,188.5116,,0,63,63,191,1,192,doab,,,,,4,harmonic,2,nw,z,,,,,,,
,,,,,,,,,,,,001,2023-11-08_24h06.32.116,vowel_harmony,2023.2.3,Win32,60.21919788,188.5118,189.5118,,,,,,,,,,,,,,,,,,,,,,,,,,189.5118,190.1783,z,1,0.6589,,190.1784,190.1784,,0,64,64,287,1,288,haköm,,,,,5,notharmonic,1.9,nw,z,,,,,,,
,,,,,,,,,,,,001,2023-11-08_24h06.32.116,vowel_harmony,2023.2.3,Win32,60.21919788,190.1786,191.1783,,,,,,,,,,,,,,,,,,,,,,,,,,191.1784,191.8117,z,1,0.6181,,191.8118,191.8118,,0,65,65,349,1,350,harten,,,,,6,notharmonic,1.85,nw,z,,,,,,,
,,,,,,,,,,,,001,2023-11-08_24h06.32.116,vowel_harmony,2023.2.3,Win32,60.21919788,191.8121,192.8118,,,,,,,,,,,,,,,,,,,,,,,,,,192.8119,193.6954,z,1,0.8666,,193.6954,193.6955,,0,66,66,345,1,346,bardeş,,,,,6,notharmonic,1.95,nw,z,,,,,,,
,,,,,,,,,,,,001,2023-11-08_24h06.32.116,vowel_harmony,2023.2.3,Win32,60.21919788,193.6958,194.6955,,,,,,,,,,,,,,,,,,,,,,,,,,194.6956,195.2954,z,1,0.5933,,195.2955,195.2955,,0,67,67,296,1,297,işban,,,,,5,notharmonic,1.95,nw,z,,,,,,,
,,,,,,,,,,,,001,2023-11-08_24h06.32.116,vowel_harmony,2023.2.3,Win32,60.21919788,195.2958,196.2957,,,,,,,,,,,,,,,,,,,,,,,,,,196.2958,196.9785,m,1,0.6741,,196.9785,196.9785,,0,68,68,87,1,88,mümkün,6604,300.0596,6264,0.6848,6,harmonic,1.9,word,m,,,,,,,
,,,,,,,,,,,,001,2023-11-08_24h06.32.116,vowel_harmony,2023.2.3,Win32,60.21919788,196.9788,197.9786,,,,,,,,,,,,,,,,,,,,,,,,,,197.9786,198.5286,z,1,0.5445,,198.5286,198.5287,,0,69,69,255,1,256,yokın,,,,,5,harmonic,1.85,nw,z,,,,,,,
,,,,,,,,,,,,001,2023-11-08_24h06.32.116,vowel_harmony,2023.2.3,Win32,60.21919788,198.529,199.5295,,,,,,,,,,,,,,,,,,,,,,,,,,199.5295,200.1291,m,1,0.5934,,200.1291,200.1291,,0,70,70,158,1,159,klasik,1871,85.0108,1734,0.1896,6,notharmonic,2,word,m,,,,,,,
,,,,,,,,,,,,001,2023-11-08_24h06.32.116,vowel_harmony,2023.2.3,Win32,60.21919788,200.1294,201.1291,,,,,,,,,,,,,,,,,,,,,,,,,,201.1291,201.7453,z,1,0.6015,,201.7453,201.7454,,0,71,71,234,1,235,düzöt,,,,,5,harmonic,2.05,nw,z,,,,,,,
,,,,,,,,,,,,001,2023-11-08_24h06.32.116,vowel_harmony,2023.2.3,Win32,60.21919788,201.7456,202.7455,,,,,,,,,,,,,,,,,,,,,,,,,,202.7455,203.3453,z,1,0.5933,,203.3454,203.3454,,0,72,72,331,1,332,ehun,,,,,4,notharmonic,1.95,nw,z,,,,,,,
,,,,,,,,,,,,001,2023-11-08_24h06.32.116,vowel_harmony,2023.2.3,Win32,60.21919788,203.3456,204.3454,,,,,,,,,,,,,,,,,,,,,,,,,,204.3454,204.9626,m,1,0.6098,,204.9627,204.9628,,0,73,73,126,1,127,adet,4367,198.4192,3768,0.4119,4,notharmonic,1.4,word,m,,,,,,,
,,,,,,,,,,,,001,2023-11-08_24h06.32.116,vowel_harmony,2023.2.3,Win32,60.21919788,204.963,205.9628,,,,,,,,,,,,,,,,,,,,,,,,,,205.9628,206.5958,m,1,0.6226,,206.5959,206.5961,,0,74,74,44,1,45,kayıt,1234,56.0681,1058,0.1157,5,harmonic,1.35,word,m,,,,,,,
,,,,,,,,,,,,001,2023-11-08_24h06.32.116,vowel_harmony,2023.2.3,Win32,60.21919788,206.5964,207.5958,,,,,,,,,,,,,,,,,,,,,,,,,,207.5958,208.2121,z,1,0.6018,,208.2121,208.2121,,0,75,75,291,1,292,mepan,,,,,5,notharmonic,1.75,nw,z,,,,,,,
,,,,,,,,,,,,001,2023-11-08_24h06.32.116,vowel_harmony,2023.2.3,Win32,60.21919788,208.2123,209.2121,,,,,,,,,,,,,,,,,,,,,,,,,,209.2121,210.1624,z,1,0.9355,,210.1624,210.1625,,0,76,76,327,1,328,parkeş,,,,,6,notharmonic,1.9,nw,z,,,,,,,
,,,,,,,,,,,,001,2023-11-08_24h06.32.116,vowel_harmony,2023.2.3,Win32,60.21919788,210.1627,211.1628,,,,,,,,,,,,,,,,,,,,,,,,,,211.1629,211.7289,z,1,0.5514,,211.729,211.729,,0,77,77,285,1,286,iklon,,,,,5,notharmonic,1.85,nw,z,,,,,,,
,,,,,,,,,,,,001,2023-11-08_24h06.32.116,vowel_harmony,2023.2.3,Win32,60.21919788,211.7292,212.729,,,,,,,,,,,,,,,,,,,,,,,,,,212.7291,213.3289,z,1,0.5804,,213.329,213.329,,0,78,78,292,1,293,kinam,,,,,5,notharmonic,1.85,nw,z,,,,,,,
,,,,,,,,,,,,001,2023-11-08_24h06.32.116,vowel_harmony,2023.2.3,Win32,60.21919788,213.3292,214.3298,,,,,,,,,,,,,,,,,,,,,,,,,,214.3298,214.879,z,1,0.5351,,214.879,214.879,,0,79,79,197,1,198,ranar,,,,,5,harmonic,1.75,nw,z,,,,,,,
,,,,,,,,,,,,001,2023-11-08_24h06.32.116,vowel_harmony,2023.2.3,Win32,60.21919788,214.8792,215.879,,,,,,,,,,,,,,,,,,,,,,,,,,215.879,216.4123,z,1,0.5241,,216.4123,216.4124,,0,80,80,340,1,341,minya,,,,,5,notharmonic,1.95,nw,z,,,,,,,
,,,,,,,,,,,,001,2023-11-08_24h06.32.116,vowel_harmony,2023.2.3,Win32,60.21919788,216.4125,217.4126,,,,,,,,,,,,,,,,,,,,,,,,,,217.4127,218.0457,m,1,0.6153,,218.0457,218.0458,,0,81,81,30,1,31,çevre,1662,75.5147,1409,0.154,5,harmonic,1.55,word,m,,,,,,,
,,,,,,,,,,,,001,2023-11-08_24h06.32.116,vowel_harmony,2023.2.3,Win32,60.21919788,218.046,219.0458,,,,,,,,,,,,,,,,,,,,,,,,,,219.0458,219.7123,z,1,0.661,,219.7124,219.7125,,0,82,82,273,1,274,nimal,,,,,5,notharmonic,1.9,nw,z,,,,,,,
,,,,,,,,,,,,001,2023-11-08_24h06.32.116,vowel_harmony,2023.2.3,Win32,60.21919788,219.7126,220.7126,,,,,,,,,,,,,,,,,,,,,,,,,,220.7126,221.2792,m,1,0.5551,,221.2792,221.2792,,0,83,83,35,1,36,hava,4975,226.0443,4398,0.4808,4,harmonic,1,word,m,,,,,,,
,,,,,,,,,,,,001,2023-11-08_24h06.32.116,vowel_harmony,2023.2.3,Win32,60.21919788,221.2794,222.2792,,,,,,,,,,,,,,,,,,,,,,,,,,222.2792,222.8458,z,1,0.5518,,222.8459,222.8459,,0,84,84,222,1,223,gelü,,,,,4,harmonic,1.75,nw,z,,,,,,,
,,,,,,,,,,,,001,2023-11-08_24h06.32.116,vowel_harmony,2023.2.3,Win32,60.21919788,222.8461,223.8459,,,,,,,,,,,,,,,,,,,,,,,,,,223.8459,224.3792,z,1,0.526,,224.3792,224.3792,,0,85,85,213,1,214,kaun,,,,,4,harmonic,1.7,nw,z,,,,,,,
,,,,,,,,,,,,001,2023-11-08_24h06.32.116,vowel_harmony,2023.2.3,Win32,60.21919788,224.3794,225.3791,,,,,,,,,,,,,,,,,,,,,,,,,,225.3791,225.9632,m,1,0.5681,,225.9632,225.9632,,0,86,86,140,1,141,sahil,481,21.8547,443,0.0484,5,notharmonic,1.45,word,m,,,,,,,
,,,,,,,,,,,,001,2023-11-08_24h06.32.116,vowel_harmony,2023.2.3,Win32,60.21919788,225.9636,226.9626,,,,,,,,,,,,,,,,,,,,,,,,,,226.9627,227.6295,m,1,0.6545,,227.6296,227.6296,,0,87,87,120,1,121,ihmal,1002,45.5269,977,0.1068,5,notharmonic,1.65,word,m,,,,,,,
,,,,,,,,,,,,001,2023-11-08_24h06.32.116,vowel_harmony,2023.2.3,Win32,60.21919788,227.6298,228.6323,,,,,,,,,,,,,,,,,,,,,,,,,,228.6324,229.2126,m,1,0.5659,,229.2127,229.2127,,0,88,88,54,1,55,yedek,825,37.4847,732,0.08,5,harmonic,1.65,word,m,,,,,,,
,,,,,,,,,,,,001,2023-11-08_24h06.32.116,vowel_harmony,2023.2.3,Win32,60.21919788,229.2129,230.2127,,,,,,,,,,,,,,,,,,,,,,,,,,230.2127,230.8627,m,1,0.6385,,230.8628,230.8629,,0,89,89,131,1,132,hakim,1677,76.1962,1559,0.1704,5,notharmonic,1,word,m,,,,,,,
,,,,,,,,,,,,001,2023-11-08_24h06.32.116,vowel_harmony,2023.2.3,Win32,60.21919788,230.8631,231.8637,,,,,,,,,,,,,,,,,,,,,,,,,,231.8637,232.5127,z,1,0.6379,,232.5128,232.5128,,0,90,90,204,1,205,gerkez,,,,,6,harmonic,1.9,nw,z,,,,,,,
,,,,,,,,,,,,001,2023-11-08_24h06.32.116,vowel_harmony,2023.2.3,Win32,60.21919788,232.513,233.5129,,,,,,,,,,,,,,,,,,,,,,,,,,233.5129,234.3461,z,1,0.8192,,234.3461,234.3461,,0,91,91,356,1,357,mergun,,,,,6,notharmonic,1.95,nw,z,,,,,,,
,,,,,,,,,,,,001,2023-11-08_24h06.32.116,vowel_harmony,2023.2.3,Win32,60.21919788,234.3463,235.3462,,,,,,,,,,,,,,,,,,,,,,,,,,235.3462,235.9129,m,1,0.553,,235.9129,235.9129,,0,92,92,99,1,100,ilave,3173,144.1685,2619,0.2863,5,notharmonic,1.85,word,m,,,,,,,
,,,,,,,,,,,,001,2023-11-08_24h06.32.116,vowel_harmony,2023.2.3,Win32,60.21919788,235.9131,236.9129,,,,,,,,,,,,,,,,,,,,,,,,,,236.9129,237.6632,z,1,0.7321,,237.6633,237.6633,,0,93,93,312,1,313,şahmin,,,,,6,notharmonic,1.8,nw,z,,,,,,,
,,,,,,,,,,,,001,2023-11-08_24h06.32.116,vowel_harmony,2023.2.3,Win32,60.21919788,237.6636,238.663,,,,,,,,,,,,,,,,,,,,,,,,,,238.663,239.4129,m,1,0.7373,,239.4129,239.4129,,0,94,94,156,1,157,medya,1784,81.0579,1495,0.1634,5,notharmonic,1.35,word,m,,,,,,,
,,,,,,,,,,,,001,2023-11-08_24h06.32.116,vowel_harmony,2023.2.3,Win32,60.21919788,239.4131,240.4129,,,,,,,,,,,,,,,,,,,,,,,,,,240.4129,241.0796,z,1,0.6542,,241.0796,241.0796,,0,95,95,330,1,331,vahçe,,,,,5,notharmonic,1.9,nw,z,,,,,,,
,,,,,,,,,,,,001,2023-11-08_24h06.32.116,vowel_harmony,2023.2.3,Win32,60.21919788,241.0798,242.0797,,,,,,,,,,,,,,,,,,,,,,,,,,242.0797,243.0129,z,1,0.9247,,243.0129,243.013,,0,96,96,344,1,345,barika,,,,,6,notharmonic,1.75,nw,z,,,,,,,
,,,,,,,,,,,,001,2023-11-08_24h06.32.116,vowel_harmony,2023.2.3,Win32,60.21919788,243.0133,244.0132,,,,,,,,,,,,,,,,,,,,,,,,,,244.0133,244.763,z,1,0.7284,,244.763,244.7631,,0,97,97,210,1,211,şevci,,,,,5,harmonic,1.75,nw,z,,,,,,,
,,,,,,,,,,,,001,2023-11-08_24h06.32.116,vowel_harmony,2023.2.3,Win32,60.21919788,244.7632,245.763,,,,,,,,,,,,,,,,,,,,,,,,,,245.763,246.3965,m,1,0.618,,246.3965,246.3965,,0,98,98,97,1,98,mevcut,3007,136.6262,2842,0.3107,6,notharmonic,1.95,word,m,,,,,,,
,,,,,,,,,,,,001,2023-11-08_24h06.32.116,vowel_harmony,2023.2.3,Win32,60.21919788,246.3967,247.3965,,,,,,,,,,,,,,,,,,,,,,,,,,247.3965,248.4298,z,1,1.0165,,248.4298,248.4298,,0,99,99,358,1,359,yangin,,,,,6,notharmonic,1.9,nw,z,,,,,,,
,,,,,,,,,,,,001,2023-11-08_24h06.32.116,vowel_harmony,2023.2.3,Win32,60.21919788,248.43,249.4298,,,,,,,,,,,,,,,,,,,,,,,,,,249.4299,250.1631,m,1,0.7246,,250.1631,250.1632,,0,100,100,151,1,152,ateş,2108,95.7792,1803,0.1971,4,notharmonic,1.65,word,m,,,,,,,
,,,,,,,,,,,,001,2023-11-08_24h06.32.116,vowel_harmony,2023.2.3,Win32,60.21919788,250.1634,251.1632,,,,,,,,,,,,,,,,,,,,,,,,,,251.1632,251.9298,m,1,0.7604,,251.9298,251.9298,,0,101,101,152,1,153,tedavi,1865,84.7382,1597,0.1746,6,notharmonic,1.8,word,m,,,,,,,
,,,,,,,,,,,,001,2023-11-08_24h06.32.116,vowel_harmony,2023.2.3,Win32,60.21919788,251.9301,252.9298,,,,,,,,,,,,,,,,,,,,,,,,,,252.9298,253.5466,z,1,0.6085,,253.5466,253.5467,,0,102,102,288,1,289,molit,,,,,5,notharmonic,1.95,nw,z,,,,,,,
,,,,,,,,,,,,001,2023-11-08_24h06.32.116,vowel_harmony,2023.2.3,Win32,60.21919788,253.5468,254.5471,,,,,,,,,,,,,,,,,,,,,,,,,,254.5472,255.1804,m,1,0.6123,,255.1805,255.1805,,0,103,103,135,1,136,hafif,3355,152.4379,3101,0.339,5,notharmonic,1.75,word,m,,,,,,,
,,,,,,,,,,,,001,2023-11-08_24h06.32.116,vowel_harmony,2023.2.3,Win32,60.21919788,255.1807,256.1802,,,,,,,,,,,,,,,,,,,,,,,,,,256.1803,256.7966,m,1,0.6059,,256.7966,256.7967,,0,104,104,23,1,24,kurum,986,44.7999,882,0.0964,5,harmonic,1.75,word,m,,,,,,,
,,,,,,,,,,,,001,2023-11-08_24h06.32.116,vowel_harmony,2023.2.3,Win32,60.21919788,256.7969,257.7967,,,,,,,,,,,,,,,,,,,,,,,,,,257.7967,258.4301,m,1,0.6191,,258.4301,258.4301,,0,105,105,90,1,91,tarif,2834,128.7657,2611,0.2854,5,notharmonic,1.5,word,m,,,,,,,
,,,,,,,,,,,,001,2023-11-08_24h06.32.116,vowel_harmony,2023.2.3,Win32,60.21919788,258.4302,259.43,,,,,,,,,,,,,,,,,,,,,,,,,,259.43,260.1806,z,1,0.7332,,260.1807,260.1807,,0,106,106,293,1,294,esnan,,,,,5,notharmonic,1.85,nw,z,,,,,,,
,,,,,,,,,,,,001,2023-11-08_24h06.32.116,vowel_harmony,2023.2.3,Win32,60.21919788,260.1811,261.1804,,,,,,,,,,,,,,,,,,,,,,,,,,261.1805,261.8468,z,1,0.651,,261.8469,261.8469,,0,107,107,281,1,282,afel,,,,,4,notharmonic,1.8,nw,z,,,,,,,
,,,,,,,,,,,,001,2023-11-08_24h06.32.116,vowel_harmony,2023.2.3,Win32,60.21919788,261.8472,262.8476,,,,,,,,,,,,,,,,,,,,,,,,,,262.8476,263.4633,m,1,0.6105,,263.4634,263.4634,,0,108,108,63,1,64,sultan,1756,79.7857,1368,0.1496,6,harmonic,1.55,word,m,,,,,,,
,,,,,,,,,,,,001,2023-11-08_24h06.32.116,vowel_harmony,2023.2.3,Win32,60.21919788,263.4636,264.4636,,,,,,,,,,,,,,,,,,,,,,,,,,264.4637,265.0634,z,1,0.5925,,265.0635,265.0635,,0,109,109,304,1,305,annö,,,,,4,notharmonic,1.95,nw,z,,,,,,,
,,,,,,,,,,,,001,2023-11-08_24h06.32.116,vowel_harmony,2023.2.3,Win32,60.21919788,265.0637,266.0635,,,,,,,,,,,,,,,,,,,,,,,,,,266.0636,266.7469,z,1,0.6679,,266.7469,266.7469,,0,110,110,236,1,237,toklam,,,,,6,harmonic,1.85,nw,z,,,,,,,
,,,,,,,,,,,,001,2023-11-08_24h06.32.116,vowel_harmony,2023.2.3,Win32,60.21919788,266.7471,267.747,,,,,,,,,,,,,,,,,,,,,,,,,,267.747,268.3469,z,1,0.592,,268.3469,268.347,,0,111,111,229,1,230,tonam,,,,,5,harmonic,1.8,nw,z,,,,,,,
,,,,,,,,,,,,001,2023-11-08_24h06.32.116,vowel_harmony,2023.2.3,Win32,60.21919788,268.3471,269.3474,,,,,,,,,,,,,,,,,,,,,,,,,,269.3474,269.997,m,1,0.6374,,269.9971,269.9971,,0,112,112,165,1,166,gazete,1402,63.7013,1270,0.1388,6,notharmonic,1.8,word,m,,,,,,,
,,,,,,,,,,,,001,2023-11-08_24h06.32.116,vowel_harmony,2023.2.3,Win32,60.21919788,269.9973,270.9972,,,,,,,,,,,,,,,,,,,,,,,,,,270.9972,271.6804,z,1,0.6741,,271.6804,271.6804,,0,113,113,250,1,251,kakuk,,,,,5,harmonic,1.9,nw,z,,,,,,,
,,,,,,,,,,,,001,2023-11-08_24h06.32.116,vowel_harmony,2023.2.3,Win32,60.21919788,271.6807,272.6805,,,,,,,,,,,,,,,,,,,,,,,,,,272.6805,273.5137,z,1,0.8243,,273.5137,273.5138,,0,114,114,333,1,334,heyran,,,,,6,notharmonic,1.85,nw,z,,,,,,,
,,,,,,,,,,,,001,2023-11-08_24h06.32.116,vowel_harmony,2023.2.3,Win32,60.21919788,273.5139,274.5138,,,,,,,,,,,,,,,,,,,,,,,,,,274.5138,275.147,m,1,0.6248,,275.147,275.1471,,0,115,115,148,1,149,selam,1868,84.8745,1764,0.1928,5,notharmonic,1.35,word,m,,,,,,,
,,,,,,,,,,,,001,2023-11-08_24h06.32.116,vowel_harmony,2023.2.3,Win32,60.21919788,275.1473,276.147,,,,,,,,,,,,,,,,,,,,,,,,,,276.1471,276.8311,z,1,0.6665,,276.8311,276.8312,,0,116,116,181,1,182,rapkı,,,,,5,harmonic,1.85,nw,z,,,,,,,
,,,,,,,,,,,,001,2023-11-08_24h06.32.116,vowel_harmony,2023.2.3,Win32,60.21919788,276.8318,277.8306,,,,,,,,,,,,,,,,,,,,,,,,,,277.8306,278.3976,m,1,0.5516,,278.3976,278.3977,,0,117,117,34,1,35,hoca,1893,86.0104,1526,0.1668,4,harmonic,1.45,word,m,,,,,,,
,,,,,,,,,,,,001,2023-11-08_24h06.32.116,vowel_harmony,2023.2.3,Win32,60.21919788,278.3982,279.3978,,,,,,,,,,,,,,,,,,,,,,,,,,279.3978,279.9977,z,1,0.5872,,279.9977,279.9977,,0,118,118,227,1,228,zekö,,,,,4,harmonic,1.9,nw,z,,,,,,,
,,,,,,,,,,,,001,2023-11-08_24h06.32.116,vowel_harmony,2023.2.3,Win32,60.21919788,279.9979,280.9974,,,,,,,,,,,,,,,,,,,,,,,,,,280.9975,281.6474,m,1,0.6348,,281.6474,281.6475,,0,119,119,29,1,30,huzur,1911,86.8283,1799,0.1967,5,harmonic,1.8,word,m,,,,,,,
,,,,,,,,,,,,001,2023-11-08_24h06.32.116,vowel_harmony,2023.2.3,Win32,60.21919788,281.6477,282.6473,,,,,,,,,,,,,,,,,,,,,,,,,,282.6473,283.2473,m,1,0.5825,,283.2474,304.6479,space,0,120,120,147,1,148,işaret,1888,85.7832,1787,0.1954,6,notharmonic,1,word,m,21.3862,,,,,,
,,,,,,,,,,,,001,2023-11-08_24h06.32.116,vowel_harmony,2023.2.3,Win32,60.21919788,304.6543,305.6478,,,,,,,,,,,,,,,,,,,,,,,,,,305.6478,306.3647,m,1,0.7024,,306.3647,306.3647,,0,121,121,139,1,140,lira,1253,56.9314,947,0.1035,4,notharmonic,1.4,word,m,,,,,,,
,,,,,,,,,,,,001,2023-11-08_24h06.32.116,vowel_harmony,2023.2.3,Win32,60.21919788,306.3649,307.3646,,,,,,,,,,,,,,,,,,,,,,,,,,307.3646,307.9655,m,1,0.5898,,307.9655,307.9657,,0,122,122,178,1,179,dikkat,6230,283.0665,5888,0.6437,6,notharmonic,2.05,word,m,,,,,,,
,,,,,,,,,,,,001,2023-11-08_24h06.32.116,vowel_harmony,2023.2.3,Win32,60.21919788,307.966,308.9646,,,,,,,,,,,,,,,,,,,,,,,,,,308.9646,309.6313,z,1,0.6564,,309.6313,309.6313,,0,123,123,270,1,271,miyaj,,,,,5,notharmonic,1.9,nw,z,,,,,,,
,,,,,,,,,,,,001,2023-11-08_24h06.32.116,vowel_harmony,2023.2.3,Win32,60.21919788,309.6316,310.6321,,,,,,,,,,,,,,,,,,,,,,,,,,310.6321,311.3479,z,1,0.7057,,311.3479,311.3479,,0,124,124,226,1,227,tefem,,,,,5,harmonic,1.75,nw,z,,,,,,,
,,,,,,,,,,,,001,2023-11-08_24h06.32.116,vowel_harmony,2023.2.3,Win32,60.21919788,311.3482,312.348,,,,,,,,,,,,,,,,,,,,,,,,,,312.348,312.9147,m,1,0.5526,,312.9147,312.9147,,0,125,125,137,1,138,parti,2613,118.7244,2059,0.2251,5,notharmonic,1.8,word,m,,,,,,,
,,,,,,,,,,,,001,2023-11-08_24h06.32.116,vowel_harmony,2023.2.3,Win32,60.21919788,312.915,313.9148,,,,,,,,,,,,,,,,,,,,,,,,,,313.9148,314.4814,m,1,0.5567,,314.4814,314.4815,,0,126,126,73,1,74,millet,1658,75.3329,1508,0.1649,6,harmonic,1.7,word,m,,,,,,,
,,,,,,,,,,,,001,2023-11-08_24h06.32.116,vowel_harmony,2023.2.3,Win32,60.21919788,314.4818,315.4814,,,,,,,,,,,,,,,,,,,,,,,,,,315.4814,316.0481,m,1,0.5543,,316.0481,316.0481,,0,127,127,127,1,128,şahane,1153,52.3877,1108,0.1211,6,notharmonic,1.8,word,m,,,,,,,
,,,,,,,,,,,,001,2023-11-08_24h06.32.116,vowel_harmony,2023.2.3,Win32,60.21919788,316.0483,317.0481,,,,,,,,,,,,,,,,,,,,,,,,,,317.0481,317.6481,m,1,0.5879,,317.6481,317.6481,,0,128,128,110,1,111,rüya,1062,48.2531,937,0.1024,4,notharmonic,1.75,word,m,,,,,,,
,,,,,,,,,,,,001,2023-11-08_24h06.32.116,vowel_harmony,2023.2.3,Win32,60.21919788,317.6484,318.6483,,,,,,,,,,,,,,,,,,,,,,,,,,318.6483,319.3815,z,1,0.7206,,319.3815,319.3815,,0,129,129,323,1,324,devak,,,,,5,notharmonic,1.75,nw,z,,,,,,,
,,,,,,,,,,,,001,2023-11-08_24h06.32.116,vowel_harmony,2023.2.3,Win32,60.21919788,319.3817,320.3818,,,,,,,,,,,,,,,,,,,,,,,,,,320.3818,321.0481,z,1,0.6579,,321.0481,321.0482,,0,130,130,311,1,312,dedya,,,,,5,notharmonic,1.9,nw,z,,,,,,,
,,,,,,,,,,,,001,2023-11-08_24h06.32.116,vowel_harmony,2023.2.3,Win32,60.21919788,321.0484,322.0482,,,,,,,,,,,,,,,,,,,,,,,,,,322.0483,322.6648,z,1,0.5979,,322.6648,322.6648,,0,131,131,300,1,301,nilgi,,,,,5,notharmonic,1.85,nw,z,,,,,,,
,,,,,,,,,,,,001,2023-11-08_24h06.32.116,vowel_harmony,2023.2.3,Win32,60.21919788,322.665,323.6648,,,,,,,,,,,,,,,,,,,,,,,,,,323.6649,324.2483,m,1,0.5699,,324.2483,324.2484,,0,132,132,13,1,14,nokta,2085,94.7341,1939,0.212,5,harmonic,1.5,word,m,,,,,,,
,,,,,,,,,,,,001,2023-11-08_24h06.32.116,vowel_harmony,2023.2.3,Win32,60.21919788,324.2487,325.2485,,,,,,,,,,,,,,,,,,,,,,,,,,325.2485,325.915,m,1,0.651,,325.915,325.9151,,0,133,133,128,1,129,tatil,2152,97.7783,1865,0.2039,5,notharmonic,1.7,word,m,,,,,,,
,,,,,,,,,,,,001,2023-11-08_24h06.32.116,vowel_harmony,2023.2.3,Win32,60.21919788,325.9152,326.9155,,,,,,,,,,,,,,,,,,,,,,,,,,326.9157,327.5483,z,1,0.6174,,327.5484,327.5484,,0,134,134,233,1,234,devpi,,,,,5,harmonic,1.8,nw,z,,,,,,,
,,,,,,,,,,,,001,2023-11-08_24h06.32.116,vowel_harmony,2023.2.3,Win32,60.21919788,327.5485,328.549,,,,,,,,,,,,,,,,,,,,,,,,,,328.5491,329.2488,m,1,0.6815,,329.249,329.249,,0,135,135,25,1,26,rapor,703,31.9415,617,0.0675,5,harmonic,1.8,word,m,,,,,,,
,,,,,,,,,,,,001,2023-11-08_24h06.32.116,vowel_harmony,2023.2.3,Win32,60.21919788,329.2492,330.2485,,,,,,,,,,,,,,,,,,,,,,,,,,330.2486,331.0319,z,1,0.7663,,331.0319,331.0319,,0,136,136,335,1,336,lilo,,,,,4,notharmonic,1.8,nw,z,,,,,,,
,,,,,,,,,,,,001,2023-11-08_24h06.32.116,vowel_harmony,2023.2.3,Win32,60.21919788,331.0322,332.0317,,,,,,,,,,,,,,,,,,,,,,,,,,332.0318,332.6151,m,1,0.5614,,332.6152,332.6152,,0,137,137,96,1,97,dahil,3189,144.8955,3060,0.3345,5,notharmonic,1.7,word,m,,,,,,,
,,,,,,,,,,,,001,2023-11-08_24h06.32.116,vowel_harmony,2023.2.3,Win32,60.21919788,332.6154,333.6151,,,,,,,,,,,,,,,,,,,,,,,,,,333.6151,334.1818,m,1,0.5557,,334.1818,334.1819,,0,138,138,31,1,32,fazla,18293,831.1614,16694,1.825,5,harmonic,1,word,m,,,,,,,
,,,,,,,,,,,,001,2023-11-08_24h06.32.116,vowel_harmony,2023.2.3,Win32,60.21919788,334.1821,335.1819,,,,,,,,,,,,,,,,,,,,,,,,,,335.1819,335.8153,z,1,0.6281,,335.8153,335.8153,,0,139,139,249,1,250,hurıt,,,,,5,harmonic,1.95,nw,z,,,,,,,
,,,,,,,,,,,,001,2023-11-08_24h06.32.116,vowel_harmony,2023.2.3,Win32,60.21919788,335.8155,336.8153,,,,,,,,,,,,,,,,,,,,,,,,,,336.8153,337.4151,z,1,0.595,,337.4151,337.4152,,0,140,140,200,1,201,duşın,,,,,5,harmonic,1.9,nw,z,,,,,,,
,,,,,,,,,,,,001,2023-11-08_24h06.32.116,vowel_harmony,2023.2.3,Win32,60.21919788,337.4154,338.4153,,,,,,,,,,,,,,,,,,,,,,,,,,338.4153,338.9987,m,1,0.5661,,338.9987,338.9987,,0,141,141,0,1,1,sanat,3121,141.8059,2485,0.2717,5,harmonic,1.4,word,m,,,,,,,
,,,,,,,,,,,,001,2023-11-08_24h06.32.116,vowel_harmony,2023.2.3,Win32,60.21919788,338.999,339.9987,,,,,,,,,,,,,,,,,,,,,,,,,,339.9987,340.5652,m,1,0.5558,,340.5652,340.5652,,0,142,142,157,1,158,aktif,1062,48.2531,986,0.1078,5,notharmonic,1.9,word,m,,,,,,,
,,,,,,,,,,,,001,2023-11-08_24h06.32.116,vowel_harmony,2023.2.3,Win32,60.21919788,340.5655,341.5653,,,,,,,,,,,,,,,,,,,,,,,,,,341.5653,342.2656,m,1,0.6938,,342.2656,342.2656,,0,143,143,33,1,34,moda,1381,62.7472,1231,0.1346,4,harmonic,1.55,word,m,,,,,,,
,,,,,,,,,,,,001,2023-11-08_24h06.32.116,vowel_harmony,2023.2.3,Win32,60.21919788,342.2659,343.2656,,,,,,,,,,,,,,,,,,,,,,,,,,343.2656,344.0154,m,1,0.7349,,344.0155,344.0155,,0,144,144,144,1,145,garip,2567,116.6343,2355,0.2574,5,notharmonic,1.65,word,m,,,,,,,
,,,,,,,,,,,,001,2023-11-08_24h06.32.116,vowel_harmony,2023.2.3,Win32,60.21919788,344.0156,345.0154,,,,,,,,,,,,,,,,,,,,,,,,,,345.0154,345.7987,z,1,0.7687,,345.7988,345.7989,,0,145,145,253,1,254,meslet,,,,,6,harmonic,1.85,nw,z,,,,,,,
,,,,,,,,,,,,001,2023-11-08_24h06.32.116,vowel_harmony,2023.2.3,Win32,60.21919788,345.799,346.7991,,,,,,,,,,,,,,,,,,,,,,,,,,346.7991,347.4996,z,1,0.6786,,347.4996,347.4997,,0,146,146,201,1,202,ergiy,,,,,5,harmonic,1.85,nw,z,,,,,,,
,,,,,,,,,,,,001,2023-11-08_24h06.32.116,vowel_harmony,2023.2.3,Win32,60.21919788,347.4999,348.4996,,,,,,,,,,,,,,,,,,,,,,,,,,348.4997,349.1155,m,1,0.5987,,349.1156,349.1156,,0,147,147,105,1,106,sahip,10887,494.6621,9847,1.0765,5,notharmonic,1.25,word,m,,,,,,,
,,,,,,,,,,,,001,2023-11-08_24h06.32.116,vowel_harmony,2023.2.3,Win32,60.21919788,349.1158,350.1156,,,,,,,,,,,,,,,,,,,,,,,,,,350.1156,350.816,z,1,0.6793,,350.8161,350.8162,,0,148,148,301,1,302,mezak,,,,,5,notharmonic,1.8,nw,z,,,,,,,
,,,,,,,,,,,,001,2023-11-08_24h06.32.116,vowel_harmony,2023.2.3,Win32,60.21919788,350.8164,351.816,,,,,,,,,,,,,,,,,,,,,,,,,,351.816,352.4497,m,1,0.6178,,352.4497,352.4498,,0,149,149,62,1,63,cümle,1911,86.8283,1765,0.193,5,harmonic,1.85,word,m,,,,,,,
,,,,,,,,,,,,001,2023-11-08_24h06.32.116,vowel_harmony,2023.2.3,Win32,60.21919788,352.4503,353.4491,,,,,,,,,,,,,,,,,,,,,,,,,,353.4491,354.0322,m,1,0.5776,,354.0323,354.0323,,0,150,150,37,1,38,hayvan,2363,107.3653,1894,0.2071,6,harmonic,1.5,word,m,,,,,,,
,,,,,,,,,,,,001,2023-11-08_24h06.32.116,vowel_harmony,2023.2.3,Win32,60.21919788,354.0325,355.0323,,,,,,,,,,,,,,,,,,,,,,,,,,355.0324,355.6165,m,1,0.5709,,355.6165,355.6165,,0,151,151,71,1,72,örnek,3463,157.345,3266,0.357,5,harmonic,1.85,word,m,,,,,,,
,,,,,,,,,,,,001,2023-11-08_24h06.32.116,vowel_harmony,2023.2.3,Win32,60.21919788,355.6167,356.616,,,,,,,,,,,,,,,,,,,,,,,,,,356.616,357.149,m,1,0.5228,,357.149,357.1491,,0,152,152,27,1,28,bölge,1283,58.2944,1123,0.1228,5,harmonic,1.65,word,m,,,,,,,
,,,,,,,,,,,,001,2023-11-08_24h06.32.116,vowel_harmony,2023.2.3,Win32,60.21919788,357.1492,358.1491,,,,,,,,,,,,,,,,,,,,,,,,,,358.1491,358.7157,m,1,0.557,,358.7157,358.7158,,0,153,153,95,1,96,takip,4996,226.9984,4651,0.5084,5,notharmonic,1.55,word,m,,,,,,,
,,,,,,,,,,,,001,2023-11-08_24h06.32.116,vowel_harmony,2023.2.3,Win32,60.21919788,358.716,359.716,,,,,,,,,,,,,,,,,,,,,,,,,,359.716,360.3326,m,1,0.5955,,360.3326,360.3326,,0,154,154,171,1,172,reklam,1565,71.1074,1244,0.136,6,notharmonic,1.9,word,m,,,,,,,
,,,,,,,,,,,,001,2023-11-08_24h06.32.116,vowel_harmony,2023.2.3,Win32,60.21919788,360.3328,361.3334,,,,,,,,,,,,,,,,,,,,,,,,,,361.3334,361.8334,m,1,0.4778,,361.8334,361.8335,,0,155,155,136,1,137,beyaz,5517,250.6706,4788,0.5234,5,notharmonic,1.85,word,m,,,,,,,
,,,,,,,,,,,,001,2023-11-08_24h06.32.116,vowel_harmony,2023.2.3,Win32,60.21919788,361.8338,362.833,,,,,,,,,,,,,,,,,,,,,,,,,,362.8331,363.4992,z,1,0.6505,,363.4992,363.4993,,0,156,156,182,1,183,orsın,,,,,5,harmonic,1.95,nw,z,,,,,,,
,,,,,,,,,,,,001,2023-11-08_24h06.32.116,vowel_harmony,2023.2.3,Win32,60.21919788,363.4995,364.4992,,,,,,,,,,,,,,,,,,,,,,,,,,364.4992,365.2162,z,1,0.7025,,365.2163,365.2163,,0,157,157,290,1,291,aipa,,,,,4,notharmonic,1.95,nw,z,,,,,,,
,,,,,,,,,,,,001,2023-11-08_24h06.32.116,vowel_harmony,2023.2.3,Win32,60.21919788,365.2166,366.2159,,,,,,,,,,,,,,,,,,,,,,,,,,366.216,366.8492,m,1,0.6218,,366.8492,366.8493,,0,158,158,113,1,114,model,1200,54.5232,1082,0.1183,5,notharmonic,1.75,word,m,,,,,,,
,,,,,,,,,,,,001,2023-11-08_24h06.32.116,vowel_harmony,2023.2.3,Win32,60.21919788,366.8494,367.8493,,,,,,,,,,,,,,,,,,,,,,,,,,367.8493,368.4494,m,1,0.5926,,368.4494,368.4494,,0,159,159,1,1,2,erkek,6188,281.1582,5195,0.5679,5,harmonic,1.65,word,m,,,,,,,
,,,,,,,,,,,,001,2023-11-08_24h06.32.116,vowel_harmony,2023.2.3,Win32,60.21919788,368.4497,369.4502,,,,,,,,,,,,,,,,,,,,,,,,,,369.4502,370.0163,m,1,0.5593,,370.0163,370.0163,,0,160,160,15,1,16,hayat,7922,359.9443,7314,0.7996,5,harmonic,1.9,word,m,,,,,,,
,,,,,,,,,,,,001,2023-11-08_24h06.32.116,vowel_harmony,2023.2.3,Win32,60.21919788,370.0167,371.0166,,,,,,,,,,,,,,,,,,,,,,,,,,371.0166,371.6329,m,1,0.6009,,371.633,371.6331,,0,161,161,129,1,130,tahmin,2353,106.911,2273,0.2485,6,notharmonic,1.6,word,m,,,,,,,
,,,,,,,,,,,,001,2023-11-08_24h06.32.116,vowel_harmony,2023.2.3,Win32,60.21919788,371.6334,372.6333,,,,,,,,,,,,,,,,,,,,,,,,,,372.6333,373.2665,m,1,0.6228,,373.2665,373.2666,,0,162,162,81,1,82,üretim,1593,72.3796,1283,0.1403,6,harmonic,1.6,word,m,,,,,,,
,,,,,,,,,,,,001,2023-11-08_24h06.32.116,vowel_harmony,2023.2.3,Win32,60.21919788,373.2671,374.2662,,,,,,,,,,,,,,,,,,,,,,,,,,374.2663,374.9161,z,1,0.6341,,374.9161,374.9161,,0,163,163,260,1,261,yarlam,,,,,6,harmonic,1.75,nw,z,,,,,,,
,,,,,,,,,,,,001,2023-11-08_24h06.32.116,vowel_harmony,2023.2.3,Win32,60.21919788,374.9164,375.9168,,,,,,,,,,,,,,,,,,,,,,,,,,375.9169,376.5831,z,1,0.652,,376.5832,376.5832,,0,164,164,225,1,226,düvem,,,,,5,harmonic,1.7,nw,z,,,,,,,
,,,,,,,,,,,,001,2023-11-08_24h06.32.116,vowel_harmony,2023.2.3,Win32,60.21919788,376.5835,377.5838,,,,,,,,,,,,,,,,,,,,,,,,,,377.5838,378.3165,z,1,0.7115,,378.3165,378.3166,,0,165,165,247,1,248,hafgın,,,,,6,harmonic,2,nw,z,,,,,,,
,,,,,,,,,,,,001,2023-11-08_24h06.32.116,vowel_harmony,2023.2.3,Win32,60.21919788,378.3172,379.3162,,,,,,,,,,,,,,,,,,,,,,,,,,379.3163,379.9,m,1,0.5742,,379.9001,379.9001,,0,166,166,68,1,69,ücret,734,33.35,634,0.0693,5,harmonic,1.85,word,m,,,,,,,
,,,,,,,,,,,,001,2023-11-08_24h06.32.116,vowel_harmony,2023.2.3,Win32,60.21919788,379.9003,380.9004,,,,,,,,,,,,,,,,,,,,,,,,,,380.9004,381.8669,m,1,0.9535,,381.867,381.8672,,0,167,167,117,1,118,nasip,1069,48.5711,1042,0.1139,5,notharmonic,1.8,word,m,,,,,,,
,,,,,,,,,,,,001,2023-11-08_24h06.32.116,vowel_harmony,2023.2.3,Win32,60.21919788,381.8677,382.8663,,,,,,,,,,,,,,,,,,,,,,,,,,382.8663,383.7331,m,1,0.8494,,383.7332,383.7332,,0,168,168,40,1,41,tepki,1695,77.0141,1578,0.1725,5,harmonic,1.55,word,m,,,,,,,
,,,,,,,,,,,,001,2023-11-08_24h06.32.116,vowel_harmony,2023.2.3,Win32,60.21919788,383.7335,384.7334,,,,,,,,,,,,,,,,,,,,,,,,,,384.7335,385.4002,z,1,0.6512,,385.4002,385.4003,,0,169,169,257,1,258,zerü,,,,,4,harmonic,1.8,nw,z,,,,,,,
,,,,,,,,,,,,001,2023-11-08_24h06.32.116,vowel_harmony,2023.2.3,Win32,60.21919788,385.4005,386.4,,,,,,,,,,,,,,,,,,,,,,,,,,386.4,387.0331,z,1,0.6216,,387.0331,387.0331,,0,170,170,239,1,240,şekik,,,,,5,harmonic,1.7,nw,z,,,,,,,
,,,,,,,,,,,,001,2023-11-08_24h06.32.116,vowel_harmony,2023.2.3,Win32,60.21919788,387.0334,388.0334,,,,,,,,,,,,,,,,,,,,,,,,,,388.0335,388.7998,m,1,0.7507,,388.7998,388.7999,,0,171,171,155,1,156,ilaç,1366,62.0656,1215,0.1328,4,notharmonic,1.75,word,m,,,,,,,
,,,,,,,,,,,,001,2023-11-08_24h06.32.116,vowel_harmony,2023.2.3,Win32,60.21919788,388.8002,389.7998,,,,,,,,,,,,,,,,,,,,,,,,,,389.7999,390.4833,z,1,0.6683,,390.4833,390.4834,,0,172,172,258,1,259,karıha,,,,,6,harmonic,1.75,nw,z,,,,,,,
,,,,,,,,,,,,001,2023-11-08_24h06.32.116,vowel_harmony,2023.2.3,Win32,60.21919788,390.4837,391.4834,,,,,,,,,,,,,,,,,,,,,,,,,,391.4835,392.3832,z,1,0.8805,,392.3833,392.3833,,0,173,173,289,1,290,karmen,,,,,6,notharmonic,1.75,nw,z,,,,,,,
,,,,,,,,,,,,001,2023-11-08_24h06.32.116,vowel_harmony,2023.2.3,Win32,60.21919788,392.3834,393.3832,,,,,,,,,,,,,,,,,,,,,,,,,,393.3832,393.9509,m,1,0.5494,,393.9509,393.951,,0,174,174,179,1,180,dakika,5891,267.6637,5207,0.5692,6,notharmonic,1.75,word,m,,,,,,,
,,,,,,,,,,,,001,2023-11-08_24h06.32.116,vowel_harmony,2023.2.3,Win32,60.21919788,393.9513,394.9499,,,,,,,,,,,,,,,,,,,,,,,,,,394.9499,395.5333,m,1,0.567,,395.5334,395.5335,,0,175,175,45,1,46,bilgi,5981,271.7529,5353,0.5852,5,harmonic,1.5,word,m,,,,,,,
,,,,,,,,,,,,001,2023-11-08_24h06.32.116,vowel_harmony,2023.2.3,Win32,60.21919788,395.5336,396.5334,,,,,,,,,,,,,,,,,,,,,,,,,,396.5334,397.2333,m,1,0.6869,,397.2333,397.2334,,0,176,176,17,1,18,yakın,7990,363.0339,7595,0.8303,5,harmonic,1.8,word,m,,,,,,,
,,,,,,,,,,,,001,2023-11-08_24h06.32.116,vowel_harmony,2023.2.3,Win32,60.21919788,397.2336,398.2335,,,,,,,,,,,,,,,,,,,,,,,,,,398.2335,399.0836,m,1,0.8312,,399.0836,399.0836,,0,177,177,65,1,66,fikir,2552,115.9528,2413,0.2638,5,harmonic,1.9,word,m,,,,,,,
,,,,,,,,,,,,001,2023-11-08_24h06.32.116,vowel_harmony,2023.2.3,Win32,60.21919788,399.084,400.0834,,,,,,,,,,,,,,,,,,,,,,,,,,400.0834,401.0501,m,1,0.9559,,401.0501,401.0502,,0,178,178,69,1,70,forma,719,32.6685,597,0.0653,5,harmonic,1.8,word,m,,,,,,,
,,,,,,,,,,,,001,2023-11-08_24h06.32.116,vowel_harmony,2023.2.3,Win32,60.21919788,401.0503,402.0515,,,,,,,,,,,,,,,,,,,,,,,,,,402.0516,402.6668,m,1,0.5999,,402.6668,402.6669,,0,179,179,134,1,135,iptal,793,36.0308,725,0.0793,5,notharmonic,1.35,word,m,,,,,,,
,,,,,,,,,,,,001,2023-11-08_24h06.32.116,vowel_harmony,2023.2.3,Win32,60.21919788,402.6672,403.6668,,,,,,,,,,,,,,,,,,,,,,,,,,403.6668,404.2012,m,1,0.5134,,404.2013,404.2013,,0,180,180,6,1,7,hayal,4498,204.3713,4079,0.4459,5,harmonic,1.45,word,m,,,,,,,
,,,,,,,,,,,,001,2023-11-08_24h06.32.116,vowel_harmony,2023.2.3,Win32,60.21919788,404.2016,405.2009,,,,,,,,,,,,,,,,,,,,,,,,,,405.201,406.0336,z,1,0.8133,,406.0336,406.0337,,0,181,181,297,1,298,sapet,,,,,5,notharmonic,1.85,nw,z,,,,,,,
,,,,,,,,,,,,001,2023-11-08_24h06.32.116,vowel_harmony,2023.2.3,Win32,60.21919788,406.034,407.0336,,,,,,,,,,,,,,,,,,,,,,,,,,407.0337,407.7169,z,1,0.6676,,407.7169,407.717,,0,182,182,321,1,322,makih,,,,,5,notharmonic,1.8,nw,z,,,,,,,
,,,,,,,,,,,,001,2023-11-08_24h06.32.116,vowel_harmony,2023.2.3,Win32,60.21919788,407.7172,408.717,,,,,,,,,,,,,,,,,,,,,,,,,,408.717,409.3503,m,1,0.6219,,409.3503,409.3503,,0,183,183,75,1,76,roman,1499,68.1086,1281,0.14,5,harmonic,1.6,word,m,,,,,,,
,,,,,,,,,,,,001,2023-11-08_24h06.32.116,vowel_harmony,2023.2.3,Win32,60.21919788,409.3505,410.3504,,,,,,,,,,,,,,,,,,,,,,,,,,410.3504,410.967,m,1,0.5974,,410.967,410.9671,,0,184,184,93,1,94,siyah,2944,133.7637,2527,0.2763,5,notharmonic,1.6,word,m,,,,,,,
,,,,,,,,,,,,001,2023-11-08_24h06.32.116,vowel_harmony,2023.2.3,Win32,60.21919788,410.9673,411.967,,,,,,,,,,,,,,,,,,,,,,,,,,411.9671,412.9336,z,1,0.9516,,412.9337,412.9337,,0,185,185,306,1,307,otet,,,,,4,notharmonic,1.95,nw,z,,,,,,,
,,,,,,,,,,,,001,2023-11-08_24h06.32.116,vowel_harmony,2023.2.3,Win32,60.21919788,412.9338,413.9336,,,,,,,,,,,,,,,,,,,,,,,,,,413.9337,414.5508,m,1,0.605,,414.5508,414.5509,,0,186,186,46,1,47,takım,4370,198.5555,3726,0.4073,5,harmonic,1.7,word,m,,,,,,,
,,,,,,,,,,,,001,2023-11-08_24h06.32.116,vowel_harmony,2023.2.3,Win32,60.21919788,414.5513,415.5506,,,,,,,,,,,,,,,,,,,,,,,,,,415.5506,416.1171,m,1,0.5531,,416.1171,416.1172,,0,187,187,104,1,105,cevap,5232,237.7213,4822,0.5271,5,notharmonic,1.85,word,m,,,,,,,
,,,,,,,,,,,,001,2023-11-08_24h06.32.116,vowel_harmony,2023.2.3,Win32,60.21919788,416.1173,417.1172,,,,,,,,,,,,,,,,,,,,,,,,,,417.1172,417.6838,m,1,0.5576,,417.6838,417.6838,,0,188,188,28,1,29,parlak,1142,51.888,1088,0.1189,6,harmonic,1.7,word,m,,,,,,,
,,,,,,,,,,,,001,2023-11-08_24h06.32.116,vowel_harmony,2023.2.3,Win32,60.21919788,417.684,418.684,,,,,,,,,,,,,,,,,,,,,,,,,,418.6841,419.1672,m,1,0.4696,,419.1672,419.1672,,0,189,189,60,1,61,doğu,2105,95.6429,1823,0.1993,4,harmonic,1.05,word,m,,,,,,,
,,,,,,,,,,,,001,2023-11-08_24h06.32.116,vowel_harmony,2023.2.3,Win32,60.21919788,419.1675,420.1671,,,,,,,,,,,,,,,,,,,,,,,,,,420.1671,420.6673,m,1,0.4849,,420.6673,420.6673,,0,190,190,164,1,165,sinema,1575,71.5618,1304,0.1426,6,notharmonic,1.8,word,m,,,,,,,
,,,,,,,,,,,,001,2023-11-08_24h06.32.116,vowel_harmony,2023.2.3,Win32,60.21919788,420.6675,421.6677,,,,,,,,,,,,,,,,,,,,,,,,,,421.6677,422.1677,m,1,0.4787,,422.1678,422.1679,,0,191,191,88,1,89,yalnız,5891,267.6637,5440,0.5947,6,harmonic,1.6,word,m,,,,,,,
,,,,,,,,,,,,001,2023-11-08_24h06.32.116,vowel_harmony,2023.2.3,Win32,60.21919788,422.1683,423.1673,,,,,,,,,,,,,,,,,,,,,,,,,,423.1673,423.6678,m,1,0.4908,,423.6679,423.668,,0,192,192,67,1,68,bayram,1948,88.5094,1648,0.1802,6,harmonic,1.85,word,m,,,,,,,
,,,,,,,,,,,,001,2023-11-08_24h06.32.116,vowel_harmony,2023.2.3,Win32,60.21919788,423.6684,424.6672,,,,,,,,,,,,,,,,,,,,,,,,,,424.6672,425.1506,m,1,0.4714,,425.1506,425.1508,,0,193,193,91,1,92,ifade,6177,280.6584,5726,0.626,5,notharmonic,1.7,word,m,,,,,,,
,,,,,,,,,,,,001,2023-11-08_24h06.32.116,vowel_harmony,2023.2.3,Win32,60.21919788,425.151,426.1508,,,,,,,,,,,,,,,,,,,,,,,,,,426.1509,426.9673,z,1,0.8029,,426.9674,426.9675,,0,194,194,188,1,189,tonık,,,,,5,harmonic,1.85,nw,z,,,,,,,
,,,,,,,,,,,,001,2023-11-08_24h06.32.116,vowel_harmony,2023.2.3,Win32,60.21919788,426.9676,427.9673,,,,,,,,,,,,,,,,,,,,,,,,,,427.9674,428.4675,m,1,0.4812,,428.4675,428.4675,,0,195,195,150,1,151,sabit,1046,47.5261,915,0.1,5,notharmonic,1.75,word,m,,,,,,,
,,,,,,,,,,,,001,2023-11-08_24h06.32.116,vowel_harmony,2023.2.3,Win32,60.21919788,428.4678,429.4674,,,,,,,,,,,,,,,,,,,,,,,,,,429.4675,430.1174,z,1,0.6288,,430.1174,430.1175,,0,196,196,355,1,356,adül,,,,,4,notharmonic,1.85,nw,z,,,,,,,
,,,,,,,,,,,,001,2023-11-08_24h06.32.116,vowel_harmony,2023.2.3,Win32,60.21919788,430.1177,431.1175,,,,,,,,,,,,,,,,,,,,,,,,,,431.1175,431.8508,z,1,0.7194,,431.8508,431.8508,,0,197,197,271,1,272,mimal,,,,,5,notharmonic,1.8,nw,z,,,,,,,
,,,,,,,,,,,,001,2023-11-08_24h06.32.116,vowel_harmony,2023.2.3,Win32,60.21919788,431.851,432.8508,,,,,,,,,,,,,,,,,,,,,,,,,,432.8508,433.5343,z,1,0.671,,433.5344,433.5344,,0,198,198,194,1,195,rayna,,,,,5,harmonic,1.7,nw,z,,,,,,,
,,,,,,,,,,,,001,2023-11-08_24h06.32.116,vowel_harmony,2023.2.3,Win32,60.21919788,433.5346,434.5343,,,,,,,,,,,,,,,,,,,,,,,,,,434.5343,435.1517,z,1,0.5982,,435.1517,435.1518,,0,199,199,246,1,247,orkın,,,,,5,harmonic,1.9,nw,z,,,,,,,
,,,,,,,,,,,,001,2023-11-08_24h06.32.116,vowel_harmony,2023.2.3,Win32,60.21919788,435.152,436.1521,,,,,,,,,,,,,,,,,,,,,,,,,,436.1522,436.8511,z,1,0.6783,,436.8511,436.8512,,0,200,200,203,1,204,döves,,,,,5,harmonic,1.8,nw,z,,,,,,,
,,,,,,,,,,,,001,2023-11-08_24h06.32.116,vowel_harmony,2023.2.3,Win32,60.21919788,436.8513,437.8512,,,,,,,,,,,,,,,,,,,,,,,,,,437.8512,438.4514,m,1,0.5896,,438.4515,438.4515,,0,201,201,125,1,126,ikna,1276,57.9764,1173,0.1282,4,notharmonic,1.85,word,m,,,,,,,
,,,,,,,,,,,,001,2023-11-08_24h06.32.116,vowel_harmony,2023.2.3,Win32,60.21919788,438.4518,439.4509,,,,,,,,,,,,,,,,,,,,,,,,,,439.4509,440.1176,z,1,0.6565,,440.1176,440.1176,,0,202,202,338,1,339,pardön,,,,,6,notharmonic,1.95,nw,z,,,,,,,
,,,,,,,,,,,,001,2023-11-08_24h06.32.116,vowel_harmony,2023.2.3,Win32,60.21919788,440.1179,441.1178,,,,,,,,,,,,,,,,,,,,,,,,,,441.1178,441.8021,z,1,0.6683,,441.8021,441.8022,,0,203,203,240,1,241,hoga,,,,,4,harmonic,1.75,nw,z,,,,,,,
,,,,,,,,,,,,001,2023-11-08_24h06.32.116,vowel_harmony,2023.2.3,Win32,60.21919788,441.8027,442.8011,,,,,,,,,,,,,,,,,,,,,,,,,,442.8011,443.3345,m,1,0.5167,,443.3346,443.3346,,0,204,204,159,1,160,vakit,3476,157.9357,3298,0.3605,5,notharmonic,1.65,word,m,,,,,,,
,,,,,,,,,,,,001,2023-11-08_24h06.32.116,vowel_harmony,2023.2.3,Win32,60.21919788,443.3348,444.3347,,,,,,,,,,,,,,,,,,,,,,,,,,444.3347,445.0677,m,1,0.7163,,445.0677,445.0678,,0,205,205,149,1,150,ceza,2611,118.6335,2169,0.2371,4,notharmonic,1.5,word,m,,,,,,,
,,,,,,,,,,,,001,2023-11-08_24h06.32.116,vowel_harmony,2023.2.3,Win32,60.21919788,445.068,446.0681,,,,,,,,,,,,,,,,,,,,,,,,,,446.0682,446.6681,m,1,0.5761,,446.6681,446.6682,,0,206,206,4,1,5,metre,1156,52.5241,1015,0.111,5,harmonic,1.7,word,m,,,,,,,
,,,,,,,,,,,,001,2023-11-08_24h06.32.116,vowel_harmony,2023.2.3,Win32,60.21919788,446.6684,447.6685,,,,,,,,,,,,,,,,,,,,,,,,,,447.6686,448.368,z,1,0.681,,448.368,448.3681,,0,207,207,190,1,191,reklen,,,,,6,harmonic,1.8,nw,z,,,,,,,
,,,,,,,,,,,,001,2023-11-08_24h06.32.116,vowel_harmony,2023.2.3,Win32,60.21919788,448.3683,449.368,,,,,,,,,,,,,,,,,,,,,,,,,,449.368,450.068,m,1,0.6842,,450.068,450.0681,,0,208,208,5,1,6,bebek,3301,149.9843,2794,0.3054,5,harmonic,1.6,word,m,,,,,,,
,,,,,,,,,,,,001,2023-11-08_24h06.32.116,vowel_harmony,2023.2.3,Win32,60.21919788,450.0683,451.0679,,,,,,,,,,,,,,,,,,,,,,,,,,451.0679,451.9679,m,1,0.8866,,451.9679,451.968,,0,209,209,48,1,49,teşvik,932,42.3464,867,0.0948,6,harmonic,1.8,word,m,,,,,,,
,,,,,,,,,,,,001,2023-11-08_24h06.32.116,vowel_harmony,2023.2.3,Win32,60.21919788,451.9682,452.9681,,,,,,,,,,,,,,,,,,,,,,,,,,452.9681,453.568,m,1,0.5874,,453.5681,453.5681,,0,210,210,52,1,53,resim,2506,113.8627,2188,0.2392,5,harmonic,1.4,word,m,,,,,,,
,,,,,,,,,,,,001,2023-11-08_24h06.32.116,vowel_harmony,2023.2.3,Win32,60.21919788,453.5684,454.568,,,,,,,,,,,,,,,,,,,,,,,,,,454.5681,455.2514,z,1,0.6659,,455.2514,455.2515,,0,211,211,348,1,349,aife,,,,,4,notharmonic,1.75,nw,z,,,,,,,
,,,,,,,,,,,,001,2023-11-08_24h06.32.116,vowel_harmony,2023.2.3,Win32,60.21919788,455.2517,456.2513,,,,,,,,,,,,,,,,,,,,,,,,,,456.2513,456.7847,m,1,0.5196,,456.7847,456.7847,,0,212,212,115,1,116,saniye,1088,49.4344,984,0.1076,6,notharmonic,1.35,word,m,,,,,,,
,,,,,,,,,,,,001,2023-11-08_24h06.32.116,vowel_harmony,2023.2.3,Win32,60.21919788,456.785,457.7852,,,,,,,,,,,,,,,,,,,,,,,,,,457.7852,458.4184,z,1,0.6216,,458.4184,458.4185,,0,213,213,189,1,190,düvre,,,,,5,harmonic,1.85,nw,z,,,,,,,
,,,,,,,,,,,,001,2023-11-08_24h06.32.116,vowel_harmony,2023.2.3,Win32,60.21919788,458.4188,459.4181,,,,,,,,,,,,,,,,,,,,,,,,,,459.4181,460.0515,z,1,0.6242,,460.0515,460.0516,,0,214,214,215,1,216,aydo,,,,,4,harmonic,1.9,nw,z,,,,,,,
,,,,,,,,,,,,001,2023-11-08_24h06.32.116,vowel_harmony,2023.2.3,Win32,60.21919788,460.0517,461.0516,,,,,,,,,,,,,,,,,,,,,,,,,,461.0516,461.6185,m,1,0.5434,,461.6186,461.6187,,0,215,215,133,1,134,taze,2268,103.0489,2062,0.2254,4,notharmonic,1.65,word,m,,,,,,,
,,,,,,,,,,,,001,2023-11-08_24h06.32.116,vowel_harmony,2023.2.3,Win32,60.21919788,461.6193,462.6182,,,,,,,,,,,,,,,,,,,,,,,,,,462.6182,463.3015,z,1,0.6626,,463.3015,463.3016,,0,216,216,206,1,207,bevek,,,,,5,harmonic,1.75,nw,z,,,,,,,
,,,,,,,,,,,,001,2023-11-08_24h06.32.116,vowel_harmony,2023.2.3,Win32,60.21919788,463.3021,464.3015,,,,,,,,,,,,,,,,,,,,,,,,,,464.3016,464.8515,m,1,0.5405,,464.8515,464.8516,,0,217,217,94,1,95,final,876,39.802,778,0.0851,5,notharmonic,1,word,m,,,,,,,
,,,,,,,,,,,,001,2023-11-08_24h06.32.116,vowel_harmony,2023.2.3,Win32,60.21919788,464.8518,465.8516,,,,,,,,,,,,,,,,,,,,,,,,,,465.8517,466.535,z,1,0.6707,,466.535,466.535,,0,218,218,219,1,220,barlum,,,,,6,harmonic,1.9,nw,z,,,,,,,
,,,,,,,,,,,,001,2023-11-08_24h06.32.116,vowel_harmony,2023.2.3,Win32,60.21919788,466.5352,467.5351,,,,,,,,,,,,,,,,,,,,,,,,,,467.5351,468.3017,z,1,0.7483,,468.3017,468.3017,,0,219,219,209,1,210,sapor,,,,,5,harmonic,1.8,nw,z,,,,,,,
,,,,,,,,,,,,001,2023-11-08_24h06.32.116,vowel_harmony,2023.2.3,Win32,60.21919788,468.3019,469.3027,,,,,,,,,,,,,,,,,,,,,,,,,,469.3027,470.0186,z,1,0.6998,,470.0186,470.0186,,0,220,220,187,1,188,remrin,,,,,6,harmonic,1.9,nw,z,,,,,,,
,,,,,,,,,,,,001,2023-11-08_24h06.32.116,vowel_harmony,2023.2.3,Win32,60.21919788,470.0189,471.0189,,,,,,,,,,,,,,,,,,,,,,,,,,471.0189,471.6684,m,1,0.6378,,471.6684,471.6685,,0,221,221,2,1,3,radyo,763,34.6677,636,0.0695,5,harmonic,1.85,word,m,,,,,,,
,,,,,,,,,,,,001,2023-11-08_24h06.32.116,vowel_harmony,2023.2.3,Win32,60.21919788,471.6686,472.6685,,,,,,,,,,,,,,,,,,,,,,,,,,472.6685,473.2857,m,1,0.5949,,473.2858,473.286,,0,222,222,86,1,87,gerçek,8983,408.1519,8058,0.8809,6,harmonic,1.7,word,m,,,,,,,
,,,,,,,,,,,,001,2023-11-08_24h06.32.116,vowel_harmony,2023.2.3,Win32,60.21919788,473.2864,474.2852,,,,,,,,,,,,,,,,,,,,,,,,,,474.2852,474.8352,m,1,0.5323,,474.8352,474.8352,,0,223,223,84,1,85,ülke,3121,141.8059,2801,0.3062,4,harmonic,1.65,word,m,,,,,,,
,,,,,,,,,,,,001,2023-11-08_24h06.32.116,vowel_harmony,2023.2.3,Win32,60.21919788,474.8354,475.8351,,,,,,,,,,,,,,,,,,,,,,,,,,475.8351,476.352,m,1,0.5041,,476.352,476.352,,0,224,224,143,1,144,kitap,8359,379.7998,6786,0.7418,5,notharmonic,1.9,word,m,,,,,,,
,,,,,,,,,,,,001,2023-11-08_24h06.32.116,vowel_harmony,2023.2.3,Win32,60.21919788,476.3522,477.3518,,,,,,,,,,,,,,,,,,,,,,,,,,477.3519,477.8185,m,1,0.4582,,477.8185,477.8185,,0,225,225,32,1,33,temel,4231,192.2399,3851,0.421,5,harmonic,1.55,word,m,,,,,,,
,,,,,,,,,,,,001,2023-11-08_24h06.32.116,vowel_harmony,2023.2.3,Win32,60.21919788,477.8187,478.8194,,,,,,,,,,,,,,,,,,,,,,,,,,478.8195,479.9852,z,1,1.1526,,479.9852,479.9852,,0,226,226,307,1,308,merbat,,,,,6,notharmonic,1.95,nw,z,,,,,,,
,,,,,,,,,,,,001,2023-11-08_24h06.32.116,vowel_harmony,2023.2.3,Win32,60.21919788,479.9855,480.9854,,,,,,,,,,,,,,,,,,,,,,,,,,480.9854,481.6352,z,1,0.6364,,481.6352,481.6353,,0,227,227,208,1,209,yayram,,,,,6,harmonic,1.85,nw,z,,,,,,,
,,,,,,,,,,,,001,2023-11-08_24h06.32.116,vowel_harmony,2023.2.3,Win32,60.21919788,481.6355,482.6354,,,,,,,,,,,,,,,,,,,,,,,,,,482.6355,483.2687,z,1,0.6082,,483.2687,483.2687,,0,228,228,207,1,208,örtre,,,,,5,harmonic,1.85,nw,z,,,,,,,
,,,,,,,,,,,,001,2023-11-08_24h06.32.116,vowel_harmony,2023.2.3,Win32,60.21919788,483.269,484.2686,,,,,,,,,,,,,,,,,,,,,,,,,,484.2687,484.9187,z,1,0.6353,,484.9187,484.9188,,0,229,229,243,1,244,korguf,,,,,6,harmonic,2,nw,z,,,,,,,
,,,,,,,,,,,,001,2023-11-08_24h06.32.116,vowel_harmony,2023.2.3,Win32,60.21919788,484.919,485.9188,,,,,,,,,,,,,,,,,,,,,,,,,,485.9188,486.4864,m,1,0.5558,,486.4864,486.4866,,0,230,230,146,1,147,mavi,2206,100.2319,1934,0.2114,4,notharmonic,1.45,word,m,,,,,,,
,,,,,,,,,,,,001,2023-11-08_24h06.32.116,vowel_harmony,2023.2.3,Win32,60.21919788,486.4877,487.4855,,,,,,,,,,,,,,,,,,,,,,,,,,487.4855,488.1022,m,1,0.6049,,488.1022,488.1023,,0,231,231,3,1,4,minik,2916,132.4915,2594,0.2836,5,harmonic,1.6,word,m,,,,,,,
,,,,,,,,,,,,001,2023-11-08_24h06.32.116,vowel_harmony,2023.2.3,Win32,60.21919788,488.1024,489.1031,,,,,,,,,,,,,,,,,,,,,,,,,,489.1031,489.7521,z,1,0.64,,489.7521,489.7521,,0,232,232,241,1,242,porlam,,,,,6,harmonic,2,nw,z,,,,,,,
,,,,,,,,,,,,001,2023-11-08_24h06.32.116,vowel_harmony,2023.2.3,Win32,60.21919788,489.7523,490.7522,,,,,,,,,,,,,,,,,,,,,,,,,,490.7522,491.4026,z,1,0.6416,,491.4028,491.4028,,0,233,233,325,1,326,garit,,,,,5,notharmonic,1.85,nw,z,,,,,,,
,,,,,,,,,,,,001,2023-11-08_24h06.32.116,vowel_harmony,2023.2.3,Win32,60.21919788,491.404,492.4022,,,,,,,,,,,,,,,,,,,,,,,,,,492.4022,493.1022,z,1,0.6836,,493.1022,493.1023,,0,234,234,230,1,231,bikir,,,,,5,harmonic,1.75,nw,z,,,,,,,
,,,,,,,,,,,,001,2023-11-08_24h06.32.116,vowel_harmony,2023.2.3,Win32,60.21919788,493.1026,494.1025,,,,,,,,,,,,,,,,,,,,,,,,,,494.1025,494.7858,z,1,0.6617,,494.7859,494.7861,,0,235,235,263,1,264,duzur,,,,,5,harmonic,1.8,nw,z,,,,,,,
,,,,,,,,,,,,001,2023-11-08_24h06.32.116,vowel_harmony,2023.2.3,Win32,60.21919788,494.7864,495.7859,,,,,,,,,,,,,,,,,,,,,,,,,,495.786,496.4023,m,1,0.5978,,496.4023,496.4024,,0,236,236,38,1,39,dönem,2820,128.1296,2437,0.2664,5,harmonic,1.4,word,m,,,,,,,
,,,,,,,,,,,,001,2023-11-08_24h06.32.116,vowel_harmony,2023.2.3,Win32,60.21919788,496.4026,497.4024,,,,,,,,,,,,,,,,,,,,,,,,,,497.4024,497.9359,m,1,0.5204,,497.9359,497.9359,,0,237,237,85,1,86,geçmiş,4195,190.6042,4039,0.4415,6,harmonic,1.55,word,m,,,,,,,
,,,,,,,,,,,,001,2023-11-08_24h06.32.116,vowel_harmony,2023.2.3,Win32,60.21919788,497.9362,498.9358,,,,,,,,,,,,,,,,,,,,,,,,,,498.9358,499.5024,m,1,0.5511,,499.5024,499.5024,,0,238,238,8,1,9,güven,1433,65.1098,1300,0.1421,5,harmonic,1.35,word,m,,,,,,,
,,,,,,,,,,,,001,2023-11-08_24h06.32.116,vowel_harmony,2023.2.3,Win32,60.21919788,499.5027,500.503,,,,,,,,,,,,,,,,,,,,,,,,,,500.5031,501.1691,z,1,0.6422,,501.1691,501.1693,,0,239,239,196,1,197,bilön,,,,,5,harmonic,1.9,nw,z,,,,,,,
,,,,,,,,,,,,001,2023-11-08_24h06.32.116,vowel_harmony,2023.2.3,Win32,60.21919788,501.1694,502.1692,,,,,,,,,,,,,,,,,,,,,,,,,,502.1693,502.7023,m,1,0.5121,,502.7024,512.7362,space,0,240,240,53,1,54,gelir,7578,344.3143,7014,0.7668,5,harmonic,1.4,word,m,10.0283,,,,,,
,,,,,,,,,,,,001,2023-11-08_24h06.32.116,vowel_harmony,2023.2.3,Win32,60.21919788,512.742,513.7362,,,,,,,,,,,,,,,,,,,,,,,,,,513.7363,514.5029,z,1,0.744,,514.5029,514.503,,0,241,241,216,1,217,çeyret,,,,,6,harmonic,1.9,nw,z,,,,,,,
,,,,,,,,,,,,001,2023-11-08_24h06.32.116,vowel_harmony,2023.2.3,Win32,60.21919788,514.5032,515.5027,,,,,,,,,,,,,,,,,,,,,,,,,,515.5028,516.4698,m,1,0.9504,,516.4699,516.47,,0,242,242,20,1,21,nefes,2871,130.4469,2553,0.2791,5,harmonic,1.8,word,m,,,,,,,
,,,,,,,,,,,,001,2023-11-08_24h06.32.116,vowel_harmony,2023.2.3,Win32,60.21919788,516.4708,517.4695,,,,,,,,,,,,,,,,,,,,,,,,,,517.4695,518.2197,z,1,0.7402,,518.2197,518.2197,,0,243,243,205,1,206,kahay,,,,,5,harmonic,1.9,nw,z,,,,,,,
,,,,,,,,,,,,001,2023-11-08_24h06.32.116,vowel_harmony,2023.2.3,Win32,60.21919788,518.2199,519.2195,,,,,,,,,,,,,,,,,,,,,,,,,,519.2196,519.8863,z,1,0.6496,,519.8863,519.8864,,0,244,244,276,1,277,iptap,,,,,5,notharmonic,1.95,nw,z,,,,,,,
,,,,,,,,,,,,001,2023-11-08_24h06.32.116,vowel_harmony,2023.2.3,Win32,60.21919788,519.8866,520.8863,,,,,,,,,,,,,,,,,,,,,,,,,,520.8863,521.4696,z,1,0.563,,521.4696,521.4696,,0,245,245,315,1,316,takep,,,,,5,notharmonic,1.85,nw,z,,,,,,,
,,,,,,,,,,,,001,2023-11-08_24h06.32.116,vowel_harmony,2023.2.3,Win32,60.21919788,521.4699,522.4697,,,,,,,,,,,,,,,,,,,,,,,,,,522.4697,523.0541,m,1,0.5631,,523.0542,523.0544,,0,246,246,49,1,50,şeker,4708,213.9128,4170,0.4559,5,harmonic,1.6,word,m,,,,,,,
,,,,,,,,,,,,001,2023-11-08_24h06.32.116,vowel_harmony,2023.2.3,Win32,60.21919788,523.055,524.053,,,,,,,,,,,,,,,,,,,,,,,,,,524.053,524.7532,m,1,0.6929,,524.7532,524.7532,,0,247,247,114,1,115,nisan,2321,105.457,2044,0.2235,5,notharmonic,1.6,word,m,,,,,,,
,,,,,,,,,,,,001,2023-11-08_24h06.32.116,vowel_harmony,2023.2.3,Win32,60.21919788,524.7535,525.7532,,,,,,,,,,,,,,,,,,,,,,,,,,525.7532,526.3864,z,1,0.6148,,526.3865,526.3865,,0,248,248,329,1,330,taif,,,,,4,notharmonic,1.8,nw,z,,,,,,,
,,,,,,,,,,,,001,2023-11-08_24h06.32.116,vowel_harmony,2023.2.3,Win32,60.21919788,526.3867,527.3864,,,,,,,,,,,,,,,,,,,,,,,,,,527.3865,528.0866,m,1,0.6834,,528.0866,528.0867,,0,249,249,162,1,163,hariç,1267,57.5675,1233,0.1348,5,notharmonic,1.75,word,m,,,,,,,
,,,,,,,,,,,,001,2023-11-08_24h06.32.116,vowel_harmony,2023.2.3,Win32,60.21919788,528.0869,529.0866,,,,,,,,,,,,,,,,,,,,,,,,,,529.0866,529.6366,m,1,0.5306,,529.6366,529.6366,,0,250,250,9,1,10,karar,8108,368.3954,7436,0.8129,5,harmonic,1.6,word,m,,,,,,,
,,,,,,,,,,,,001,2023-11-08_24h06.32.116,vowel_harmony,2023.2.3,Win32,60.21919788,529.6368,530.6366,,,,,,,,,,,,,,,,,,,,,,,,,,530.6367,531.3697,z,1,0.7134,,531.3698,531.3698,,0,251,251,359,1,360,kardez,,,,,6,notharmonic,1.95,nw,z,,,,,,,
,,,,,,,,,,,,001,2023-11-08_24h06.32.116,vowel_harmony,2023.2.3,Win32,60.21919788,531.3701,532.3698,,,,,,,,,,,,,,,,,,,,,,,,,,532.3698,532.9864,m,1,0.6051,,532.9865,532.9865,,0,252,252,121,1,122,mesaj,1604,72.8794,1386,0.1515,5,notharmonic,1.8,word,m,,,,,,,
,,,,,,,,,,,,001,2023-11-08_24h06.32.116,vowel_harmony,2023.2.3,Win32,60.21919788,532.9867,533.9875,,,,,,,,,,,,,,,,,,,,,,,,,,533.9875,534.7699,z,1,0.7628,,534.7699,534.77,,0,253,253,256,1,257,yaruza,,,,,6,harmonic,1.9,nw,z,,,,,,,
,,,,,,,,,,,,001,2023-11-08_24h06.32.116,vowel_harmony,2023.2.3,Win32,60.21919788,534.7701,535.77,,,,,,,,,,,,,,,,,,,,,,,,,,535.77,536.3367,m,1,0.5526,,536.3367,536.3368,,0,254,254,154,1,155,sakin,1855,84.2838,1635,0.1787,5,notharmonic,1.05,word,m,,,,,,,
,,,,,,,,,,,,001,2023-11-08_24h06.32.116,vowel_harmony,2023.2.3,Win32,60.21919788,536.337,537.3368,,,,,,,,,,,,,,,,,,,,,,,,,,537.3368,538.0367,z,1,0.6837,,538.0367,538.0367,,0,255,255,195,1,196,netüm,,,,,5,harmonic,1.95,nw,z,,,,,,,
,,,,,,,,,,,,001,2023-11-08_24h06.32.116,vowel_harmony,2023.2.3,Win32,60.21919788,538.037,539.0376,,,,,,,,,,,,,,,,,,,,,,,,,,539.0377,539.6701,m,1,0.6125,,539.6702,539.6702,,0,256,256,123,1,124,haber,4559,207.1429,4151,0.4538,5,notharmonic,1.85,word,m,,,,,,,
,,,,,,,,,,,,001,2023-11-08_24h06.32.116,vowel_harmony,2023.2.3,Win32,60.21919788,539.6705,540.67,,,,,,,,,,,,,,,,,,,,,,,,,,540.6701,541.5536,z,1,0.863,,541.5536,541.5536,,0,257,257,252,1,253,anlgı,,,,,5,harmonic,1.9,nw,z,,,,,,,
,,,,,,,,,,,,001,2023-11-08_24h06.32.116,vowel_harmony,2023.2.3,Win32,60.21919788,541.5543,542.5535,,,,,,,,,,,,,,,,,,,,,,,,,,542.5535,543.5034,z,1,0.9411,,543.5034,543.5035,,0,258,258,231,1,232,norgun,,,,,6,harmonic,1.75,nw,z,,,,,,,
,,,,,,,,,,,,001,2023-11-08_24h06.32.116,vowel_harmony,2023.2.3,Win32,60.21919788,543.5037,544.5035,,,,,,,,,,,,,,,,,,,,,,,,,,544.5035,545.0534,m,1,0.5347,,545.0534,545.0535,,0,259,259,61,1,62,yıldız,1775,80.649,1532,0.1675,6,harmonic,1.6,word,m,,,,,,,
,,,,,,,,,,,,001,2023-11-08_24h06.32.116,vowel_harmony,2023.2.3,Win32,60.21919788,545.0538,546.0535,,,,,,,,,,,,,,,,,,,,,,,,,,546.0536,546.6703,m,1,0.5972,,546.6703,546.6703,,0,260,260,12,1,13,konu,5400,245.3546,5110,0.5586,4,harmonic,1,word,m,,,,,,,
,,,,,,,,,,,,001,2023-11-08_24h06.32.116,vowel_harmony,2023.2.3,Win32,60.21919788,546.6707,547.6705,,,,,,,,,,,,,,,,,,,,,,,,,,547.6705,548.2201,m,1,0.5355,,548.2202,548.2202,,0,261,261,111,1,112,kahve,2634,119.6785,2283,0.2496,5,notharmonic,1.85,word,m,,,,,,,
,,,,,,,,,,,,001,2023-11-08_24h06.32.116,vowel_harmony,2023.2.3,Win32,60.21919788,548.2204,549.2202,,,,,,,,,,,,,,,,,,,,,,,,,,549.2202,549.8703,m,1,0.6339,,549.8703,549.8704,,0,262,262,119,1,120,kulüp,649,29.488,467,0.0511,5,notharmonic,1.4,word,m,,,,,,,
,,,,,,,,,,,,001,2023-11-08_24h06.32.116,vowel_harmony,2023.2.3,Win32,60.21919788,549.8706,550.8702,,,,,,,,,,,,,,,,,,,,,,,,,,550.8702,551.6203,z,1,0.7332,,551.6203,551.6203,,0,263,263,339,1,340,asmel,,,,,5,notharmonic,1.95,nw,z,,,,,,,
,,,,,,,,,,,,001,2023-11-08_24h06.32.116,vowel_harmony,2023.2.3,Win32,60.21919788,551.6206,552.6203,,,,,,,,,,,,,,,,,,,,,,,,,,552.6204,553.4204,z,1,0.7831,,553.4204,553.4204,,0,264,264,184,1,185,yapor,,,,,5,harmonic,1.9,nw,z,,,,,,,
,,,,,,,,,,,,001,2023-11-08_24h06.32.116,vowel_harmony,2023.2.3,Win32,60.21919788,553.4206,554.4203,,,,,,,,,,,,,,,,,,,,,,,,,,554.4203,555.0703,z,1,0.633,,555.0703,555.0704,,0,265,265,278,1,279,sekon,,,,,5,notharmonic,1.85,nw,z,,,,,,,
,,,,,,,,,,,,001,2023-11-08_24h06.32.116,vowel_harmony,2023.2.3,Win32,60.21919788,555.0706,556.0708,,,,,,,,,,,,,,,,,,,,,,,,,,556.0709,556.7205,z,1,0.6367,,556.7206,556.7206,,0,266,266,237,1,238,taşal,,,,,5,harmonic,1.8,nw,z,,,,,,,
,,,,,,,,,,,,001,2023-11-08_24h06.32.116,vowel_harmony,2023.2.3,Win32,60.21919788,556.7208,557.7206,,,,,,,,,,,,,,,,,,,,,,,,,,557.7207,558.4704,z,1,0.7368,,558.4704,558.4704,,0,267,267,316,1,317,misaf,,,,,5,notharmonic,1.85,nw,z,,,,,,,
,,,,,,,,,,,,001,2023-11-08_24h06.32.116,vowel_harmony,2023.2.3,Win32,60.21919788,558.4707,559.4705,,,,,,,,,,,,,,,,,,,,,,,,,,559.4705,560.0373,z,1,0.5554,,560.0373,560.0374,,0,268,268,354,1,355,taden,,,,,5,notharmonic,1.7,nw,z,,,,,,,
,,,,,,,,,,,,001,2023-11-08_24h06.32.116,vowel_harmony,2023.2.3,Win32,60.21919788,560.0375,561.0373,,,,,,,,,,,,,,,,,,,,,,,,,,561.0373,561.6542,z,1,0.6004,,561.6543,561.6543,,0,269,269,199,1,200,movu,,,,,4,harmonic,1.9,nw,z,,,,,,,
,,,,,,,,,,,,001,2023-11-08_24h06.32.116,vowel_harmony,2023.2.3,Win32,60.21919788,561.6547,562.6549,,,,,,,,,,,,,,,,,,,,,,,,,,562.6549,563.9042,z,1,1.232,,563.9042,563.9042,,0,270,270,332,1,333,tahane,,,,,6,notharmonic,1.85,nw,z,,,,,,,
,,,,,,,,,,,,001,2023-11-08_24h06.32.116,vowel_harmony,2023.2.3,Win32,60.21919788,563.9047,564.9043,,,,,,,,,,,,,,,,,,,,,,,,,,564.9044,565.6374,m,1,0.717,,565.6374,565.6375,,0,271,271,39,1,40,yaygın,1061,48.2076,1019,0.1114,6,harmonic,1.35,word,m,,,,,,,
,,,,,,,,,,,,001,2023-11-08_24h06.32.116,vowel_harmony,2023.2.3,Win32,60.21919788,565.6378,566.6374,,,,,,,,,,,,,,,,,,,,,,,,,,566.6374,567.8706,z,1,1.2167,,567.8707,567.8708,,0,272,272,318,1,319,yorgün,,,,,6,notharmonic,1.9,nw,z,,,,,,,
,,,,,,,,,,,,001,2023-11-08_24h06.32.116,vowel_harmony,2023.2.3,Win32,60.21919788,567.8709,568.8707,,,,,,,,,,,,,,,,,,,,,,,,,,568.8707,569.6381,z,1,0.7547,,569.6382,569.6383,,0,273,273,198,1,199,yarbız,,,,,6,harmonic,1.95,nw,z,,,,,,,
,,,,,,,,,,,,001,2023-11-08_24h06.32.116,vowel_harmony,2023.2.3,Win32,60.21919788,569.6388,570.6375,,,,,,,,,,,,,,,,,,,,,,,,,,570.6376,571.5544,z,1,0.8975,,571.5544,571.5545,,0,274,274,267,1,268,nokuma,,,,,6,harmonic,1.75,nw,z,,,,,,,
,,,,,,,,,,,,001,2023-11-08_24h06.32.116,vowel_harmony,2023.2.3,Win32,60.21919788,571.5548,572.5545,,,,,,,,,,,,,,,,,,,,,,,,,,572.5545,573.3046,m,1,0.7313,,573.3047,573.3048,,0,275,275,55,1,56,akıl,2208,100.3228,2004,0.2191,4,harmonic,1,word,m,,,,,,,
,,,,,,,,,,,,001,2023-11-08_24h06.32.116,vowel_harmony,2023.2.3,Win32,60.21919788,573.3052,574.3044,,,,,,,,,,,,,,,,,,,,,,,,,,574.3044,574.9044,m,1,0.5819,,574.9044,574.9045,,0,276,276,83,1,84,küçük,14048,638.2854,12467,1.3629,5,harmonic,1.75,word,m,,,,,,,
,,,,,,,,,,,,001,2023-11-08_24h06.32.116,vowel_harmony,2023.2.3,Win32,60.21919788,574.9048,575.9045,,,,,,,,,,,,,,,,,,,,,,,,,,575.9045,576.4708,m,1,0.5501,,576.4709,576.4709,,0,277,277,177,1,178,tekrar,10788,490.1639,9352,1.0224,6,notharmonic,1.85,word,m,,,,,,,
,,,,,,,,,,,,001,2023-11-08_24h06.32.116,vowel_harmony,2023.2.3,Win32,60.21919788,576.4711,577.4709,,,,,,,,,,,,,,,,,,,,,,,,,,577.4709,578.2549,z,1,0.7679,,578.255,578.255,,0,278,278,336,1,337,diyam,,,,,5,notharmonic,1.85,nw,z,,,,,,,
,,,,,,,,,,,,001,2023-11-08_24h06.32.116,vowel_harmony,2023.2.3,Win32,60.21919788,578.2553,579.255,,,,,,,,,,,,,,,,,,,,,,,,,,579.255,579.9546,z,1,0.6781,,579.9546,579.9547,,0,279,279,353,1,354,ikno,,,,,4,notharmonic,1.95,nw,z,,,,,,,
,,,,,,,,,,,,001,2023-11-08_24h06.32.116,vowel_harmony,2023.2.3,Win32,60.21919788,579.9549,580.9546,,,,,,,,,,,,,,,,,,,,,,,,,,580.9546,581.5376,m,1,0.5724,,581.5377,581.5377,,0,280,280,7,1,8,hizmet,3023,137.3531,2689,0.294,6,harmonic,1.75,word,m,,,,,,,
,,,,,,,,,,,,001,2023-11-08_24h06.32.116,vowel_harmony,2023.2.3,Win32,60.21919788,581.5379,582.5378,,,,,,,,,,,,,,,,,,,,,,,,,,582.5379,583.1878,z,1,0.6352,,583.1879,583.1879,,0,281,281,317,1,318,mevul,,,,,5,notharmonic,1.95,nw,z,,,,,,,
,,,,,,,,,,,,001,2023-11-08_24h06.32.116,vowel_harmony,2023.2.3,Win32,60.21919788,583.1881,584.1878,,,,,,,,,,,,,,,,,,,,,,,,,,584.1878,584.7378,m,1,0.5378,,584.7378,584.7379,,0,282,282,77,1,78,ufak,3252,147.758,2980,0.3258,4,harmonic,1.5,word,m,,,,,,,
,,,,,,,,,,,,001,2023-11-08_24h06.32.116,vowel_harmony,2023.2.3,Win32,60.21919788,584.7382,585.738,,,,,,,,,,,,,,,,,,,,,,,,,,585.738,586.4713,z,1,0.7214,,586.4713,586.4713,,0,283,283,342,1,343,kulön,,,,,5,notharmonic,1.9,nw,z,,,,,,,
,,,,,,,,,,,,001,2023-11-08_24h06.32.116,vowel_harmony,2023.2.3,Win32,60.21919788,586.4717,587.4714,,,,,,,,,,,,,,,,,,,,,,,,,,587.4714,588.1211,z,1,0.6415,,588.1212,588.1212,,0,284,284,186,1,187,habık,,,,,5,harmonic,1.9,nw,z,,,,,,,
,,,,,,,,,,,,001,2023-11-08_24h06.32.116,vowel_harmony,2023.2.3,Win32,60.21919788,588.1213,589.1212,,,,,,,,,,,,,,,,,,,,,,,,,,589.1213,589.8212,z,1,0.6876,,589.8212,589.8213,,0,285,285,337,1,338,bakem,,,,,5,notharmonic,1.7,nw,z,,,,,,,
,,,,,,,,,,,,001,2023-11-08_24h06.32.116,vowel_harmony,2023.2.3,Win32,60.21919788,589.8215,590.8212,,,,,,,,,,,,,,,,,,,,,,,,,,590.8212,591.3711,m,1,0.5402,,591.3711,591.3712,,0,286,286,109,1,110,milyon,3936,178.8362,2958,0.3234,6,notharmonic,1.75,word,m,,,,,,,
,,,,,,,,,,,,001,2023-11-08_24h06.32.116,vowel_harmony,2023.2.3,Win32,60.21919788,591.3714,592.3712,,,,,,,,,,,,,,,,,,,,,,,,,,592.3712,592.9549,z,1,0.5724,,592.9549,592.955,,0,287,287,244,1,245,kaof,,,,,4,harmonic,1.9,nw,z,,,,,,,
,,,,,,,,,,,,001,2023-11-08_24h06.32.116,vowel_harmony,2023.2.3,Win32,60.21919788,592.9553,593.9548,,,,,,,,,,,,,,,,,,,,,,,,,,593.9548,594.505,m,1,0.5337,,594.505,594.505,,0,288,288,16,1,17,yavaş,5087,231.1331,2886,0.3155,5,harmonic,1.6,word,m,,,,,,,
,,,,,,,,,,,,001,2023-11-08_24h06.32.116,vowel_harmony,2023.2.3,Win32,60.21919788,594.5053,595.5049,,,,,,,,,,,,,,,,,,,,,,,,,,595.5049,596.138,z,1,0.6218,,596.1381,596.1381,,0,289,289,350,1,351,resun,,,,,5,notharmonic,1.85,nw,z,,,,,,,
,,,,,,,,,,,,001,2023-11-08_24h06.32.116,vowel_harmony,2023.2.3,Win32,60.21919788,596.1382,597.1383,,,,,,,,,,,,,,,,,,,,,,,,,,597.1383,597.8213,z,1,0.6642,,597.8213,597.8214,,0,290,290,242,1,243,kahon,,,,,5,harmonic,1.85,nw,z,,,,,,,
,,,,,,,,,,,,001,2023-11-08_24h06.32.116,vowel_harmony,2023.2.3,Win32,60.21919788,597.8216,598.8214,,,,,,,,,,,,,,,,,,,,,,,,,,598.8214,599.3715,m,1,0.5355,,599.3716,599.3716,,0,291,291,26,1,27,sebze,1094,49.707,961,0.1051,5,harmonic,1.9,word,m,,,,,,,
,,,,,,,,,,,,001,2023-11-08_24h06.32.116,vowel_harmony,2023.2.3,Win32,60.21919788,599.3718,600.3714,,,,,,,,,,,,,,,,,,,,,,,,,,600.3715,601.0051,m,1,0.6224,,601.0051,601.0052,,0,292,292,100,1,101,düşman,1065,48.3894,962,0.1052,6,notharmonic,1.85,word,m,,,,,,,
,,,,,,,,,,,,001,2023-11-08_24h06.32.116,vowel_harmony,2023.2.3,Win32,60.21919788,601.0054,602.0051,,,,,,,,,,,,,,,,,,,,,,,,,,602.0051,602.7053,m,1,0.6843,,602.7054,602.7054,,0,293,293,102,1,103,esas,1965,89.2818,1795,0.1962,4,notharmonic,1.75,word,m,,,,,,,
,,,,,,,,,,,,001,2023-11-08_24h06.32.116,vowel_harmony,2023.2.3,Win32,60.21919788,602.7057,603.7051,,,,,,,,,,,,,,,,,,,,,,,,,,603.7051,604.4051,z,1,0.6824,,604.4052,604.4053,,0,294,294,326,1,327,ailo,,,,,4,notharmonic,1.75,nw,z,,,,,,,
,,,,,,,,,,,,001,2023-11-08_24h06.32.116,vowel_harmony,2023.2.3,Win32,60.21919788,604.4055,605.4051,,,,,,,,,,,,,,,,,,,,,,,,,,605.4051,606.0215,z,1,0.5975,,606.0215,606.0216,,0,295,295,192,1,193,vecö,,,,,4,harmonic,1.95,nw,z,,,,,,,
,,,,,,,,,,,,001,2023-11-08_24h06.32.116,vowel_harmony,2023.2.3,Win32,60.21919788,606.0219,607.0216,,,,,,,,,,,,,,,,,,,,,,,,,,607.0216,607.5883,m,1,0.5492,,607.5883,607.5884,,0,296,296,70,1,71,yarın,3440,156.3,3222,0.3522,5,harmonic,1.85,word,m,,,,,,,
,,,,,,,,,,,,001,2023-11-08_24h06.32.116,vowel_harmony,2023.2.3,Win32,60.21919788,607.5886,608.5885,,,,,,,,,,,,,,,,,,,,,,,,,,608.5886,609.2216,z,1,0.6144,,609.2216,609.2216,,0,297,297,220,1,221,denbi,,,,,5,harmonic,1.75,nw,z,,,,,,,
,,,,,,,,,,,,001,2023-11-08_24h06.32.116,vowel_harmony,2023.2.3,Win32,60.21919788,609.2218,610.2216,,,,,,,,,,,,,,,,,,,,,,,,,,610.2216,610.7383,m,1,0.5081,,610.7384,610.7384,,0,298,298,98,1,99,paket,1532,69.608,1392,0.1522,5,notharmonic,1.55,word,m,,,,,,,
,,,,,,,,,,,,001,2023-11-08_24h06.32.116,vowel_harmony,2023.2.3,Win32,60.21919788,610.7386,611.7384,,,,,,,,,,,,,,,,,,,,,,,,,,611.7384,612.3886,z,1,0.6348,,612.3886,612.3887,,0,299,299,313,1,314,ikas,,,,,4,notharmonic,1.85,nw,z,,,,,,,
,,,,,,,,,,,,001,2023-11-08_24h06.32.116,vowel_harmony,2023.2.3,Win32,60.21919788,612.3891,613.3884,,,,,,,,,,,,,,,,,,,,,,,,,,613.3884,614.0053,m,1,0.5979,,614.0053,614.0053,,0,300,300,78,1,79,ulusal,1551,70.4713,1355,0.1481,6,harmonic,1.75,word,m,,,,,,,
,,,,,,,,,,,,001,2023-11-08_24h06.32.116,vowel_harmony,2023.2.3,Win32,60.21919788,614.006,615.0054,,,,,,,,,,,,,,,,,,,,,,,,,,615.0055,615.6554,z,1,0.6337,,615.6554,615.6557,,0,301,301,343,1,344,tarne,,,,,5,notharmonic,1.85,nw,z,,,,,,,
,,,,,,,,,,,,001,2023-11-08_24h06.32.116,vowel_harmony,2023.2.3,Win32,60.21919788,615.6563,616.6555,,,,,,,,,,,,,,,,,,,,,,,,,,616.6555,617.3886,z,1,0.7193,,617.3886,617.3887,,0,302,302,268,1,269,haldum,,,,,6,harmonic,2,nw,z,,,,,,,
,,,,,,,,,,,,001,2023-11-08_24h06.32.116,vowel_harmony,2023.2.3,Win32,60.21919788,617.3889,618.3887,,,,,,,,,,,,,,,,,,,,,,,,,,618.3887,618.9386,m,1,0.5294,,618.9386,618.9387,,0,303,303,130,1,131,hamile,1075,48.8437,877,0.0959,6,notharmonic,1.5,word,m,,,,,,,
,,,,,,,,,,,,001,2023-11-08_24h06.32.116,vowel_harmony,2023.2.3,Win32,60.21919788,618.9388,619.9386,,,,,,,,,,,,,,,,,,,,,,,,,,619.9386,620.4056,m,1,0.4522,,620.4056,620.4057,,0,304,304,19,1,20,ödül,1063,48.2985,926,0.1012,4,harmonic,1.7,word,m,,,,,,,
,,,,,,,,,,,,001,2023-11-08_24h06.32.116,vowel_harmony,2023.2.3,Win32,60.21919788,620.4065,621.4057,,,,,,,,,,,,,,,,,,,,,,,,,,621.4058,621.9558,m,1,0.5308,,621.9558,621.9559,,0,305,305,72,1,73,çorba,1674,76.0599,1513,0.1654,5,harmonic,1.75,word,m,,,,,,,
,,,,,,,,,,,,001,2023-11-08_24h06.32.116,vowel_harmony,2023.2.3,Win32,60.21919788,621.9562,622.9557,,,,,,,,,,,,,,,,,,,,,,,,,,622.9557,623.472,m,1,0.5005,,623.472,623.472,,0,306,306,57,1,58,bölüm,1910,86.7828,1605,0.1755,5,harmonic,1.45,word,m,,,,,,,
,,,,,,,,,,,,001,2023-11-08_24h06.32.116,vowel_harmony,2023.2.3,Win32,60.21919788,623.4722,624.472,,,,,,,,,,,,,,,,,,,,,,,,,,624.472,624.9388,m,1,0.4572,,624.9388,624.9388,,0,307,307,59,1,60,köpek,1044,47.4352,901,0.0985,5,harmonic,1.75,word,m,,,,,,,
,,,,,,,,,,,,001,2023-11-08_24h06.32.116,vowel_harmony,2023.2.3,Win32,60.21919788,624.939,625.9387,,,,,,,,,,,,,,,,,,,,,,,,,,625.9388,626.422,m,1,0.4657,,626.422,626.422,,0,308,308,79,1,80,durum,6783,308.1926,6431,0.703,5,harmonic,1.7,word,m,,,,,,,
,,,,,,,,,,,,001,2023-11-08_24h06.32.116,vowel_harmony,2023.2.3,Win32,60.21919788,626.4223,627.4222,,,,,,,,,,,,,,,,,,,,,,,,,,627.4222,628.1727,z,1,0.7354,,628.1728,628.173,,0,309,309,262,1,263,sauk,,,,,4,harmonic,1.85,nw,z,,,,,,,
,,,,,,,,,,,,001,2023-11-08_24h06.32.116,vowel_harmony,2023.2.3,Win32,60.21919788,628.1734,629.1721,,,,,,,,,,,,,,,,,,,,,,,,,,629.1721,629.7054,m,1,0.5207,,629.7054,629.7055,,0,310,310,47,1,48,kaza,740,33.6227,679,0.0742,4,harmonic,1.85,word,m,,,,,,,
,,,,,,,,,,,,001,2023-11-08_24h06.32.116,vowel_harmony,2023.2.3,Win32,60.21919788,629.7057,630.7054,,,,,,,,,,,,,,,,,,,,,,,,,,630.7054,631.5733,z,1,0.8501,,631.5733,631.5735,,0,311,311,351,1,352,seğlık,,,,,6,notharmonic,1.9,nw,z,,,,,,,
,,,,,,,,,,,,001,2023-11-08_24h06.32.116,vowel_harmony,2023.2.3,Win32,60.21919788,631.5739,632.5725,,,,,,,,,,,,,,,,,,,,,,,,,,632.5726,633.039,m,1,0.4564,,633.039,633.0391,,0,312,312,21,1,22,duygu,1877,85.2834,1760,0.1924,5,harmonic,1.8,word,m,,,,,,,
,,,,,,,,,,,,001,2023-11-08_24h06.32.116,vowel_harmony,2023.2.3,Win32,60.21919788,633.0393,634.039,,,,,,,,,,,,,,,,,,,,,,,,,,634.0391,634.6057,m,1,0.5537,,634.6057,634.6057,,0,313,313,160,1,161,hakem,603,27.3979,473,0.0517,5,notharmonic,1.3,word,m,,,,,,,
,,,,,,,,,,,,001,2023-11-08_24h06.32.116,vowel_harmony,2023.2.3,Win32,60.21919788,634.606,635.6061,,,,,,,,,,,,,,,,,,,,,,,,,,635.6061,636.1227,m,1,0.5038,,636.1227,636.1228,,0,314,314,101,1,102,imza,1358,61.7021,1253,0.137,4,notharmonic,1.65,word,m,,,,,,,
,,,,,,,,,,,,001,2023-11-08_24h06.32.116,vowel_harmony,2023.2.3,Win32,60.21919788,636.123,637.1224,,,,,,,,,,,,,,,,,,,,,,,,,,637.1225,637.8058,z,1,0.6637,,637.8058,637.8059,,0,315,315,266,1,267,düştön,,,,,6,harmonic,1.9,nw,z,,,,,,,
,,,,,,,,,,,,001,2023-11-08_24h06.32.116,vowel_harmony,2023.2.3,Win32,60.21919788,637.8061,638.8057,,,,,,,,,,,,,,,,,,,,,,,,,,638.8057,639.4061,m,1,0.5835,,639.4062,639.4062,,0,316,316,76,1,77,ilişki,1675,76.1054,1524,0.1666,6,harmonic,1.8,word,m,,,,,,,
,,,,,,,,,,,,001,2023-11-08_24h06.32.116,vowel_harmony,2023.2.3,Win32,60.21919788,639.4065,640.4058,,,,,,,,,,,,,,,,,,,,,,,,,,640.4058,641.0057,m,1,0.5854,,641.0057,641.0058,,0,317,317,92,1,93,sahne,1380,62.7017,1238,0.1353,5,notharmonic,1.65,word,m,,,,,,,
,,,,,,,,,,,,001,2023-11-08_24h06.32.116,vowel_harmony,2023.2.3,Win32,60.21919788,641.006,642.0058,,,,,,,,,,,,,,,,,,,,,,,,,,642.0058,642.6058,m,1,0.5843,,642.6059,642.6059,,0,318,318,118,1,119,meşhur,1092,49.6161,1057,0.1156,6,notharmonic,1.9,word,m,,,,,,,
,,,,,,,,,,,,001,2023-11-08_24h06.32.116,vowel_harmony,2023.2.3,Win32,60.21919788,642.6062,643.6058,,,,,,,,,,,,,,,,,,,,,,,,,,643.6058,644.1558,m,1,0.5392,,644.1559,644.156,,0,319,319,132,1,133,modern,2326,105.6842,2031,0.222,6,notharmonic,1.85,word,m,,,,,,,
,,,,,,,,,,,,001,2023-11-08_24h06.32.116,vowel_harmony,2023.2.3,Win32,60.21919788,644.1562,645.1558,,,,,,,,,,,,,,,,,,,,,,,,,,645.1558,645.7393,m,1,0.5734,,645.7393,645.7393,,0,320,320,169,1,170,hikaye,1555,70.653,1405,0.1536,6,notharmonic,1.8,word,m,,,,,,,
,,,,,,,,,,,,001,2023-11-08_24h06.32.116,vowel_harmony,2023.2.3,Win32,60.21919788,645.7397,646.7392,,,,,,,,,,,,,,,,,,,,,,,,,,646.7392,647.5227,m,1,0.7625,,647.5227,647.5228,,0,321,321,145,1,146,iddia,2430,110.4096,2295,0.2509,5,notharmonic,1.85,word,m,,,,,,,
,,,,,,,,,,,,001,2023-11-08_24h06.32.116,vowel_harmony,2023.2.3,Win32,60.21919788,647.523,648.5226,,,,,,,,,,,,,,,,,,,,,,,,,,648.5227,649.0894,m,1,0.5581,,649.0894,649.0894,,0,322,322,64,1,65,lise,888,40.3472,816,0.0892,4,harmonic,1.5,word,m,,,,,,,
,,,,,,,,,,,,001,2023-11-08_24h06.32.116,vowel_harmony,2023.2.3,Win32,60.21919788,649.0896,650.0895,,,,,,,,,,,,,,,,,,,,,,,,,,650.0895,650.8561,z,1,0.7554,,650.8561,650.8562,,0,323,323,319,1,320,biho,,,,,4,notharmonic,2,nw,z,,,,,,,
,,,,,,,,,,,,001,2023-11-08_24h06.32.116,vowel_harmony,2023.2.3,Win32,60.21919788,650.8565,651.8566,,,,,,,,,,,,,,,,,,,,,,,,,,651.8567,652.5564,z,1,0.6865,,652.5565,652.5565,,0,324,324,298,1,299,yelsın,,,,,6,notharmonic,1.95,nw,z,,,,,,,
,,,,,,,,,,,,001,2023-11-08_24h06.32.116,vowel_harmony,2023.2.3,Win32,60.21919788,652.5568,653.5564,,,,,,,,,,,,,,,,,,,,,,,,,,653.5565,654.19,m,1,0.6137,,654.1901,654.1902,,0,325,325,166,1,167,maden,402,18.2653,339,0.0371,5,notharmonic,1.45,word,m,,,,,,,
,,,,,,,,,,,,001,2023-11-08_24h06.32.116,vowel_harmony,2023.2.3,Win32,60.21919788,654.1909,655.1894,,,,,,,,,,,,,,,,,,,,,,,,,,655.1895,655.7894,m,1,0.5831,,655.7895,655.7896,,0,326,326,43,1,44,geniş,3380,153.5738,3185,0.3482,5,harmonic,1.35,word,m,,,,,,,
,,,,,,,,,,,,001,2023-11-08_24h06.32.116,vowel_harmony,2023.2.3,Win32,60.21919788,655.7898,656.7895,,,,,,,,,,,,,,,,,,,,,,,,,,656.7895,657.6898,z,1,0.8807,,657.6898,657.6899,,0,327,327,299,1,300,fihal,,,,,5,notharmonic,1.95,nw,z,,,,,,,
,,,,,,,,,,,,001,2023-11-08_24h06.32.116,vowel_harmony,2023.2.3,Win32,60.21919788,657.6902,658.6897,,,,,,,,,,,,,,,,,,,,,,,,,,658.6897,659.2064,m,1,0.4967,,659.2065,659.2065,,0,328,328,36,1,37,meslek,1082,49.1618,976,0.1067,6,harmonic,1.9,word,m,,,,,,,
,,,,,,,,,,,,001,2023-11-08_24h06.32.116,vowel_harmony,2023.2.3,Win32,60.21919788,659.2068,660.2063,,,,,,,,,,,,,,,,,,,,,,,,,,660.2063,660.7565,m,1,0.5334,,660.7566,660.7566,,0,329,329,163,1,164,limon,1658,75.3329,1481,0.1619,5,notharmonic,1.75,word,m,,,,,,,
,,,,,,,,,,,,001,2023-11-08_24h06.32.116,vowel_harmony,2023.2.3,Win32,60.21919788,660.7568,661.7569,,,,,,,,,,,,,,,,,,,,,,,,,,661.7569,662.323,m,1,0.5463,,662.323,662.3231,,0,330,330,175,1,176,aile,3655,166.0687,3126,0.3417,4,notharmonic,1,word,m,,,,,,,
,,,,,,,,,,,,001,2023-11-08_24h06.32.116,vowel_harmony,2023.2.3,Win32,60.21919788,662.3233,663.3234,,,,,,,,,,,,,,,,,,,,,,,,,,663.3234,664.0234,z,1,0.6849,,664.0235,664.0236,,0,331,331,341,1,342,işgan,,,,,5,notharmonic,1.95,nw,z,,,,,,,
,,,,,,,,,,,,001,2023-11-08_24h06.32.116,vowel_harmony,2023.2.3,Win32,60.21919788,664.0241,665.023,,,,,,,,,,,,,,,,,,,,,,,,,,665.0231,665.6065,m,1,0.5698,,665.6065,665.6065,,0,332,332,82,1,83,aday,1028,46.7082,873,0.0954,4,harmonic,1.45,word,m,,,,,,,
,,,,,,,,,,,,001,2023-11-08_24h06.32.116,vowel_harmony,2023.2.3,Win32,60.21919788,665.6068,666.6066,,,,,,,,,,,,,,,,,,,,,,,,,,666.6066,667.2896,z,1,0.6665,,667.2898,667.2898,,0,333,333,261,1,262,kardok,,,,,6,harmonic,1.95,nw,z,,,,,,,
,,,,,,,,,,,,001,2023-11-08_24h06.32.116,vowel_harmony,2023.2.3,Win32,60.21919788,667.29,668.2899,,,,,,,,,,,,,,,,,,,,,,,,,,668.29,669.1065,z,1,0.8017,,669.1065,669.1065,,0,334,334,254,1,255,millek,,,,,6,harmonic,1.8,nw,z,,,,,,,
,,,,,,,,,,,,001,2023-11-08_24h06.32.116,vowel_harmony,2023.2.3,Win32,60.21919788,669.1068,670.1067,,,,,,,,,,,,,,,,,,,,,,,,,,670.1067,670.7231,z,1,0.606,,670.7231,670.7232,,0,335,335,357,1,358,işarek,,,,,6,notharmonic,1.95,nw,z,,,,,,,
,,,,,,,,,,,,001,2023-11-08_24h06.32.116,vowel_harmony,2023.2.3,Win32,60.21919788,670.7234,671.724,,,,,,,,,,,,,,,,,,,,,,,,,,671.724,672.3564,z,1,0.6187,,672.3564,672.3565,,0,336,336,309,1,310,yorgen,,,,,6,notharmonic,1.9,nw,z,,,,,,,
,,,,,,,,,,,,001,2023-11-08_24h06.32.116,vowel_harmony,2023.2.3,Win32,60.21919788,672.3567,673.3571,,,,,,,,,,,,,,,,,,,,,,,,,,673.3572,673.9901,z,0,0.6176,,673.9902,673.9902,,0,337,337,80,1,81,merkez,1445,65.6551,1255,0.1372,6,harmonic,1.8,word,m,,,,,,,
,,,,,,,,,,,,001,2023-11-08_24h06.32.116,vowel_harmony,2023.2.3,Win32,60.21919788,673.9904,674.9906,,,,,,,,,,,,,,,,,,,,,,,,,,674.9906,675.6066,m,1,0.596,,675.6066,675.6067,,0,338,338,142,1,143,siyasi,2909,132.1734,2445,0.2673,6,notharmonic,1.8,word,m,,,,,,,
,,,,,,,,,,,,001,2023-11-08_24h06.32.116,vowel_harmony,2023.2.3,Win32,60.21919788,675.6069,676.6067,,,,,,,,,,,,,,,,,,,,,,,,,,676.6067,677.29,z,1,0.6675,,677.29,677.29,,0,339,339,280,1,281,adalek,,,,,6,notharmonic,1.85,nw,z,,,,,,,
,,,,,,,,,,,,001,2023-11-08_24h06.32.116,vowel_harmony,2023.2.3,Win32,60.21919788,677.2902,678.2899,,,,,,,,,,,,,,,,,,,,,,,,,,678.29,678.9733,z,1,0.6712,,678.9734,678.9734,,0,340,340,328,1,329,kirul,,,,,5,notharmonic,1.95,nw,z,,,,,,,
,,,,,,,,,,,,001,2023-11-08_24h06.32.116,vowel_harmony,2023.2.3,Win32,60.21919788,678.9736,679.9737,,,,,,,,,,,,,,,,,,,,,,,,,,679.9737,681.0067,z,1,1.0157,,681.0067,681.0068,,0,341,341,283,1,284,fahe,,,,,4,notharmonic,1.95,nw,z,,,,,,,
,,,,,,,,,,,,001,2023-11-08_24h06.32.116,vowel_harmony,2023.2.3,Win32,60.21919788,681.0071,682.0074,,,,,,,,,,,,,,,,,,,,,,,,,,682.0074,682.6568,z,1,0.6411,,682.6568,682.6568,,0,342,342,245,1,246,bıyan,,,,,5,harmonic,1.7,nw,z,,,,,,,
,,,,,,,,,,,,001,2023-11-08_24h06.32.116,vowel_harmony,2023.2.3,Win32,60.21919788,682.6571,683.6568,,,,,,,,,,,,,,,,,,,,,,,,,,683.6568,684.2402,z,1,0.5673,,684.2402,684.2402,,0,343,343,269,1,270,vekü,,,,,4,harmonic,2,nw,z,,,,,,,
,,,,,,,,,,,,001,2023-11-08_24h06.32.116,vowel_harmony,2023.2.3,Win32,60.21919788,684.2404,685.2407,,,,,,,,,,,,,,,,,,,,,,,,,,685.2408,685.8404,m,1,0.5897,,685.8404,685.8404,,0,344,344,18,1,19,normal,4154,188.7413,3788,0.4141,6,harmonic,1.75,word,m,,,,,,,
,,,,,,,,,,,,001,2023-11-08_24h06.32.116,vowel_harmony,2023.2.3,Win32,60.21919788,685.8407,686.8407,,,,,,,,,,,,,,,,,,,,,,,,,,686.8408,687.4403,z,1,0.5839,,687.4404,687.4404,,0,345,345,212,1,213,ortat,,,,,5,harmonic,1.7,nw,z,,,,,,,
,,,,,,,,,,,,001,2023-11-08_24h06.32.116,vowel_harmony,2023.2.3,Win32,60.21919788,687.4406,688.4405,,,,,,,,,,,,,,,,,,,,,,,,,,688.4405,689.5236,z,1,1.064,,689.5237,689.5238,,0,346,346,310,1,311,yandeş,,,,,6,notharmonic,1.95,nw,z,,,,,,,
,,,,,,,,,,,,001,2023-11-08_24h06.32.116,vowel_harmony,2023.2.3,Win32,60.21919788,689.524,690.5237,,,,,,,,,,,,,,,,,,,,,,,,,,690.5238,691.1237,m,1,0.5882,,691.1237,691.1238,,0,347,347,103,1,104,tane,5623,255.4868,5075,0.5548,4,notharmonic,1.3,word,m,,,,,,,
,,,,,,,,,,,,001,2023-11-08_24h06.32.116,vowel_harmony,2023.2.3,Win32,60.21919788,691.1241,692.1246,,,,,,,,,,,,,,,,,,,,,,,,,,692.1246,692.674,m,1,0.5393,,692.674,692.6741,,0,348,348,167,1,168,adalet,1611,73.1975,1388,0.1517,6,notharmonic,1.65,word,m,,,,,,,
,,,,,,,,,,,,001,2023-11-08_24h06.32.116,vowel_harmony,2023.2.3,Win32,60.21919788,692.6742,693.6743,,,,,,,,,,,,,,,,,,,,,,,,,,693.6743,694.2073,m,1,0.5138,,694.2073,694.2074,,0,349,349,14,1,15,yaşam,4348,197.5559,3918,0.4283,5,harmonic,1.4,word,m,,,,,,,
,,,,,,,,,,,,001,2023-11-08_24h06.32.116,vowel_harmony,2023.2.3,Win32,60.21919788,694.2076,695.2074,,,,,,,,,,,,,,,,,,,,,,,,,,695.2074,695.7408,m,1,0.5195,,695.7409,695.741,,0,350,350,106,1,107,esnaf,315,14.3124,284,0.031,5,notharmonic,1.55,word,m,,,,,,,
,,,,,,,,,,,,001,2023-11-08_24h06.32.116,vowel_harmony,2023.2.3,Win32,60.21919788,695.7412,696.7406,,,,,,,,,,,,,,,,,,,,,,,,,,696.7406,697.2912,m,1,0.5313,,697.2912,697.2913,,0,351,351,51,1,52,ilginç,2803,127.3572,2690,0.2941,6,harmonic,1.8,word,m,,,,,,,
,,,,,,,,,,,,001,2023-11-08_24h06.32.116,vowel_harmony,2023.2.3,Win32,60.21919788,697.2916,698.2904,,,,,,,,,,,,,,,,,,,,,,,,,,698.2904,698.8906,z,1,0.5832,,698.8906,698.8907,,0,352,352,324,1,325,pakeh,,,,,5,notharmonic,1.9,nw,z,,,,,,,
,,,,,,,,,,,,001,2023-11-08_24h06.32.116,vowel_harmony,2023.2.3,Win32,60.21919788,698.8909,699.8908,,,,,,,,,,,,,,,,,,,,,,,,,,699.8909,700.3245,m,1,0.4207,,700.3246,700.3246,,0,353,353,89,1,90,etki,1234,56.0681,1169,0.1278,4,harmonic,1.4,word,m,,,,,,,
,,,,,,,,,,,,001,2023-11-08_24h06.32.116,vowel_harmony,2023.2.3,Win32,60.21919788,700.3251,701.3243,,,,,,,,,,,,,,,,,,,,,,,,,,701.3243,701.9572,z,1,0.6147,,701.9572,701.9573,,0,354,354,251,1,252,oştay,,,,,5,harmonic,1.95,nw,z,,,,,,,
,,,,,,,,,,,,001,2023-11-08_24h06.32.116,vowel_harmony,2023.2.3,Win32,60.21919788,701.9575,702.9574,,,,,,,,,,,,,,,,,,,,,,,,,,702.9574,703.4073,m,1,0.431,,703.4073,703.4074,,0,355,355,112,1,113,sezon,2315,105.1844,1917,0.2096,5,notharmonic,1.8,word,m,,,,,,,
,,,,,,,,,,,,001,2023-11-08_24h06.32.116,vowel_harmony,2023.2.3,Win32,60.21919788,703.4075,704.4074,,,,,,,,,,,,,,,,,,,,,,,,,,704.4074,704.9573,m,1,0.5366,,704.9574,704.9574,,0,356,356,116,1,117,daire,621,28.2158,503,0.055,5,notharmonic,1,word,m,,,,,,,
,,,,,,,,,,,,001,2023-11-08_24h06.32.116,vowel_harmony,2023.2.3,Win32,60.21919788,704.9576,705.9574,,,,,,,,,,,,,,,,,,,,,,,,,,705.9574,706.6576,z,1,0.6911,,706.6576,706.6576,,0,357,357,275,1,276,tahçe,,,,,5,notharmonic,1.95,nw,z,,,,,,,
,,,,,,,,,,,,001,2023-11-08_24h06.32.116,vowel_harmony,2023.2.3,Win32,60.21919788,706.6578,707.6577,,,,,,,,,,,,,,,,,,,,,,,,,,707.6578,708.224,m,1,0.5588,,708.224,708.2241,,0,358,358,42,1,43,ürün,2268,103.0489,1954,0.2136,4,harmonic,1.1,word,m,,,,,,,
,,,,,,,,,,,,001,2023-11-08_24h06.32.116,vowel_harmony,2023.2.3,Win32,60.21919788,708.2244,709.2243,,,,,,,,,,,,,,,,,,,,,,,,,,709.2243,709.9911,z,1,0.7463,,709.9911,709.9912,,0,359,359,284,1,285,deval,,,,,5,notharmonic,1.75,nw,z,,,,,,,
,,,,,,,,,,,,001,2023-11-08_24h06.32.116,vowel_harmony,2023.2.3,Win32,60.21919788,,,,,,,,,,,,,,,,,,,,,,,,,,,,,,,,,,,,,,,,,,,,,,,,,,,,,,,709.9915,711.9243,space,1.917,