Welcome_screen.started,Welcome_screen.stopped,key_respwelcome.keys,key_respwelcome.rt,key_respwelcome.duration,intro_x.thisRepN,intro_x.thisTrialN,intro_x.thisN,intro_x.thisIndex,intro_x.ran,Introduction,participant,session,date,expName,psychopyVersion,OS,frameRate,Fixation.started,Fixation.stopped,Studypractice.started,Studypractice.stopped,key_respstudy.keys,key_respstudy.corr,key_respstudy.rt,key_respstudy.duration,rt,corr,Feedback.started,Feedback.stopped,practice_loop.thisRepN,practice_loop.thisTrialN,practice_loop.thisN,practice_loop.thisIndex,practice_loop.ran,item_nr_p,target_p,isHarmonic_p,target_cond_p,CorrAns_p,Instraction.started,Instraction.stopped,key_respınstraction.keys,key_respınstraction.rt,key_respınstraction.duration,TestTrial.started,TestTrial.stopped,key_respTest.keys,key_respTest.corr,key_respTest.rt,key_respTest.duration,Pause.started,Pause.stopped,key_resp_xx.keys,test_loop.thisRepN,test_loop.thisTrialN,test_loop.thisN,test_loop.thisIndex,test_loop.ran,item_nr,target,BlogFreq_A1,BlogFreqpm_A1,BlogCD_A1,BlogCDPc_A1,WordLength_A1,isHarmonic_A1,old20,target_cond,CorrAns,key_resp_xx.rt,key_resp_xx.duration,Goodbye_screen.started,Goodbye_screen.stopped,key_respgoodbye.keys,key_respgoodbye.rt,key_respgoodbye.duration
0.0387,2.7558,space,2.6909,,0,0,0,0,1,"Deneye hoş geldiniz,

Devam etmek için BOŞLUK tuşuna basınız.",,001,2023-11-08_06h59.34.405,vowel_harmony,2023.2.3,MacIntel,59.99880002,,,,,,,,,,,,,,,,,,,,,,,,,,,,,,,,,,,,,,,,,,,,,,,,,,,,,,,,,,,
2.7572,16.8371,space,14.0639,,0,1,1,1,1,"Bu çalışma Valencia Üniversitesi kapsamında yürütülmektedir. Deneydeki göreviniz, ekrana çıkacak Türkçe sözcüklerin kelime olup olmadığını belirlemenizdir. Eğer sözcük gerçek bir kelime ise ""m"" tuşuna, değil ise ""z"" tuşuna basınız.   

Devam etmek için BOŞLUK tuşuna basınız.",,001,2023-11-08_06h59.34.405,vowel_harmony,2023.2.3,MacIntel,59.99880002,,,,,,,,,,,,,,,,,,,,,,,,,,,,,,,,,,,,,,,,,,,,,,,,,,,,,,,,,,,
16.8376,26.5562,space,9.696,,0,2,2,2,1,"Her sözcük için en fazla iki saniyede cevap vermeniz beklenmektedir. Aksi takdirde deney bir sonraki sözcük ile devam eder. 
Bu çalışmada oldukça hızlı ve doğru cevaplama yapmanız beklenmektedir.

Devam etmek için BOŞLUK tuşuna basınız.",,001,2023-11-08_06h59.34.405,vowel_harmony,2023.2.3,MacIntel,59.99880002,,,,,,,,,,,,,,,,,,,,,,,,,,,,,,,,,,,,,,,,,,,,,,,,,,,,,,,,,,,
26.557,31.7739,space,5.1966,,0,3,3,3,1,"Çalışmaya başlamadan önce ufak bir pratik yer almaktadır.
Kelimedir: ""m""
Kelime değildir: ""z""

Pratik teste başlamak için BOŞLUK tuşuna basınız. ",,001,2023-11-08_06h59.34.405,vowel_harmony,2023.2.3,MacIntel,59.99880002,,,,,,,,,,,,,,,,,,,,,,,,,,,,,,,,,,,,,,,,,,,,,,,,,,,,,,,,,,,
,,,,,,,,,,,,001,2023-11-08_06h59.34.405,vowel_harmony,2023.2.3,MacIntel,59.99880002,31.7877,32.7916,32.7918,34.107,m,1,1.2858,,1.2858,1,34.1074,35.607,0,0,0,2,1,3,memur,notharmonic,word,m,,,,,,,,,,,,,,,,,,,,,,,,,,,,,,,,,,,,,
,,,,,,,,,,,,001,2023-11-08_06h59.34.405,vowel_harmony,2023.2.3,MacIntel,59.99880002,35.6079,36.6062,36.6062,38.3393,z,1,1.7139,,1.7139,1,38.3393,39.8429,0,1,1,14,1,15,pimer,harmonic,nw,z,,,,,,,,,,,,,,,,,,,,,,,,,,,,,,,,,,,,,
,,,,,,,,,,,,001,2023-11-08_06h59.34.405,vowel_harmony,2023.2.3,MacIntel,59.99880002,39.8433,40.8391,40.8392,41.8571,z,1,0.9993,,0.9993,1,41.8572,43.3579,0,2,2,13,1,14,pilar,notharmonic,nw,z,,,,,,,,,,,,,,,,,,,,,,,,,,,,,,,,,,,,,
,,,,,,,,,,,,001,2023-11-08_06h59.34.405,vowel_harmony,2023.2.3,MacIntel,59.99880002,43.3585,44.359,44.359,45.2417,m,1,0.8657,,0.8657,1,45.2418,46.7392,0,3,3,0,1,1,ihale,notharmonic,word,m,,,,,,,,,,,,,,,,,,,,,,,,,,,,,,,,,,,,,
,,,,,,,,,,,,001,2023-11-08_06h59.34.405,vowel_harmony,2023.2.3,MacIntel,59.99880002,46.7401,47.7409,47.7409,48.5094,m,1,0.7514,,0.7514,1,48.5095,50.016,0,4,4,1,1,2,veri,harmonic,word,m,,,,,,,,,,,,,,,,,,,,,,,,,,,,,,,,,,,,,
,,,,,,,,,,,,001,2023-11-08_06h59.34.405,vowel_harmony,2023.2.3,MacIntel,59.99880002,50.0163,51.0087,51.0087,52.4412,z,1,1.4138,,1.4138,1,52.4412,53.9418,0,5,5,10,1,11,mahne,notharmonic,nw,z,,,,,,,,,,,,,,,,,,,,,,,,,,,,,,,,,,,,,
,,,,,,,,,,,,001,2023-11-08_06h59.34.405,vowel_harmony,2023.2.3,MacIntel,59.99880002,53.9422,54.9403,54.9404,55.0577,z,1,0.0956,,0.0956,1,55.0578,56.5584,0,6,6,11,1,12,geki,harmonic,nw,z,,,,,,,,,,,,,,,,,,,,,,,,,,,,,,,,,,,,,
,,,,,,,,,,,,001,2023-11-08_06h59.34.405,vowel_harmony,2023.2.3,MacIntel,59.99880002,56.5588,57.5578,57.5579,58.358,m,1,0.7817,,0.7817,1,58.3581,59.8582,0,7,7,3,1,4,ihlal,notharmonic,word,m,,,,,,,,,,,,,,,,,,,,,,,,,,,,,,,,,,,,,
,,,,,,,,,,,,001,2023-11-08_06h59.34.405,vowel_harmony,2023.2.3,MacIntel,59.99880002,59.8586,60.861,60.861,61.7248,m,1,0.8495,,0.8495,1,61.7248,63.2251,0,8,8,4,1,5,mimar,notharmonic,word,m,,,,,,,,,,,,,,,,,,,,,,,,,,,,,,,,,,,,,
,,,,,,,,,,,,001,2023-11-08_06h59.34.405,vowel_harmony,2023.2.3,MacIntel,59.99880002,63.2256,64.2245,64.2245,64.842,m,1,0.5961,,0.5961,1,64.842,66.3423,0,9,9,6,1,7,pilot,notharmonic,word,m,,,,,,,,,,,,,,,,,,,,,,,,,,,,,,,,,,,,,
,,,,,,,,,,,,001,2023-11-08_06h59.34.405,vowel_harmony,2023.2.3,MacIntel,59.99880002,66.3427,67.3432,67.3433,68.0756,z,1,0.7151,,0.7151,1,68.0757,69.5764,0,10,10,15,1,16,mımal,harmonic,nw,z,,,,,,,,,,,,,,,,,,,,,,,,,,,,,,,,,,,,,
,,,,,,,,,,,,001,2023-11-08_06h59.34.405,vowel_harmony,2023.2.3,MacIntel,59.99880002,69.5766,70.5745,70.5746,71.4099,z,1,0.8184,,0.8184,1,71.4099,72.9098,0,11,11,9,1,10,orat,harmonic,nw,z,,,,,,,,,,,,,,,,,,,,,,,,,,,,,,,,,,,,,
,,,,,,,,,,,,001,2023-11-08_06h59.34.405,vowel_harmony,2023.2.3,MacIntel,59.99880002,72.9101,73.91,73.9101,75.2258,z,1,1.2964,,1.2964,1,75.2258,76.7258,0,12,12,12,1,13,ihlot,notharmonic,nw,z,,,,,,,,,,,,,,,,,,,,,,,,,,,,,,,,,,,,,
,,,,,,,,,,,,001,2023-11-08_06h59.34.405,vowel_harmony,2023.2.3,MacIntel,59.99880002,76.7262,77.7261,77.7261,78.393,m,1,0.6499,,0.6499,1,78.3931,79.8941,0,13,13,7,1,8,oran,harmonic,word,m,,,,,,,,,,,,,,,,,,,,,,,,,,,,,,,,,,,,,
,,,,,,,,,,,,001,2023-11-08_06h59.34.405,vowel_harmony,2023.2.3,MacIntel,59.99880002,79.8945,80.8933,80.8934,81.6097,m,0,0.6931,,0.6931,0,81.6098,83.1104,0,14,14,8,1,9,tahip,notharmonic,nw,z,,,,,,,,,,,,,,,,,,,,,,,,,,,,,,,,,,,,,
,,,,,,,,,,,,001,2023-11-08_06h59.34.405,vowel_harmony,2023.2.3,MacIntel,59.99880002,83.1108,84.1104,84.1105,84.6765,m,1,0.5523,,0.5523,1,84.6765,86.1764,0,15,15,5,1,6,bahçe,notharmonic,word,m,,,,,,,,,,,,,,,,,,,,,,,,,,,,,,,,,,,,,
,,,,,,,,,,,,001,2023-11-08_06h59.34.405,vowel_harmony,2023.2.3,MacIntel,59.99880002,,,,,,,,,,,,,,,,,,,,,,,86.1772,103.9292,space,17.7333,,,,,,,,,,,,,,,,,,,,,,,,,,,,,,,,,
,,,,,,,,,,,,001,2023-11-08_06h59.34.405,vowel_harmony,2023.2.3,MacIntel,59.99880002,103.9879,104.945,,,,,,,,,,,,,,,,,,,,,,,,,,104.9454,105.8932,m,1,0.9256,,105.8934,105.8951,,0,0,0,38,1,39,dönem,2820,128.1296,2437,0.2664,5,harmonic,1.4,word,m,,,,,,,
,,,,,,,,,,,,001,2023-11-08_06h59.34.405,vowel_harmony,2023.2.3,MacIntel,59.99880002,105.8956,106.8944,,,,,,,,,,,,,,,,,,,,,,,,,,106.8944,107.4937,m,1,0.5783,,107.4938,107.4939,,0,1,1,19,1,20,ödül,1063,48.2985,926,0.1012,4,harmonic,1.7,word,m,,,,,,,
,,,,,,,,,,,,001,2023-11-08_06h59.34.405,vowel_harmony,2023.2.3,MacIntel,59.99880002,107.4944,108.4928,,,,,,,,,,,,,,,,,,,,,,,,,,108.4928,109.3792,z,1,0.8668,,109.3793,109.3794,,0,2,2,275,1,276,tahçe,,,,,5,notharmonic,1.95,nw,z,,,,,,,
,,,,,,,,,,,,001,2023-11-08_06h59.34.405,vowel_harmony,2023.2.3,MacIntel,59.99880002,109.3798,110.3793,,,,,,,,,,,,,,,,,,,,,,,,,,110.3793,111.2783,z,1,0.8827,,111.2783,111.2784,,0,3,3,346,1,347,kidan,,,,,5,notharmonic,1.8,nw,z,,,,,,,
,,,,,,,,,,,,001,2023-11-08_06h59.34.405,vowel_harmony,2023.2.3,MacIntel,59.99880002,111.2789,112.2775,,,,,,,,,,,,,,,,,,,,,,,,,,112.2776,113.3792,z,1,1.0795,,113.3793,113.3794,,0,4,4,217,1,218,sanfız,,,,,6,harmonic,1.85,nw,z,,,,,,,
,,,,,,,,,,,,001,2023-11-08_06h59.34.405,vowel_harmony,2023.2.3,MacIntel,59.99880002,113.3798,114.3779,,,,,,,,,,,,,,,,,,,,,,,,,,114.378,115.1775,z,1,0.7842,,115.1775,115.1776,,0,5,5,266,1,267,düştön,,,,,6,harmonic,1.9,nw,z,,,,,,,
,,,,,,,,,,,,001,2023-11-08_06h59.34.405,vowel_harmony,2023.2.3,MacIntel,59.99880002,115.1778,116.1773,,,,,,,,,,,,,,,,,,,,,,,,,,116.1774,116.8628,z,1,0.6641,,116.8629,116.863,,0,6,6,339,1,340,asmel,,,,,5,notharmonic,1.95,nw,z,,,,,,,
,,,,,,,,,,,,001,2023-11-08_06h59.34.405,vowel_harmony,2023.2.3,MacIntel,59.99880002,116.8634,117.863,,,,,,,,,,,,,,,,,,,,,,,,,,117.863,118.5116,z,1,0.6309,,118.5117,118.5118,,0,7,7,222,1,223,gelü,,,,,4,harmonic,1.75,nw,z,,,,,,,
,,,,,,,,,,,,001,2023-11-08_06h59.34.405,vowel_harmony,2023.2.3,MacIntel,59.99880002,118.5122,119.513,,,,,,,,,,,,,,,,,,,,,,,,,,119.5133,120.4133,z,1,0.8768,,120.4134,120.4135,,0,8,8,265,1,266,parula,,,,,6,harmonic,1.75,nw,z,,,,,,,
,,,,,,,,,,,,001,2023-11-08_06h59.34.405,vowel_harmony,2023.2.3,MacIntel,59.99880002,120.4139,121.4134,,,,,,,,,,,,,,,,,,,,,,,,,,121.4134,122.1629,m,1,0.7307,,122.163,122.163,,0,9,9,172,1,173,milyar,1496,67.9723,1078,0.1178,6,notharmonic,1.85,word,m,,,,,,,
,,,,,,,,,,,,001,2023-11-08_06h59.34.405,vowel_harmony,2023.2.3,MacIntel,59.99880002,122.1634,123.1618,,,,,,,,,,,,,,,,,,,,,,,,,,123.1618,123.7618,m,1,0.5822,,123.7618,123.7619,,0,10,10,123,1,124,haber,4559,207.1429,4151,0.4538,5,notharmonic,1.85,word,m,,,,,,,
,,,,,,,,,,,,001,2023-11-08_06h59.34.405,vowel_harmony,2023.2.3,MacIntel,59.99880002,123.7622,124.7635,,,,,,,,,,,,,,,,,,,,,,,,,,124.7636,125.5129,z,1,0.7327,,125.5129,125.5131,,0,11,11,202,1,203,güvin,,,,,5,harmonic,1.95,nw,z,,,,,,,
,,,,,,,,,,,,001,2023-11-08_06h59.34.405,vowel_harmony,2023.2.3,MacIntel,59.99880002,125.5137,126.5113,,,,,,,,,,,,,,,,,,,,,,,,,,126.5113,127.0971,m,1,0.5657,,127.0972,127.0975,,0,12,12,143,1,144,kitap,8359,379.7998,6786,0.7418,5,notharmonic,1.9,word,m,,,,,,,
,,,,,,,,,,,,001,2023-11-08_06h59.34.405,vowel_harmony,2023.2.3,MacIntel,59.99880002,127.0979,128.0959,,,,,,,,,,,,,,,,,,,,,,,,,,128.0959,128.7112,m,1,0.5976,,128.7113,128.7114,,0,13,13,100,1,101,düşman,1065,48.3894,962,0.1052,6,notharmonic,1.85,word,m,,,,,,,
,,,,,,,,,,,,001,2023-11-08_06h59.34.405,vowel_harmony,2023.2.3,MacIntel,59.99880002,128.7118,129.7139,,,,,,,,,,,,,,,,,,,,,,,,,,129.7139,130.3129,m,1,0.5879,,130.3131,130.3132,,0,14,14,7,1,8,hizmet,3023,137.3531,2689,0.294,6,harmonic,1.75,word,m,,,,,,,
,,,,,,,,,,,,001,2023-11-08_06h59.34.405,vowel_harmony,2023.2.3,MacIntel,59.99880002,130.3136,131.3121,,,,,,,,,,,,,,,,,,,,,,,,,,131.3121,132.0783,z,1,0.7486,,132.0783,132.0784,,0,15,15,225,1,226,düvem,,,,,5,harmonic,1.7,nw,z,,,,,,,
,,,,,,,,,,,,001,2023-11-08_06h59.34.405,vowel_harmony,2023.2.3,MacIntel,59.99880002,132.0788,133.0803,,,,,,,,,,,,,,,,,,,,,,,,,,133.0804,133.6796,z,1,0.5834,,133.6796,133.6798,,0,16,16,191,1,192,doab,,,,,4,harmonic,2,nw,z,,,,,,,
,,,,,,,,,,,,001,2023-11-08_06h59.34.405,vowel_harmony,2023.2.3,MacIntel,59.99880002,133.68,134.6792,,,,,,,,,,,,,,,,,,,,,,,,,,134.6792,135.2121,m,1,0.5151,,135.2121,135.2122,,0,17,17,62,1,63,cümle,1911,86.8283,1765,0.193,5,harmonic,1.85,word,m,,,,,,,
,,,,,,,,,,,,001,2023-11-08_06h59.34.405,vowel_harmony,2023.2.3,MacIntel,59.99880002,135.2126,136.2138,,,,,,,,,,,,,,,,,,,,,,,,,,136.2139,137.113,z,1,0.8818,,137.113,137.1131,,0,18,18,204,1,205,gerkez,,,,,6,harmonic,1.9,nw,z,,,,,,,
,,,,,,,,,,,,001,2023-11-08_06h59.34.405,vowel_harmony,2023.2.3,MacIntel,59.99880002,137.1135,138.1135,,,,,,,,,,,,,,,,,,,,,,,,,,138.1135,138.8641,m,1,0.7318,,138.8642,138.8643,,0,19,19,167,1,168,adalet,1611,73.1975,1388,0.1517,6,notharmonic,1.65,word,m,,,,,,,
,,,,,,,,,,,,001,2023-11-08_06h59.34.405,vowel_harmony,2023.2.3,MacIntel,59.99880002,138.8647,139.8626,,,,,,,,,,,,,,,,,,,,,,,,,,139.8626,140.6476,z,1,0.7663,,140.6477,140.6478,,0,20,20,203,1,204,döves,,,,,5,harmonic,1.8,nw,z,,,,,,,
,,,,,,,,,,,,001,2023-11-08_06h59.34.405,vowel_harmony,2023.2.3,MacIntel,59.99880002,140.6481,141.6476,,,,,,,,,,,,,,,,,,,,,,,,,,141.6476,142.3472,m,1,0.684,,142.3473,142.3473,,0,21,21,61,1,62,yıldız,1775,80.649,1532,0.1675,6,harmonic,1.6,word,m,,,,,,,
,,,,,,,,,,,,001,2023-11-08_06h59.34.405,vowel_harmony,2023.2.3,MacIntel,59.99880002,142.3477,143.3456,,,,,,,,,,,,,,,,,,,,,,,,,,143.3456,143.9306,z,0,0.5634,,143.9307,143.9307,,0,22,22,71,1,72,örnek,3463,157.345,3266,0.357,5,harmonic,1.85,word,m,,,,,,,
,,,,,,,,,,,,001,2023-11-08_06h59.34.405,vowel_harmony,2023.2.3,MacIntel,59.99880002,143.9311,144.9304,,,,,,,,,,,,,,,,,,,,,,,,,,144.9304,145.8793,z,1,0.9336,,145.8793,145.8794,,0,23,23,223,1,224,kakon,,,,,5,harmonic,1.85,nw,z,,,,,,,
,,,,,,,,,,,,001,2023-11-08_06h59.34.405,vowel_harmony,2023.2.3,MacIntel,59.99880002,145.8796,146.8812,,,,,,,,,,,,,,,,,,,,,,,,,,146.8813,147.5815,m,1,0.679,,147.5815,147.5816,,0,24,24,98,1,99,paket,1532,69.608,1392,0.1522,5,notharmonic,1.55,word,m,,,,,,,
,,,,,,,,,,,,001,2023-11-08_06h59.34.405,vowel_harmony,2023.2.3,MacIntel,59.99880002,147.582,148.5807,,,,,,,,,,,,,,,,,,,,,,,,,,148.5807,149.464,z,1,0.8607,,149.4641,149.4643,,0,25,25,263,1,264,duzur,,,,,5,harmonic,1.8,nw,z,,,,,,,
,,,,,,,,,,,,001,2023-11-08_06h59.34.405,vowel_harmony,2023.2.3,MacIntel,59.99880002,149.4647,150.4654,,,,,,,,,,,,,,,,,,,,,,,,,,150.4655,151.215,z,1,0.7328,,151.2151,151.2151,,0,26,26,240,1,241,hoga,,,,,4,harmonic,1.75,nw,z,,,,,,,
,,,,,,,,,,,,001,2023-11-08_06h59.34.405,vowel_harmony,2023.2.3,MacIntel,59.99880002,151.2156,152.2149,,,,,,,,,,,,,,,,,,,,,,,,,,152.2149,152.8809,z,1,0.6464,,152.881,152.8811,,0,27,27,192,1,193,vecö,,,,,4,harmonic,1.95,nw,z,,,,,,,
,,,,,,,,,,,,001,2023-11-08_06h59.34.405,vowel_harmony,2023.2.3,MacIntel,59.99880002,152.8815,153.8833,,,,,,,,,,,,,,,,,,,,,,,,,,153.8833,154.6816,z,1,0.7865,,154.6816,154.6817,,0,28,28,289,1,290,karmen,,,,,6,notharmonic,1.75,nw,z,,,,,,,
,,,,,,,,,,,,001,2023-11-08_06h59.34.405,vowel_harmony,2023.2.3,MacIntel,59.99880002,154.6821,155.6815,,,,,,,,,,,,,,,,,,,,,,,,,,155.6816,156.4815,m,1,0.7791,,156.4816,156.4816,,0,29,29,37,1,38,hayvan,2363,107.3653,1894,0.2071,6,harmonic,1.5,word,m,,,,,,,
,,,,,,,,,,,,001,2023-11-08_06h59.34.405,vowel_harmony,2023.2.3,MacIntel,59.99880002,156.4821,157.481,,,,,,,,,,,,,,,,,,,,,,,,,,157.481,158.2821,z,1,0.7786,,158.2821,158.2821,,0,30,30,207,1,208,örtre,,,,,5,harmonic,1.85,nw,z,,,,,,,
,,,,,,,,,,,,001,2023-11-08_06h59.34.405,vowel_harmony,2023.2.3,MacIntel,59.99880002,158.2825,159.2803,,,,,,,,,,,,,,,,,,,,,,,,,,159.2803,160.1495,m,1,0.8458,,160.1495,160.1497,,0,31,31,128,1,129,tatil,2152,97.7783,1865,0.2039,5,notharmonic,1.7,word,m,,,,,,,
,,,,,,,,,,,,001,2023-11-08_06h59.34.405,vowel_harmony,2023.2.3,MacIntel,59.99880002,160.1501,161.1486,,,,,,,,,,,,,,,,,,,,,,,,,,161.1488,161.7978,m,1,0.6326,,161.7979,161.798,,0,32,32,97,1,98,mevcut,3007,136.6262,2842,0.3107,6,notharmonic,1.95,word,m,,,,,,,
,,,,,,,,,,,,001,2023-11-08_06h59.34.405,vowel_harmony,2023.2.3,MacIntel,59.99880002,161.7983,162.7982,,,,,,,,,,,,,,,,,,,,,,,,,,162.7982,163.3656,m,1,0.5497,,163.3656,163.3657,,0,33,33,105,1,106,sahip,10887,494.6621,9847,1.0765,5,notharmonic,1.25,word,m,,,,,,,
,,,,,,,,,,,,001,2023-11-08_06h59.34.405,vowel_harmony,2023.2.3,MacIntel,59.99880002,163.3662,164.3657,,,,,,,,,,,,,,,,,,,,,,,,,,164.3657,164.9337,m,1,0.5485,,164.9337,164.9338,,0,34,34,164,1,165,sinema,1575,71.5618,1304,0.1426,6,notharmonic,1.8,word,m,,,,,,,
,,,,,,,,,,,,001,2023-11-08_06h59.34.405,vowel_harmony,2023.2.3,MacIntel,59.99880002,164.9341,165.9327,,,,,,,,,,,,,,,,,,,,,,,,,,165.9328,166.7303,z,1,0.7844,,166.7306,166.7307,,0,35,35,291,1,292,mepan,,,,,5,notharmonic,1.75,nw,z,,,,,,,
,,,,,,,,,,,,001,2023-11-08_06h59.34.405,vowel_harmony,2023.2.3,MacIntel,59.99880002,166.731,167.7302,,,,,,,,,,,,,,,,,,,,,,,,,,167.7302,168.4637,m,1,0.713,,168.4637,168.4638,,0,36,36,173,1,174,sade,1193,54.2052,1114,0.1218,4,notharmonic,1.55,word,m,,,,,,,
,,,,,,,,,,,,001,2023-11-08_06h59.34.405,vowel_harmony,2023.2.3,MacIntel,59.99880002,168.464,169.4658,,,,,,,,,,,,,,,,,,,,,,,,,,169.4659,170.0987,m,1,0.6147,,170.0987,170.0988,,0,37,37,55,1,56,akıl,2208,100.3228,2004,0.2191,4,harmonic,1,word,m,,,,,,,
,,,,,,,,,,,,001,2023-11-08_06h59.34.405,vowel_harmony,2023.2.3,MacIntel,59.99880002,170.0992,171.0987,,,,,,,,,,,,,,,,,,,,,,,,,,171.0988,171.9987,z,1,0.8796,,171.9987,171.9987,,0,38,38,315,1,316,takep,,,,,5,notharmonic,1.85,nw,z,,,,,,,
,,,,,,,,,,,,001,2023-11-08_06h59.34.405,vowel_harmony,2023.2.3,MacIntel,59.99880002,171.999,172.9979,,,,,,,,,,,,,,,,,,,,,,,,,,172.9979,173.6988,m,1,0.6804,,173.6988,173.6989,,0,39,39,147,1,148,işaret,1888,85.7832,1787,0.1954,6,notharmonic,1,word,m,,,,,,,
,,,,,,,,,,,,001,2023-11-08_06h59.34.405,vowel_harmony,2023.2.3,MacIntel,59.99880002,173.6991,174.6982,,,,,,,,,,,,,,,,,,,,,,,,,,174.6983,175.3149,m,1,0.5957,,175.3149,175.315,,0,40,40,16,1,17,yavaş,5087,231.1331,2886,0.3155,5,harmonic,1.6,word,m,,,,,,,
,,,,,,,,,,,,001,2023-11-08_06h59.34.405,vowel_harmony,2023.2.3,MacIntel,59.99880002,175.3156,176.3174,,,,,,,,,,,,,,,,,,,,,,,,,,176.3174,177.0482,z,1,0.7203,,177.0482,177.0483,,0,41,41,231,1,232,norgun,,,,,6,harmonic,1.75,nw,z,,,,,,,
,,,,,,,,,,,,001,2023-11-08_06h59.34.405,vowel_harmony,2023.2.3,MacIntel,59.99880002,177.0484,178.0479,,,,,,,,,,,,,,,,,,,,,,,,,,178.0479,178.5982,m,1,0.5344,,178.5982,178.5983,,0,42,42,171,1,172,reklam,1565,71.1074,1244,0.136,6,notharmonic,1.9,word,m,,,,,,,
,,,,,,,,,,,,001,2023-11-08_06h59.34.405,vowel_harmony,2023.2.3,MacIntel,59.99880002,178.5987,179.5984,,,,,,,,,,,,,,,,,,,,,,,,,,179.5985,180.3485,z,1,0.7374,,180.3485,180.3486,,0,43,43,313,1,314,ikas,,,,,4,notharmonic,1.85,nw,z,,,,,,,
,,,,,,,,,,,,001,2023-11-08_06h59.34.405,vowel_harmony,2023.2.3,MacIntel,59.99880002,180.3491,181.35,,,,,,,,,,,,,,,,,,,,,,,,,,181.35,181.9651,m,1,0.6014,,181.9652,181.9653,,0,44,44,152,1,153,tedavi,1865,84.7382,1597,0.1746,6,notharmonic,1.8,word,m,,,,,,,
,,,,,,,,,,,,001,2023-11-08_06h59.34.405,vowel_harmony,2023.2.3,MacIntel,59.99880002,181.9655,182.9647,,,,,,,,,,,,,,,,,,,,,,,,,,182.9647,183.5815,z,1,0.6013,,183.5815,183.5816,,0,45,45,262,1,263,sauk,,,,,4,harmonic,1.85,nw,z,,,,,,,
,,,,,,,,,,,,001,2023-11-08_06h59.34.405,vowel_harmony,2023.2.3,MacIntel,59.99880002,183.5819,184.6308,,,,,,,,,,,,,,,,,,,,,,,,,,184.6308,185.3163,m,1,0.5971,,185.3163,185.3164,,0,46,46,119,1,120,kulüp,649,29.488,467,0.0511,5,notharmonic,1.4,word,m,,,,,,,
,,,,,,,,,,,,001,2023-11-08_06h59.34.405,vowel_harmony,2023.2.3,MacIntel,59.99880002,185.3166,186.3156,,,,,,,,,,,,,,,,,,,,,,,,,,186.3156,187.0657,z,1,0.7299,,187.0657,187.0658,,0,47,47,321,1,322,makih,,,,,5,notharmonic,1.8,nw,z,,,,,,,
,,,,,,,,,,,,001,2023-11-08_06h59.34.405,vowel_harmony,2023.2.3,MacIntel,59.99880002,187.066,188.0663,,,,,,,,,,,,,,,,,,,,,,,,,,188.0664,188.6487,m,1,0.5632,,188.6488,188.6488,,0,48,48,63,1,64,sultan,1756,79.7857,1368,0.1496,6,harmonic,1.55,word,m,,,,,,,
,,,,,,,,,,,,001,2023-11-08_06h59.34.405,vowel_harmony,2023.2.3,MacIntel,59.99880002,188.6491,189.6518,,,,,,,,,,,,,,,,,,,,,,,,,,189.6518,190.2662,m,1,0.596,,190.2663,190.2664,,0,49,49,169,1,170,hikaye,1555,70.653,1405,0.1536,6,notharmonic,1.8,word,m,,,,,,,
,,,,,,,,,,,,001,2023-11-08_06h59.34.405,vowel_harmony,2023.2.3,MacIntel,59.99880002,190.2671,191.2671,,,,,,,,,,,,,,,,,,,,,,,,,,191.2671,191.8665,m,1,0.5868,,191.8665,191.8666,,0,50,50,175,1,176,aile,3655,166.0687,3126,0.3417,4,notharmonic,1,word,m,,,,,,,
,,,,,,,,,,,,001,2023-11-08_06h59.34.405,vowel_harmony,2023.2.3,MacIntel,59.99880002,191.8668,192.8664,,,,,,,,,,,,,,,,,,,,,,,,,,192.8664,193.5002,m,1,0.6097,,193.5003,193.5003,,0,51,51,74,1,75,başarı,1398,63.5196,1300,0.1421,6,harmonic,1.2,word,m,,,,,,,
,,,,,,,,,,,,001,2023-11-08_06h59.34.405,vowel_harmony,2023.2.3,MacIntel,59.99880002,193.5007,194.4998,,,,,,,,,,,,,,,,,,,,,,,,,,194.4998,195.7506,m,1,1.2283,,195.7507,195.7507,,0,52,52,73,1,74,millet,1658,75.3329,1508,0.1649,6,harmonic,1.7,word,m,,,,,,,
,,,,,,,,,,,,001,2023-11-08_06h59.34.405,vowel_harmony,2023.2.3,MacIntel,59.99880002,195.7511,196.7488,,,,,,,,,,,,,,,,,,,,,,,,,,196.7488,197.3175,m,1,0.5511,,197.3176,197.3176,,0,53,53,0,1,1,sanat,3121,141.8059,2485,0.2717,5,harmonic,1.4,word,m,,,,,,,
,,,,,,,,,,,,001,2023-11-08_06h59.34.405,vowel_harmony,2023.2.3,MacIntel,59.99880002,197.3181,198.3183,,,,,,,,,,,,,,,,,,,,,,,,,,198.3183,199.0999,z,1,0.7701,,199.0999,199.1,,0,54,54,324,1,325,pakeh,,,,,5,notharmonic,1.9,nw,z,,,,,,,
,,,,,,,,,,,,001,2023-11-08_06h59.34.405,vowel_harmony,2023.2.3,MacIntel,59.99880002,199.1002,200.0999,,,,,,,,,,,,,,,,,,,,,,,,,,200.0999,200.7337,m,1,0.6172,,200.7337,200.7338,,0,55,55,120,1,121,ihmal,1002,45.5269,977,0.1068,5,notharmonic,1.65,word,m,,,,,,,
,,,,,,,,,,,,001,2023-11-08_06h59.34.405,vowel_harmony,2023.2.3,MacIntel,59.99880002,200.734,201.7327,,,,,,,,,,,,,,,,,,,,,,,,,,201.7328,202.3163,m,1,0.5693,,202.3164,202.3165,,0,56,56,108,1,109,tarih,2806,127.4935,2483,0.2714,5,notharmonic,1.55,word,m,,,,,,,
,,,,,,,,,,,,001,2023-11-08_06h59.34.405,vowel_harmony,2023.2.3,MacIntel,59.99880002,202.3167,203.3174,,,,,,,,,,,,,,,,,,,,,,,,,,203.3175,204.1666,z,1,0.8344,,204.1666,204.1667,,0,57,57,308,1,309,hafer,,,,,5,notharmonic,1.85,nw,z,,,,,,,
,,,,,,,,,,,,001,2023-11-08_06h59.34.405,vowel_harmony,2023.2.3,MacIntel,59.99880002,204.1674,205.168,,,,,,,,,,,,,,,,,,,,,,,,,,205.1681,205.7831,z,1,0.598,,205.7831,205.7832,,0,58,58,269,1,270,vekü,,,,,4,harmonic,2,nw,z,,,,,,,
,,,,,,,,,,,,001,2023-11-08_06h59.34.405,vowel_harmony,2023.2.3,MacIntel,59.99880002,205.7834,206.7826,,,,,,,,,,,,,,,,,,,,,,,,,,206.7826,207.5346,m,1,0.7431,,207.5346,207.5347,,0,59,59,158,1,159,klasik,1871,85.0108,1734,0.1896,6,notharmonic,2,word,m,,,,,,,
,,,,,,,,,,,,001,2023-11-08_06h59.34.405,vowel_harmony,2023.2.3,MacIntel,59.99880002,207.5351,208.5346,,,,,,,,,,,,,,,,,,,,,,,,,,208.5346,209.2019,m,1,0.6478,,209.2019,209.202,,0,60,60,88,1,89,yalnız,5891,267.6637,5440,0.5947,6,harmonic,1.6,word,m,,,,,,,
,,,,,,,,,,,,001,2023-11-08_06h59.34.405,vowel_harmony,2023.2.3,MacIntel,59.99880002,209.2024,210.2015,,,,,,,,,,,,,,,,,,,,,,,,,,210.2016,210.9188,m,1,0.6982,,210.9189,210.9189,,0,61,61,87,1,88,mümkün,6604,300.0596,6264,0.6848,6,harmonic,1.9,word,m,,,,,,,
,,,,,,,,,,,,001,2023-11-08_06h59.34.405,vowel_harmony,2023.2.3,MacIntel,59.99880002,210.9194,211.919,,,,,,,,,,,,,,,,,,,,,,,,,,211.919,212.4856,m,1,0.5456,,212.4857,212.4857,,0,62,62,99,1,100,ilave,3173,144.1685,2619,0.2863,5,notharmonic,1.85,word,m,,,,,,,
,,,,,,,,,,,,001,2023-11-08_06h59.34.405,vowel_harmony,2023.2.3,MacIntel,59.99880002,212.4861,213.4854,,,,,,,,,,,,,,,,,,,,,,,,,,213.4854,214.102,m,1,0.5977,,214.1021,214.1021,,0,63,63,32,1,33,temel,4231,192.2399,3851,0.421,5,harmonic,1.55,word,m,,,,,,,
,,,,,,,,,,,,001,2023-11-08_06h59.34.405,vowel_harmony,2023.2.3,MacIntel,59.99880002,214.1025,215.1011,,,,,,,,,,,,,,,,,,,,,,,,,,215.1011,215.9332,z,1,0.8131,,215.9333,215.9334,,0,64,64,228,1,229,haytam,,,,,6,harmonic,1.75,nw,z,,,,,,,
,,,,,,,,,,,,001,2023-11-08_06h59.34.405,vowel_harmony,2023.2.3,MacIntel,59.99880002,215.9338,216.9356,,,,,,,,,,,,,,,,,,,,,,,,,,216.9357,217.8528,z,1,0.9,,217.8528,217.8529,,0,65,65,234,1,235,düzöt,,,,,5,harmonic,2.05,nw,z,,,,,,,
,,,,,,,,,,,,001,2023-11-08_06h59.34.405,vowel_harmony,2023.2.3,MacIntel,59.99880002,217.8533,218.8513,,,,,,,,,,,,,,,,,,,,,,,,,,218.8513,219.5848,m,1,0.7164,,219.5849,219.5849,,0,66,66,50,1,51,kanun,1198,54.4324,1010,0.1104,5,harmonic,1.6,word,m,,,,,,,
,,,,,,,,,,,,001,2023-11-08_06h59.34.405,vowel_harmony,2023.2.3,MacIntel,59.99880002,219.5854,220.5869,,,,,,,,,,,,,,,,,,,,,,,,,,220.587,221.5363,z,1,0.9336,,221.5364,221.5365,,0,67,67,326,1,327,ailo,,,,,4,notharmonic,1.75,nw,z,,,,,,,
,,,,,,,,,,,,001,2023-11-08_06h59.34.405,vowel_harmony,2023.2.3,MacIntel,59.99880002,221.5369,222.5375,,,,,,,,,,,,,,,,,,,,,,,,,,222.5375,223.286,z,1,0.7346,,223.286,223.2861,,0,68,68,318,1,319,yorgün,,,,,6,notharmonic,1.9,nw,z,,,,,,,
,,,,,,,,,,,,001,2023-11-08_06h59.34.405,vowel_harmony,2023.2.3,MacIntel,59.99880002,223.2865,224.2861,,,,,,,,,,,,,,,,,,,,,,,,,,224.2861,225.0694,m,1,0.7649,,225.0695,225.0696,,0,69,69,68,1,69,ücret,734,33.35,634,0.0693,5,harmonic,1.85,word,m,,,,,,,
,,,,,,,,,,,,001,2023-11-08_06h59.34.405,vowel_harmony,2023.2.3,MacIntel,59.99880002,225.0699,226.0687,,,,,,,,,,,,,,,,,,,,,,,,,,226.0688,226.7194,m,1,0.6321,,226.7195,226.7206,,0,70,70,163,1,164,limon,1658,75.3329,1481,0.1619,5,notharmonic,1.75,word,m,,,,,,,
,,,,,,,,,,,,001,2023-11-08_06h59.34.405,vowel_harmony,2023.2.3,MacIntel,59.99880002,226.721,227.7203,,,,,,,,,,,,,,,,,,,,,,,,,,227.7204,228.7356,z,1,0.9982,,228.7357,228.7357,,0,71,71,312,1,313,şahmin,,,,,6,notharmonic,1.8,nw,z,,,,,,,
,,,,,,,,,,,,001,2023-11-08_06h59.34.405,vowel_harmony,2023.2.3,MacIntel,59.99880002,228.7361,229.7375,,,,,,,,,,,,,,,,,,,,,,,,,,229.7375,231.0864,z,1,1.3323,,231.0864,231.0865,,0,72,72,307,1,308,merbat,,,,,6,notharmonic,1.95,nw,z,,,,,,,
,,,,,,,,,,,,001,2023-11-08_06h59.34.405,vowel_harmony,2023.2.3,MacIntel,59.99880002,231.087,232.0868,,,,,,,,,,,,,,,,,,,,,,,,,,232.0868,233.1198,z,1,1.0121,,233.1198,233.1199,,0,73,73,334,1,335,işgan,,,,,5,notharmonic,1.95,nw,z,,,,,,,
,,,,,,,,,,,,001,2023-11-08_06h59.34.405,vowel_harmony,2023.2.3,MacIntel,59.99880002,233.1203,234.1195,,,,,,,,,,,,,,,,,,,,,,,,,,234.1195,234.8531,m,1,0.7157,,234.8532,234.8533,,0,74,74,10,1,11,bardak,1728,78.5135,1569,0.1715,6,harmonic,1.6,word,m,,,,,,,
,,,,,,,,,,,,001,2023-11-08_06h59.34.405,vowel_harmony,2023.2.3,MacIntel,59.99880002,234.8538,235.8539,,,,,,,,,,,,,,,,,,,,,,,,,,235.8539,236.5195,z,1,0.6499,,236.5196,236.5196,,0,75,75,350,1,351,resun,,,,,5,notharmonic,1.85,nw,z,,,,,,,
,,,,,,,,,,,,001,2023-11-08_06h59.34.405,vowel_harmony,2023.2.3,MacIntel,59.99880002,236.52,237.5199,,,,,,,,,,,,,,,,,,,,,,,,,,237.52,238.2043,z,1,0.6628,,238.2043,238.2044,,0,76,76,193,1,194,yokın,,,,,5,harmonic,1.85,nw,z,,,,,,,
,,,,,,,,,,,,001,2023-11-08_06h59.34.405,vowel_harmony,2023.2.3,MacIntel,59.99880002,238.2048,239.2034,,,,,,,,,,,,,,,,,,,,,,,,,,239.2035,239.8883,m,1,0.6632,,239.8883,239.8884,,0,77,77,111,1,112,kahve,2634,119.6785,2283,0.2496,5,notharmonic,1.85,word,m,,,,,,,
,,,,,,,,,,,,001,2023-11-08_06h59.34.405,vowel_harmony,2023.2.3,MacIntel,59.99880002,239.8889,240.8882,,,,,,,,,,,,,,,,,,,,,,,,,,240.8882,241.871,m,1,0.9604,,241.871,241.8711,,0,78,78,132,1,133,modern,2326,105.6842,2031,0.222,6,notharmonic,1.85,word,m,,,,,,,
,,,,,,,,,,,,001,2023-11-08_06h59.34.405,vowel_harmony,2023.2.3,MacIntel,59.99880002,241.8715,242.8708,,,,,,,,,,,,,,,,,,,,,,,,,,242.8708,243.6543,z,1,0.7623,,243.6543,243.6544,,0,79,79,235,1,236,oşup,,,,,4,harmonic,1.75,nw,z,,,,,,,
,,,,,,,,,,,,001,2023-11-08_06h59.34.405,vowel_harmony,2023.2.3,MacIntel,59.99880002,243.6547,244.6546,,,,,,,,,,,,,,,,,,,,,,,,,,244.6546,245.2355,m,1,0.5674,,245.2356,245.2356,,0,80,80,124,1,125,ilan,1579,71.7435,1499,0.1639,4,notharmonic,1,word,m,,,,,,,
,,,,,,,,,,,,001,2023-11-08_06h59.34.405,vowel_harmony,2023.2.3,MacIntel,59.99880002,245.2359,246.2377,,,,,,,,,,,,,,,,,,,,,,,,,,246.2377,246.9356,z,1,0.6839,,246.9359,246.9361,,0,81,81,277,1,278,balsin,,,,,6,notharmonic,1.85,nw,z,,,,,,,
,,,,,,,,,,,,001,2023-11-08_06h59.34.405,vowel_harmony,2023.2.3,MacIntel,59.99880002,246.9365,247.9366,,,,,,,,,,,,,,,,,,,,,,,,,,247.9366,248.6212,m,1,0.6662,,248.6212,248.6213,,0,82,82,142,1,143,siyasi,2909,132.1734,2445,0.2673,6,notharmonic,1.8,word,m,,,,,,,
,,,,,,,,,,,,001,2023-11-08_06h59.34.405,vowel_harmony,2023.2.3,MacIntel,59.99880002,248.6217,249.6222,,,,,,,,,,,,,,,,,,,,,,,,,,249.6222,250.9369,z,1,1.3017,,250.9369,250.937,,0,83,83,317,1,318,mevul,,,,,5,notharmonic,1.95,nw,z,,,,,,,
,,,,,,,,,,,,001,2023-11-08_06h59.34.405,vowel_harmony,2023.2.3,MacIntel,59.99880002,250.9391,251.9397,,,,,,,,,,,,,,,,,,,,,,,,,,251.9397,252.7697,m,1,0.8195,,252.7698,252.7698,,0,84,84,115,1,116,saniye,1088,49.4344,984,0.1076,6,notharmonic,1.35,word,m,,,,,,,
,,,,,,,,,,,,001,2023-11-08_06h59.34.405,vowel_harmony,2023.2.3,MacIntel,59.99880002,252.7701,253.7722,,,,,,,,,,,,,,,,,,,,,,,,,,253.7722,254.3371,m,1,0.5437,,254.3371,254.3372,,0,85,85,36,1,37,meslek,1082,49.1618,976,0.1067,6,harmonic,1.9,word,m,,,,,,,
,,,,,,,,,,,,001,2023-11-08_06h59.34.405,vowel_harmony,2023.2.3,MacIntel,59.99880002,254.3376,255.3378,,,,,,,,,,,,,,,,,,,,,,,,,,255.3378,255.8536,m,1,0.5009,,255.8536,255.8537,,0,86,86,153,1,154,inşaat,432,19.6284,376,0.0411,6,notharmonic,1.6,word,m,,,,,,,
,,,,,,,,,,,,001,2023-11-08_06h59.34.405,vowel_harmony,2023.2.3,MacIntel,59.99880002,255.8541,256.8561,,,,,,,,,,,,,,,,,,,,,,,,,,256.8562,257.3373,m,1,0.4689,,257.3373,257.3374,,0,87,87,8,1,9,güven,1433,65.1098,1300,0.1421,5,harmonic,1.35,word,m,,,,,,,
,,,,,,,,,,,,001,2023-11-08_06h59.34.405,vowel_harmony,2023.2.3,MacIntel,59.99880002,257.3377,258.3367,,,,,,,,,,,,,,,,,,,,,,,,,,258.3368,259.0377,m,1,0.68,,259.0378,259.0379,,0,88,88,102,1,103,esas,1965,89.2818,1795,0.1962,4,notharmonic,1.75,word,m,,,,,,,
,,,,,,,,,,,,001,2023-11-08_06h59.34.405,vowel_harmony,2023.2.3,MacIntel,59.99880002,259.0383,260.0386,,,,,,,,,,,,,,,,,,,,,,,,,,260.0386,260.6699,m,1,0.6173,,260.67,260.6702,,0,89,89,44,1,45,kayıt,1234,56.0681,1058,0.1157,5,harmonic,1.35,word,m,,,,,,,
,,,,,,,,,,,,001,2023-11-08_06h59.34.405,vowel_harmony,2023.2.3,MacIntel,59.99880002,260.671,261.6711,,,,,,,,,,,,,,,,,,,,,,,,,,261.6713,262.4871,z,1,0.7962,,262.4871,262.4872,,0,90,90,345,1,346,bardeş,,,,,6,notharmonic,1.95,nw,z,,,,,,,
,,,,,,,,,,,,001,2023-11-08_06h59.34.405,vowel_harmony,2023.2.3,MacIntel,59.99880002,262.4877,263.4889,,,,,,,,,,,,,,,,,,,,,,,,,,263.4889,264.6045,m,1,1.0981,,264.6045,264.6046,,0,91,91,92,1,93,sahne,1380,62.7017,1238,0.1353,5,notharmonic,1.65,word,m,,,,,,,
,,,,,,,,,,,,001,2023-11-08_06h59.34.405,vowel_harmony,2023.2.3,MacIntel,59.99880002,264.6049,265.6034,,,,,,,,,,,,,,,,,,,,,,,,,,265.6034,267.0722,z,1,1.4515,,267.0722,267.0723,,0,92,92,213,1,214,kaun,,,,,4,harmonic,1.7,nw,z,,,,,,,
,,,,,,,,,,,,001,2023-11-08_06h59.34.405,vowel_harmony,2023.2.3,MacIntel,59.99880002,267.0725,268.0703,,,,,,,,,,,,,,,,,,,,,,,,,,268.0704,268.7062,m,1,0.6214,,268.7062,268.7062,,0,93,93,18,1,19,normal,4154,188.7413,3788,0.4141,6,harmonic,1.75,word,m,,,,,,,
,,,,,,,,,,,,001,2023-11-08_06h59.34.405,vowel_harmony,2023.2.3,MacIntel,59.99880002,268.7066,269.7059,,,,,,,,,,,,,,,,,,,,,,,,,,269.706,270.4554,z,1,0.7336,,270.4554,270.4555,,0,94,94,212,1,213,ortat,,,,,5,harmonic,1.7,nw,z,,,,,,,
,,,,,,,,,,,,001,2023-11-08_06h59.34.405,vowel_harmony,2023.2.3,MacIntel,59.99880002,270.4559,271.4552,,,,,,,,,,,,,,,,,,,,,,,,,,271.4553,272.5068,m,1,1.0295,,272.5069,272.5069,,0,95,95,138,1,139,kardeş,1270,57.7038,1174,0.1283,6,notharmonic,1.9,word,m,,,,,,,
,,,,,,,,,,,,001,2023-11-08_06h59.34.405,vowel_harmony,2023.2.3,MacIntel,59.99880002,272.5073,273.505,,,,,,,,,,,,,,,,,,,,,,,,,,273.5051,274.3237,m,1,0.8006,,274.3238,274.3238,,0,96,96,56,1,57,sağlam,1818,82.6027,1720,0.188,6,harmonic,1.6,word,m,,,,,,,
,,,,,,,,,,,,001,2023-11-08_06h59.34.405,vowel_harmony,2023.2.3,MacIntel,59.99880002,274.3243,275.3219,,,,,,,,,,,,,,,,,,,,,,,,,,275.3219,276.4221,m,1,1.0792,,276.4222,276.4223,,0,97,97,34,1,35,hoca,1893,86.0104,1526,0.1668,4,harmonic,1.45,word,m,,,,,,,
,,,,,,,,,,,,001,2023-11-08_06h59.34.405,vowel_harmony,2023.2.3,MacIntel,59.99880002,276.4227,277.4236,,,,,,,,,,,,,,,,,,,,,,,,,,277.4236,278.2574,z,1,0.8158,,278.2575,278.2576,,0,98,98,247,1,248,hafgın,,,,,6,harmonic,2,nw,z,,,,,,,
,,,,,,,,,,,,001,2023-11-08_06h59.34.405,vowel_harmony,2023.2.3,MacIntel,59.99880002,278.2582,279.2563,,,,,,,,,,,,,,,,,,,,,,,,,,279.2563,279.9228,m,1,0.6463,,279.9229,279.923,,0,99,99,145,1,146,iddia,2430,110.4096,2295,0.2509,5,notharmonic,1.85,word,m,,,,,,,
,,,,,,,,,,,,001,2023-11-08_06h59.34.405,vowel_harmony,2023.2.3,MacIntel,59.99880002,279.9233,280.9252,,,,,,,,,,,,,,,,,,,,,,,,,,280.9252,281.6068,z,1,0.6708,,281.6069,281.607,,0,100,100,218,1,219,tezöl,,,,,5,harmonic,2,nw,z,,,,,,,
,,,,,,,,,,,,001,2023-11-08_06h59.34.405,vowel_harmony,2023.2.3,MacIntel,59.99880002,281.6073,282.6073,,,,,,,,,,,,,,,,,,,,,,,,,,282.6073,283.0891,m,1,0.4602,,283.0891,283.0892,,0,101,101,15,1,16,hayat,7922,359.9443,7314,0.7996,5,harmonic,1.9,word,m,,,,,,,
,,,,,,,,,,,,001,2023-11-08_06h59.34.405,vowel_harmony,2023.2.3,MacIntel,59.99880002,283.0896,284.0904,,,,,,,,,,,,,,,,,,,,,,,,,,284.0905,284.6901,z,1,0.5826,,284.6901,284.6902,,0,102,102,310,1,311,yandeş,,,,,6,notharmonic,1.95,nw,z,,,,,,,
,,,,,,,,,,,,001,2023-11-08_06h59.34.405,vowel_harmony,2023.2.3,MacIntel,59.99880002,284.6906,285.6898,,,,,,,,,,,,,,,,,,,,,,,,,,285.6899,287.6896,,0,,,287.6897,287.6898,,0,103,103,33,1,34,moda,1381,62.7472,1231,0.1346,4,harmonic,1.55,word,m,,,,,,,
,,,,,,,,,,,,001,2023-11-08_06h59.34.405,vowel_harmony,2023.2.3,MacIntel,59.99880002,287.6903,288.6899,,,,,,,,,,,,,,,,,,,,,,,,,,288.6899,290.6902,,0,,,290.6902,290.6903,,0,104,104,70,1,71,yarın,3440,156.3,3222,0.3522,5,harmonic,1.85,word,m,,,,,,,
,,,,,,,,,,,,001,2023-11-08_06h59.34.405,vowel_harmony,2023.2.3,MacIntel,59.99880002,290.7044,291.7085,,,,,,,,,,,,,,,,,,,,,,,,,,291.7085,293.7081,,0,,,293.7081,293.7082,,0,105,105,170,1,171,basit,3385,153.801,3177,0.3473,5,notharmonic,1.65,word,m,,,,,,,
,,,,,,,,,,,,001,2023-11-08_06h59.34.405,vowel_harmony,2023.2.3,MacIntel,59.99880002,293.7085,294.7083,,,,,,,,,,,,,,,,,,,,,,,,,,294.7083,296.706,,0,,,296.7061,296.7061,,0,106,106,244,1,245,kaof,,,,,4,harmonic,1.9,nw,z,,,,,,,
,,,,,,,,,,,,001,2023-11-08_06h59.34.405,vowel_harmony,2023.2.3,MacIntel,59.99880002,296.7184,297.7078,,,,,,,,,,,,,,,,,,,,,,,,,,297.7078,298.4724,m,1,0.7445,,298.4724,298.4725,,0,107,107,155,1,156,ilaç,1366,62.0656,1215,0.1328,4,notharmonic,1.75,word,m,,,,,,,
,,,,,,,,,,,,001,2023-11-08_06h59.34.405,vowel_harmony,2023.2.3,MacIntel,59.99880002,298.4729,299.4753,,,,,,,,,,,,,,,,,,,,,,,,,,299.4753,301.0899,z,1,1.595,,301.0899,301.0899,,0,108,108,311,1,312,dedya,,,,,5,notharmonic,1.9,nw,z,,,,,,,
,,,,,,,,,,,,001,2023-11-08_06h59.34.405,vowel_harmony,2023.2.3,MacIntel,59.99880002,301.0904,302.0932,,,,,,,,,,,,,,,,,,,,,,,,,,302.0933,302.8753,z,1,0.7629,,302.8753,302.8753,,0,109,109,233,1,234,devpi,,,,,5,harmonic,1.8,nw,z,,,,,,,
,,,,,,,,,,,,001,2023-11-08_06h59.34.405,vowel_harmony,2023.2.3,MacIntel,59.99880002,302.8758,303.8738,,,,,,,,,,,,,,,,,,,,,,,,,,303.8738,304.7244,z,1,0.8288,,304.7244,304.7246,,0,110,110,209,1,210,sapor,,,,,5,harmonic,1.8,nw,z,,,,,,,
,,,,,,,,,,,,001,2023-11-08_06h59.34.405,vowel_harmony,2023.2.3,MacIntel,59.99880002,304.7249,305.7241,,,,,,,,,,,,,,,,,,,,,,,,,,305.7241,306.6255,m,1,0.8807,,306.6255,306.6255,,0,111,111,133,1,134,taze,2268,103.0489,2062,0.2254,4,notharmonic,1.65,word,m,,,,,,,
,,,,,,,,,,,,001,2023-11-08_06h59.34.405,vowel_harmony,2023.2.3,MacIntel,59.99880002,306.626,307.6246,,,,,,,,,,,,,,,,,,,,,,,,,,307.6247,308.357,m,1,0.7119,,308.3571,308.3571,,0,112,112,47,1,48,kaza,740,33.6227,679,0.0742,4,harmonic,1.85,word,m,,,,,,,
,,,,,,,,,,,,001,2023-11-08_06h59.34.405,vowel_harmony,2023.2.3,MacIntel,59.99880002,308.3575,309.3588,,,,,,,,,,,,,,,,,,,,,,,,,,309.3589,310.1243,z,1,0.7444,,310.1243,310.1244,,0,113,113,276,1,277,iptap,,,,,5,notharmonic,1.95,nw,z,,,,,,,
,,,,,,,,,,,,001,2023-11-08_06h59.34.405,vowel_harmony,2023.2.3,MacIntel,59.99880002,310.1248,311.1249,,,,,,,,,,,,,,,,,,,,,,,,,,311.1249,311.7426,m,1,0.5993,,311.7426,311.7426,,0,114,114,41,1,42,zengin,2193,99.6412,2015,0.2203,6,harmonic,1.65,word,m,,,,,,,
,,,,,,,,,,,,001,2023-11-08_06h59.34.405,vowel_harmony,2023.2.3,MacIntel,59.99880002,311.743,312.7412,,,,,,,,,,,,,,,,,,,,,,,,,,312.7412,313.5752,z,1,0.8167,,313.5752,313.5753,,0,115,115,309,1,310,yorgen,,,,,6,notharmonic,1.9,nw,z,,,,,,,
,,,,,,,,,,,,001,2023-11-08_06h59.34.405,vowel_harmony,2023.2.3,MacIntel,59.99880002,313.5757,314.5754,,,,,,,,,,,,,,,,,,,,,,,,,,314.5754,315.0266,m,1,0.4298,,315.0266,315.0267,,0,116,116,35,1,36,hava,4975,226.0443,4398,0.4808,4,harmonic,1,word,m,,,,,,,
,,,,,,,,,,,,001,2023-11-08_06h59.34.405,vowel_harmony,2023.2.3,MacIntel,59.99880002,315.0271,316.0269,,,,,,,,,,,,,,,,,,,,,,,,,,316.0269,316.6737,m,1,0.6337,,316.6738,316.675,,0,117,117,137,1,138,parti,2613,118.7244,2059,0.2251,5,notharmonic,1.8,word,m,,,,,,,
,,,,,,,,,,,,001,2023-11-08_06h59.34.405,vowel_harmony,2023.2.3,MacIntel,59.99880002,316.6753,317.6738,,,,,,,,,,,,,,,,,,,,,,,,,,317.6739,318.6099,z,1,0.9127,,318.6099,318.61,,0,118,118,283,1,284,fahe,,,,,4,notharmonic,1.95,nw,z,,,,,,,
,,,,,,,,,,,,001,2023-11-08_06h59.34.405,vowel_harmony,2023.2.3,MacIntel,59.99880002,318.6104,319.6083,,,,,,,,,,,,,,,,,,,,,,,,,,319.6084,320.3601,z,1,0.7292,,320.3601,320.3601,,0,119,119,273,1,274,nimal,,,,,5,notharmonic,1.9,nw,z,,,,,,,
,,,,,,,,,,,,001,2023-11-08_06h59.34.405,vowel_harmony,2023.2.3,MacIntel,59.99880002,320.3606,321.3595,,,,,,,,,,,,,,,,,,,,,,,,,,321.3595,322.0276,z,1,0.6496,,322.0278,444.9201,space,0,120,120,335,1,336,lilo,,,,,4,notharmonic,1.8,nw,z,122.876,,,,,,
,,,,,,,,,,,,001,2023-11-08_06h59.34.405,vowel_harmony,2023.2.3,MacIntel,59.99880002,444.9323,445.9337,,,,,,,,,,,,,,,,,,,,,,,,,,445.9337,447.3529,z,1,1.3953,,447.3529,447.3533,,0,121,121,243,1,244,korguf,,,,,6,harmonic,2,nw,z,,,,,,,
,,,,,,,,,,,,001,2023-11-08_06h59.34.405,vowel_harmony,2023.2.3,MacIntel,59.99880002,447.3543,448.3517,,,,,,,,,,,,,,,,,,,,,,,,,,448.3517,449.1358,m,1,0.7689,,449.1358,449.1358,,0,122,122,78,1,79,ulusal,1551,70.4713,1355,0.1481,6,harmonic,1.75,word,m,,,,,,,
,,,,,,,,,,,,001,2023-11-08_06h59.34.405,vowel_harmony,2023.2.3,MacIntel,59.99880002,449.1362,450.1341,,,,,,,,,,,,,,,,,,,,,,,,,,450.1342,451.6024,z,1,1.4526,,451.6028,451.6029,,0,123,123,327,1,328,parkeş,,,,,6,notharmonic,1.9,nw,z,,,,,,,
,,,,,,,,,,,,001,2023-11-08_06h59.34.405,vowel_harmony,2023.2.3,MacIntel,59.99880002,451.6033,452.601,,,,,,,,,,,,,,,,,,,,,,,,,,452.6011,453.4706,z,1,0.845,,453.4707,453.4707,,0,124,124,232,1,233,kanur,,,,,5,harmonic,1.7,nw,z,,,,,,,
,,,,,,,,,,,,001,2023-11-08_06h59.34.405,vowel_harmony,2023.2.3,MacIntel,59.99880002,453.4718,454.4675,,,,,,,,,,,,,,,,,,,,,,,,,,454.4675,455.103,m,1,0.6152,,455.103,455.1032,,0,125,125,14,1,15,yaşam,4348,197.5559,3918,0.4283,5,harmonic,1.4,word,m,,,,,,,
,,,,,,,,,,,,001,2023-11-08_06h59.34.405,vowel_harmony,2023.2.3,MacIntel,59.99880002,455.1035,456.1013,,,,,,,,,,,,,,,,,,,,,,,,,,456.1013,456.7687,z,1,0.6575,,456.7687,456.7688,,0,126,126,337,1,338,bakem,,,,,5,notharmonic,1.7,nw,z,,,,,,,
,,,,,,,,,,,,001,2023-11-08_06h59.34.405,vowel_harmony,2023.2.3,MacIntel,59.99880002,456.7691,457.7673,,,,,,,,,,,,,,,,,,,,,,,,,,457.7674,458.3702,z,1,0.5821,,458.3702,458.3703,,0,127,127,299,1,300,fihal,,,,,5,notharmonic,1.95,nw,z,,,,,,,
,,,,,,,,,,,,001,2023-11-08_06h59.34.405,vowel_harmony,2023.2.3,MacIntel,59.99880002,458.371,459.3697,,,,,,,,,,,,,,,,,,,,,,,,,,459.3697,460.0577,m,1,0.6728,,460.0577,460.0578,,0,128,128,46,1,47,takım,4370,198.5555,3726,0.4073,5,harmonic,1.7,word,m,,,,,,,
,,,,,,,,,,,,001,2023-11-08_06h59.34.405,vowel_harmony,2023.2.3,MacIntel,59.99880002,460.058,461.0536,,,,,,,,,,,,,,,,,,,,,,,,,,461.0537,461.6857,m,1,0.6129,,461.6858,461.6863,,0,129,129,176,1,177,harika,4682,212.7315,4422,0.4834,6,notharmonic,1.9,word,m,,,,,,,
,,,,,,,,,,,,001,2023-11-08_06h59.34.405,vowel_harmony,2023.2.3,MacIntel,59.99880002,461.6868,462.6865,,,,,,,,,,,,,,,,,,,,,,,,,,462.6865,463.402,z,1,0.6984,,463.402,463.4022,,0,130,130,270,1,271,miyaj,,,,,5,notharmonic,1.9,nw,z,,,,,,,
,,,,,,,,,,,,001,2023-11-08_06h59.34.405,vowel_harmony,2023.2.3,MacIntel,59.99880002,463.4027,464.4022,,,,,,,,,,,,,,,,,,,,,,,,,,464.4022,465.0548,m,1,0.6266,,465.0548,465.0549,,0,131,131,23,1,24,kurum,986,44.7999,882,0.0964,5,harmonic,1.75,word,m,,,,,,,
,,,,,,,,,,,,001,2023-11-08_06h59.34.405,vowel_harmony,2023.2.3,MacIntel,59.99880002,465.056,466.0508,,,,,,,,,,,,,,,,,,,,,,,,,,466.0508,467.2511,m,1,1.1882,,467.2511,467.2513,,0,132,132,49,1,50,şeker,4708,213.9128,4170,0.4559,5,harmonic,1.6,word,m,,,,,,,
,,,,,,,,,,,,001,2023-11-08_06h59.34.405,vowel_harmony,2023.2.3,MacIntel,59.99880002,467.2519,468.254,,,,,,,,,,,,,,,,,,,,,,,,,,468.2541,469.1541,z,1,0.8815,,469.1541,469.1542,,0,133,133,272,1,273,daken,,,,,5,notharmonic,1.8,nw,z,,,,,,,
,,,,,,,,,,,,001,2023-11-08_06h59.34.405,vowel_harmony,2023.2.3,MacIntel,59.99880002,469.1552,470.1515,,,,,,,,,,,,,,,,,,,,,,,,,,470.1515,470.9541,z,1,0.7827,,470.9547,470.9547,,0,134,134,314,1,315,seral,,,,,5,notharmonic,1.7,nw,z,,,,,,,
,,,,,,,,,,,,001,2023-11-08_06h59.34.405,vowel_harmony,2023.2.3,MacIntel,59.99880002,470.9552,471.9542,,,,,,,,,,,,,,,,,,,,,,,,,,471.9542,472.6012,m,1,0.634,,472.6014,472.6015,,0,135,135,139,1,140,lira,1253,56.9314,947,0.1035,4,notharmonic,1.4,word,m,,,,,,,
,,,,,,,,,,,,001,2023-11-08_06h59.34.405,vowel_harmony,2023.2.3,MacIntel,59.99880002,472.6017,473.6021,,,,,,,,,,,,,,,,,,,,,,,,,,473.6021,474.3694,m,1,0.7476,,474.3695,474.3695,,0,136,136,59,1,60,köpek,1044,47.4352,901,0.0985,5,harmonic,1.75,word,m,,,,,,,
,,,,,,,,,,,,001,2023-11-08_06h59.34.405,vowel_harmony,2023.2.3,MacIntel,59.99880002,474.3702,475.3681,,,,,,,,,,,,,,,,,,,,,,,,,,475.3681,476.464,z,1,1.0865,,476.464,476.464,,0,137,137,274,1,275,pisan,,,,,5,notharmonic,1.75,nw,z,,,,,,,
,,,,,,,,,,,,001,2023-11-08_06h59.34.405,vowel_harmony,2023.2.3,MacIntel,59.99880002,476.4645,477.4522,,,,,,,,,,,,,,,,,,,,,,,,,,477.4522,478.1032,z,1,0.633,,478.1033,478.1034,,0,138,138,259,1,260,hayuk,,,,,5,harmonic,1.95,nw,z,,,,,,,
,,,,,,,,,,,,001,2023-11-08_06h59.34.405,vowel_harmony,2023.2.3,MacIntel,59.99880002,478.1042,479.1047,,,,,,,,,,,,,,,,,,,,,,,,,,479.1048,480.1899,z,1,1.0694,,480.19,480.19,,0,139,139,224,1,225,ertre,,,,,5,harmonic,1.95,nw,z,,,,,,,
,,,,,,,,,,,,001,2023-11-08_06h59.34.405,vowel_harmony,2023.2.3,MacIntel,59.99880002,480.1904,481.1858,,,,,,,,,,,,,,,,,,,,,,,,,,481.1858,481.8198,m,1,0.6155,,481.82,481.82,,0,140,140,91,1,92,ifade,6177,280.6584,5726,0.626,5,notharmonic,1.7,word,m,,,,,,,
,,,,,,,,,,,,001,2023-11-08_06h59.34.405,vowel_harmony,2023.2.3,MacIntel,59.99880002,481.8204,482.8218,,,,,,,,,,,,,,,,,,,,,,,,,,482.8219,483.9894,z,1,1.1493,,483.9895,483.9895,,0,141,141,252,1,253,anlgı,,,,,5,harmonic,1.9,nw,z,,,,,,,
,,,,,,,,,,,,001,2023-11-08_06h59.34.405,vowel_harmony,2023.2.3,MacIntel,59.99880002,483.9906,484.9868,,,,,,,,,,,,,,,,,,,,,,,,,,484.9869,485.5209,m,1,0.5168,,485.521,485.5211,,0,142,142,64,1,65,lise,888,40.3472,816,0.0892,4,harmonic,1.5,word,m,,,,,,,
,,,,,,,,,,,,001,2023-11-08_06h59.34.405,vowel_harmony,2023.2.3,MacIntel,59.99880002,485.5216,486.5221,,,,,,,,,,,,,,,,,,,,,,,,,,486.5221,487.1203,z,1,0.5819,,487.1204,487.1209,,0,143,143,303,1,304,fisor,,,,,5,notharmonic,1.9,nw,z,,,,,,,
,,,,,,,,,,,,001,2023-11-08_06h59.34.405,vowel_harmony,2023.2.3,MacIntel,59.99880002,487.1214,488.1216,,,,,,,,,,,,,,,,,,,,,,,,,,488.1216,489.77,z,1,1.6353,,489.77,489.7704,,0,144,144,336,1,337,diyam,,,,,5,notharmonic,1.85,nw,z,,,,,,,
,,,,,,,,,,,,001,2023-11-08_06h59.34.405,vowel_harmony,2023.2.3,MacIntel,59.99880002,489.7707,490.7732,,,,,,,,,,,,,,,,,,,,,,,,,,490.7733,491.4065,m,1,0.6139,,491.4066,491.4067,,0,145,145,3,1,4,minik,2916,132.4915,2594,0.2836,5,harmonic,1.6,word,m,,,,,,,
,,,,,,,,,,,,001,2023-11-08_06h59.34.405,vowel_harmony,2023.2.3,MacIntel,59.99880002,491.4074,492.4054,,,,,,,,,,,,,,,,,,,,,,,,,,492.4055,492.8873,m,1,0.4648,,492.8873,492.8876,,0,146,146,30,1,31,çevre,1662,75.5147,1409,0.154,5,harmonic,1.55,word,m,,,,,,,
,,,,,,,,,,,,001,2023-11-08_06h59.34.405,vowel_harmony,2023.2.3,MacIntel,59.99880002,492.8882,493.8885,,,,,,,,,,,,,,,,,,,,,,,,,,493.8885,494.5534,z,1,0.6471,,494.5534,494.5535,,0,147,147,187,1,188,remrin,,,,,6,harmonic,1.9,nw,z,,,,,,,
,,,,,,,,,,,,001,2023-11-08_06h59.34.405,vowel_harmony,2023.2.3,MacIntel,59.99880002,494.5546,495.5538,,,,,,,,,,,,,,,,,,,,,,,,,,495.5539,496.0695,m,1,0.5003,,496.0696,496.0696,,0,148,148,82,1,83,aday,1028,46.7082,873,0.0954,4,harmonic,1.45,word,m,,,,,,,
,,,,,,,,,,,,001,2023-11-08_06h59.34.405,vowel_harmony,2023.2.3,MacIntel,59.99880002,496.07,497.0702,,,,,,,,,,,,,,,,,,,,,,,,,,497.0702,497.5531,m,1,0.4678,,497.5531,497.5531,,0,149,149,174,1,175,bugün,13879,630.6067,12842,1.4039,5,notharmonic,1.85,word,m,,,,,,,
,,,,,,,,,,,,001,2023-11-08_06h59.34.405,vowel_harmony,2023.2.3,MacIntel,59.99880002,497.5536,498.553,,,,,,,,,,,,,,,,,,,,,,,,,,498.5531,499.0873,m,0,0.5155,,499.0874,499.0874,,0,150,150,356,1,357,mergun,,,,,6,notharmonic,1.95,nw,z,,,,,,,
,,,,,,,,,,,,001,2023-11-08_06h59.34.405,vowel_harmony,2023.2.3,MacIntel,59.99880002,499.0883,500.0894,,,,,,,,,,,,,,,,,,,,,,,,,,500.0894,500.8886,z,1,0.781,,500.8887,500.8887,,0,151,151,241,1,242,porlam,,,,,6,harmonic,2,nw,z,,,,,,,
,,,,,,,,,,,,001,2023-11-08_06h59.34.405,vowel_harmony,2023.2.3,MacIntel,59.99880002,500.8891,501.8885,,,,,,,,,,,,,,,,,,,,,,,,,,501.8885,502.5704,z,0,0.6659,,502.5704,502.5705,,0,152,152,11,1,12,umut,1988,90.3268,1818,0.1987,4,harmonic,1.55,word,m,,,,,,,
,,,,,,,,,,,,001,2023-11-08_06h59.34.405,vowel_harmony,2023.2.3,MacIntel,59.99880002,502.571,503.5699,,,,,,,,,,,,,,,,,,,,,,,,,,503.57,504.4727,z,1,0.8776,,504.4728,504.4729,,0,153,153,359,1,360,kardez,,,,,6,notharmonic,1.95,nw,z,,,,,,,
,,,,,,,,,,,,001,2023-11-08_06h59.34.405,vowel_harmony,2023.2.3,MacIntel,59.99880002,504.4735,505.4728,,,,,,,,,,,,,,,,,,,,,,,,,,505.4728,506.07,m,1,0.582,,506.07,506.0701,,0,154,154,112,1,113,sezon,2315,105.1844,1917,0.2096,5,notharmonic,1.8,word,m,,,,,,,
,,,,,,,,,,,,001,2023-11-08_06h59.34.405,vowel_harmony,2023.2.3,MacIntel,59.99880002,506.0706,507.0735,,,,,,,,,,,,,,,,,,,,,,,,,,507.0736,507.9568,m,1,0.8652,,507.9569,507.9569,,0,155,155,39,1,40,yaygın,1061,48.2076,1019,0.1114,6,harmonic,1.35,word,m,,,,,,,
,,,,,,,,,,,,001,2023-11-08_06h59.34.405,vowel_harmony,2023.2.3,MacIntel,59.99880002,507.9576,508.9551,,,,,,,,,,,,,,,,,,,,,,,,,,508.9551,510.5057,z,1,1.531,,510.5057,510.5058,,0,156,156,329,1,330,taif,,,,,4,notharmonic,1.8,nw,z,,,,,,,
,,,,,,,,,,,,001,2023-11-08_06h59.34.405,vowel_harmony,2023.2.3,MacIntel,59.99880002,510.5068,511.5064,,,,,,,,,,,,,,,,,,,,,,,,,,511.5064,512.5034,z,1,0.9848,,512.5035,512.5035,,0,157,157,338,1,339,pardön,,,,,6,notharmonic,1.95,nw,z,,,,,,,
,,,,,,,,,,,,001,2023-11-08_06h59.34.405,vowel_harmony,2023.2.3,MacIntel,59.99880002,512.5038,513.5046,,,,,,,,,,,,,,,,,,,,,,,,,,513.5046,514.4382,m,1,0.921,,514.4382,514.4383,,0,158,158,52,1,53,resim,2506,113.8627,2188,0.2392,5,harmonic,1.4,word,m,,,,,,,
,,,,,,,,,,,,001,2023-11-08_06h59.34.405,vowel_harmony,2023.2.3,MacIntel,59.99880002,514.4387,515.441,,,,,,,,,,,,,,,,,,,,,,,,,,515.4411,516.4207,z,1,0.9609,,516.4207,516.4213,,0,159,159,355,1,356,adül,,,,,4,notharmonic,1.85,nw,z,,,,,,,
,,,,,,,,,,,,001,2023-11-08_06h59.34.405,vowel_harmony,2023.2.3,MacIntel,59.99880002,516.4216,517.4229,,,,,,,,,,,,,,,,,,,,,,,,,,517.4229,518.1206,m,1,0.6815,,518.1207,518.1207,,0,160,160,103,1,104,tane,5623,255.4868,5075,0.5548,4,notharmonic,1.3,word,m,,,,,,,
,,,,,,,,,,,,001,2023-11-08_06h59.34.405,vowel_harmony,2023.2.3,MacIntel,59.99880002,518.121,519.1234,,,,,,,,,,,,,,,,,,,,,,,,,,519.1234,519.9709,m,1,0.8316,,519.9709,519.971,,0,161,161,114,1,115,nisan,2321,105.457,2044,0.2235,5,notharmonic,1.6,word,m,,,,,,,
,,,,,,,,,,,,001,2023-11-08_06h59.34.405,vowel_harmony,2023.2.3,MacIntel,59.99880002,519.9712,520.9718,,,,,,,,,,,,,,,,,,,,,,,,,,520.9718,521.473,m,0,0.4795,,521.473,521.4731,,0,162,162,254,1,255,millek,,,,,6,harmonic,1.8,nw,z,,,,,,,
,,,,,,,,,,,,001,2023-11-08_06h59.34.405,vowel_harmony,2023.2.3,MacIntel,59.99880002,521.4735,522.4738,,,,,,,,,,,,,,,,,,,,,,,,,,522.4738,523.1418,z,1,0.6476,,523.1418,523.1418,,0,163,163,268,1,269,haldum,,,,,6,harmonic,2,nw,z,,,,,,,
,,,,,,,,,,,,001,2023-11-08_06h59.34.405,vowel_harmony,2023.2.3,MacIntel,59.99880002,523.1422,524.1403,,,,,,,,,,,,,,,,,,,,,,,,,,524.1404,524.8405,m,1,0.6787,,524.8405,524.8406,,0,164,164,151,1,152,ateş,2108,95.7792,1803,0.1971,4,notharmonic,1.65,word,m,,,,,,,
,,,,,,,,,,,,001,2023-11-08_06h59.34.405,vowel_harmony,2023.2.3,MacIntel,59.99880002,524.8408,525.8384,,,,,,,,,,,,,,,,,,,,,,,,,,525.8384,526.5218,z,1,0.6726,,526.5218,526.5219,,0,165,165,300,1,301,nilgi,,,,,5,notharmonic,1.85,nw,z,,,,,,,
,,,,,,,,,,,,001,2023-11-08_06h59.34.405,vowel_harmony,2023.2.3,MacIntel,59.99880002,526.5222,527.5235,,,,,,,,,,,,,,,,,,,,,,,,,,527.5235,528.155,z,1,0.6152,,528.155,528.1551,,0,166,166,229,1,230,tonam,,,,,5,harmonic,1.8,nw,z,,,,,,,
,,,,,,,,,,,,001,2023-11-08_06h59.34.405,vowel_harmony,2023.2.3,MacIntel,59.99880002,528.1554,529.1559,,,,,,,,,,,,,,,,,,,,,,,,,,529.156,530.205,z,1,1.0339,,530.2051,530.2052,,0,167,167,302,1,303,işgar,,,,,5,notharmonic,1.9,nw,z,,,,,,,
,,,,,,,,,,,,001,2023-11-08_06h59.34.405,vowel_harmony,2023.2.3,MacIntel,59.99880002,530.2054,531.2059,,,,,,,,,,,,,,,,,,,,,,,,,,531.2059,532.0059,z,1,0.7851,,532.006,532.0061,,0,168,168,330,1,331,vahçe,,,,,5,notharmonic,1.9,nw,z,,,,,,,
,,,,,,,,,,,,001,2023-11-08_06h59.34.405,vowel_harmony,2023.2.3,MacIntel,59.99880002,532.0066,533.0061,,,,,,,,,,,,,,,,,,,,,,,,,,533.0061,533.6395,m,1,0.6175,,533.6395,533.6396,,0,169,169,134,1,135,iptal,793,36.0308,725,0.0793,5,notharmonic,1.35,word,m,,,,,,,
,,,,,,,,,,,,001,2023-11-08_06h59.34.405,vowel_harmony,2023.2.3,MacIntel,59.99880002,533.64,534.6385,,,,,,,,,,,,,,,,,,,,,,,,,,534.6386,535.2047,m,1,0.5539,,535.2047,535.2048,,0,170,170,24,1,25,yorgun,1153,52.3877,1108,0.1211,6,harmonic,1.55,word,m,,,,,,,
,,,,,,,,,,,,001,2023-11-08_06h59.34.405,vowel_harmony,2023.2.3,MacIntel,59.99880002,535.2051,536.2059,,,,,,,,,,,,,,,,,,,,,,,,,,536.206,536.8895,m,1,0.6689,,536.8895,536.8896,,0,171,171,126,1,127,adet,4367,198.4192,3768,0.4119,4,notharmonic,1.4,word,m,,,,,,,
,,,,,,,,,,,,001,2023-11-08_06h59.34.405,vowel_harmony,2023.2.3,MacIntel,59.99880002,536.8898,537.8894,,,,,,,,,,,,,,,,,,,,,,,,,,537.8894,538.9727,z,1,1.0634,,538.9727,538.9728,,0,172,172,198,1,199,yarbız,,,,,6,harmonic,1.95,nw,z,,,,,,,
,,,,,,,,,,,,001,2023-11-08_06h59.34.405,vowel_harmony,2023.2.3,MacIntel,59.99880002,538.973,539.9723,,,,,,,,,,,,,,,,,,,,,,,,,,539.9723,540.8738,m,1,0.8863,,540.8738,540.8739,,0,173,173,166,1,167,maden,402,18.2653,339,0.0371,5,notharmonic,1.45,word,m,,,,,,,
,,,,,,,,,,,,001,2023-11-08_06h59.34.405,vowel_harmony,2023.2.3,MacIntel,59.99880002,540.8742,541.8749,,,,,,,,,,,,,,,,,,,,,,,,,,541.8749,542.6082,m,1,0.7103,,542.6082,542.6083,,0,174,174,125,1,126,ikna,1276,57.9764,1173,0.1282,4,notharmonic,1.85,word,m,,,,,,,
,,,,,,,,,,,,001,2023-11-08_06h59.34.405,vowel_harmony,2023.2.3,MacIntel,59.99880002,542.6086,543.6073,,,,,,,,,,,,,,,,,,,,,,,,,,543.6073,544.2244,z,1,0.5985,,544.2244,544.2245,,0,175,175,245,1,246,bıyan,,,,,5,harmonic,1.7,nw,z,,,,,,,
,,,,,,,,,,,,001,2023-11-08_06h59.34.405,vowel_harmony,2023.2.3,MacIntel,59.99880002,544.2249,545.2158,,,,,,,,,,,,,,,,,,,,,,,,,,545.2159,545.7422,m,1,0.5035,,545.7422,545.7423,,0,176,176,165,1,166,gazete,1402,63.7013,1270,0.1388,6,notharmonic,1.8,word,m,,,,,,,
,,,,,,,,,,,,001,2023-11-08_06h59.34.405,vowel_harmony,2023.2.3,MacIntel,59.99880002,545.7427,546.7404,,,,,,,,,,,,,,,,,,,,,,,,,,546.7405,547.292,m,1,0.5312,,547.292,547.2921,,0,177,177,141,1,142,madde,3793,172.3389,3389,0.3705,5,notharmonic,1.7,word,m,,,,,,,
,,,,,,,,,,,,001,2023-11-08_06h59.34.405,vowel_harmony,2023.2.3,MacIntel,59.99880002,547.2928,548.29,,,,,,,,,,,,,,,,,,,,,,,,,,548.29,549.341,z,1,1.0355,,549.3411,549.3412,,0,178,178,261,1,262,kardok,,,,,6,harmonic,1.95,nw,z,,,,,,,
,,,,,,,,,,,,001,2023-11-08_06h59.34.405,vowel_harmony,2023.2.3,MacIntel,59.99880002,549.3421,550.3428,,,,,,,,,,,,,,,,,,,,,,,,,,550.3428,551.0418,m,1,0.6817,,551.0419,551.0424,,0,179,179,110,1,111,rüya,1062,48.2531,937,0.1024,4,notharmonic,1.75,word,m,,,,,,,
,,,,,,,,,,,,001,2023-11-08_06h59.34.405,vowel_harmony,2023.2.3,MacIntel,59.99880002,551.0428,552.0435,,,,,,,,,,,,,,,,,,,,,,,,,,552.0435,552.8589,z,1,0.8022,,552.859,552.8591,,0,180,180,230,1,231,bikir,,,,,5,harmonic,1.75,nw,z,,,,,,,
,,,,,,,,,,,,001,2023-11-08_06h59.34.405,vowel_harmony,2023.2.3,MacIntel,59.99880002,552.8595,553.8576,,,,,,,,,,,,,,,,,,,,,,,,,,553.8576,554.9766,z,1,1.0997,,554.9766,554.9767,,0,181,181,294,1,295,mesap,,,,,5,notharmonic,1.8,nw,z,,,,,,,
,,,,,,,,,,,,001,2023-11-08_06h59.34.405,vowel_harmony,2023.2.3,MacIntel,59.99880002,554.9771,555.9761,,,,,,,,,,,,,,,,,,,,,,,,,,555.9761,556.794,m,1,0.7946,,556.7941,556.7944,,0,182,182,135,1,136,hafif,3355,152.4379,3101,0.339,5,notharmonic,1.75,word,m,,,,,,,
,,,,,,,,,,,,001,2023-11-08_06h59.34.405,vowel_harmony,2023.2.3,MacIntel,59.99880002,556.7957,557.7919,,,,,,,,,,,,,,,,,,,,,,,,,,557.7919,558.4759,z,1,0.6615,,558.4759,558.476,,0,183,183,342,1,343,kulön,,,,,5,notharmonic,1.9,nw,z,,,,,,,
,,,,,,,,,,,,001,2023-11-08_06h59.34.405,vowel_harmony,2023.2.3,MacIntel,59.99880002,558.4766,559.4764,,,,,,,,,,,,,,,,,,,,,,,,,,559.4764,560.1086,z,1,0.6192,,560.1086,560.1087,,0,184,184,282,1,283,taöz,,,,,4,notharmonic,1.9,nw,z,,,,,,,
,,,,,,,,,,,,001,2023-11-08_06h59.34.405,vowel_harmony,2023.2.3,MacIntel,59.99880002,560.109,561.1109,,,,,,,,,,,,,,,,,,,,,,,,,,561.1109,561.6244,m,1,0.4974,,561.6244,561.6245,,0,185,185,31,1,32,fazla,18293,831.1614,16694,1.825,5,harmonic,1,word,m,,,,,,,
,,,,,,,,,,,,001,2023-11-08_06h59.34.405,vowel_harmony,2023.2.3,MacIntel,59.99880002,561.6249,562.627,,,,,,,,,,,,,,,,,,,,,,,,,,562.627,563.2583,z,1,0.6177,,563.2586,563.2589,,0,186,186,353,1,354,ikno,,,,,4,notharmonic,1.95,nw,z,,,,,,,
,,,,,,,,,,,,001,2023-11-08_06h59.34.405,vowel_harmony,2023.2.3,MacIntel,59.99880002,563.2593,564.2601,,,,,,,,,,,,,,,,,,,,,,,,,,564.2602,564.8576,m,1,0.581,,564.8577,564.8578,,0,187,187,149,1,150,ceza,2611,118.6335,2169,0.2371,4,notharmonic,1.5,word,m,,,,,,,
,,,,,,,,,,,,001,2023-11-08_06h59.34.405,vowel_harmony,2023.2.3,MacIntel,59.99880002,564.8587,565.8578,,,,,,,,,,,,,,,,,,,,,,,,,,565.8579,566.5103,z,1,0.6351,,566.5103,566.5104,,0,188,188,279,1,280,tadde,,,,,5,notharmonic,1.8,nw,z,,,,,,,
,,,,,,,,,,,,001,2023-11-08_06h59.34.405,vowel_harmony,2023.2.3,MacIntel,59.99880002,566.5109,567.5102,,,,,,,,,,,,,,,,,,,,,,,,,,567.5103,569.0417,z,1,1.5187,,569.0417,569.0417,,0,189,189,306,1,307,otet,,,,,4,notharmonic,1.95,nw,z,,,,,,,
,,,,,,,,,,,,001,2023-11-08_06h59.34.405,vowel_harmony,2023.2.3,MacIntel,59.99880002,569.042,570.0426,,,,,,,,,,,,,,,,,,,,,,,,,,570.0427,570.7421,m,1,0.6854,,570.7422,570.7422,,0,190,190,127,1,128,şahane,1153,52.3877,1108,0.1211,6,notharmonic,1.8,word,m,,,,,,,
,,,,,,,,,,,,001,2023-11-08_06h59.34.405,vowel_harmony,2023.2.3,MacIntel,59.99880002,570.7426,571.7427,,,,,,,,,,,,,,,,,,,,,,,,,,571.7427,572.4428,z,1,0.6863,,572.4429,572.443,,0,191,191,256,1,257,yaruza,,,,,6,harmonic,1.9,nw,z,,,,,,,
,,,,,,,,,,,,001,2023-11-08_06h59.34.405,vowel_harmony,2023.2.3,MacIntel,59.99880002,572.4434,573.4433,,,,,,,,,,,,,,,,,,,,,,,,,,573.4433,574.2581,z,1,0.798,,574.2581,574.2583,,0,192,192,295,1,296,haylin,,,,,6,notharmonic,1.8,nw,z,,,,,,,
,,,,,,,,,,,,001,2023-11-08_06h59.34.405,vowel_harmony,2023.2.3,MacIntel,59.99880002,574.2586,575.2599,,,,,,,,,,,,,,,,,,,,,,,,,,575.2599,576.86,z,1,1.581,,576.8601,576.8602,,0,193,193,333,1,334,heyran,,,,,6,notharmonic,1.85,nw,z,,,,,,,
,,,,,,,,,,,,001,2023-11-08_06h59.34.405,vowel_harmony,2023.2.3,MacIntel,59.99880002,576.8606,577.8604,,,,,,,,,,,,,,,,,,,,,,,,,,577.8605,578.4939,m,1,0.6148,,578.494,578.4941,,0,194,194,144,1,145,garip,2567,116.6343,2355,0.2574,5,notharmonic,1.65,word,m,,,,,,,
,,,,,,,,,,,,001,2023-11-08_06h59.34.405,vowel_harmony,2023.2.3,MacIntel,59.99880002,578.4945,579.492,,,,,,,,,,,,,,,,,,,,,,,,,,579.492,580.2106,z,1,0.6958,,580.2107,580.2107,,0,195,195,250,1,251,kakuk,,,,,5,harmonic,1.9,nw,z,,,,,,,
,,,,,,,,,,,,001,2023-11-08_06h59.34.405,vowel_harmony,2023.2.3,MacIntel,59.99880002,580.2112,581.2099,,,,,,,,,,,,,,,,,,,,,,,,,,581.2099,581.8766,m,1,0.65,,581.8766,581.8768,,0,196,196,83,1,84,küçük,14048,638.2854,12467,1.3629,5,harmonic,1.75,word,m,,,,,,,
,,,,,,,,,,,,001,2023-11-08_06h59.34.405,vowel_harmony,2023.2.3,MacIntel,59.99880002,581.8772,582.8761,,,,,,,,,,,,,,,,,,,,,,,,,,582.8762,583.6269,m,1,0.7293,,583.6269,583.627,,0,197,197,21,1,22,duygu,1877,85.2834,1760,0.1924,5,harmonic,1.8,word,m,,,,,,,
,,,,,,,,,,,,001,2023-11-08_06h59.34.405,vowel_harmony,2023.2.3,MacIntel,59.99880002,583.6273,584.6256,,,,,,,,,,,,,,,,,,,,,,,,,,584.6256,585.2259,m,1,0.5854,,585.2259,585.226,,0,198,198,162,1,163,hariç,1267,57.5675,1233,0.1348,5,notharmonic,1.75,word,m,,,,,,,
,,,,,,,,,,,,001,2023-11-08_06h59.34.405,vowel_harmony,2023.2.3,MacIntel,59.99880002,585.2264,586.2278,,,,,,,,,,,,,,,,,,,,,,,,,,586.228,586.7422,m,1,0.4947,,586.7423,586.7424,,0,199,199,17,1,18,yakın,7990,363.0339,7595,0.8303,5,harmonic,1.8,word,m,,,,,,,
,,,,,,,,,,,,001,2023-11-08_06h59.34.405,vowel_harmony,2023.2.3,MacIntel,59.99880002,586.7427,587.7438,,,,,,,,,,,,,,,,,,,,,,,,,,587.7438,588.276,m,1,0.5145,,588.2761,588.2761,,0,200,200,29,1,30,huzur,1911,86.8283,1799,0.1967,5,harmonic,1.8,word,m,,,,,,,
,,,,,,,,,,,,001,2023-11-08_06h59.34.405,vowel_harmony,2023.2.3,MacIntel,59.99880002,588.2763,589.2778,,,,,,,,,,,,,,,,,,,,,,,,,,589.2778,589.976,z,1,0.684,,589.976,589.9761,,0,201,201,343,1,344,tarne,,,,,5,notharmonic,1.85,nw,z,,,,,,,
,,,,,,,,,,,,001,2023-11-08_06h59.34.405,vowel_harmony,2023.2.3,MacIntel,59.99880002,589.9764,590.9779,,,,,,,,,,,,,,,,,,,,,,,,,,590.9779,591.5283,z,1,0.5322,,591.5284,591.5284,,0,202,202,249,1,250,hurıt,,,,,5,harmonic,1.95,nw,z,,,,,,,
,,,,,,,,,,,,001,2023-11-08_06h59.34.405,vowel_harmony,2023.2.3,MacIntel,59.99880002,591.5289,592.5279,,,,,,,,,,,,,,,,,,,,,,,,,,592.5279,593.2609,m,0,0.7147,,593.2609,593.261,,0,203,203,271,1,272,mimal,,,,,5,notharmonic,1.8,nw,z,,,,,,,
,,,,,,,,,,,,001,2023-11-08_06h59.34.405,vowel_harmony,2023.2.3,MacIntel,59.99880002,593.2614,594.2624,,,,,,,,,,,,,,,,,,,,,,,,,,594.2624,595.5941,m,1,1.32,,595.5941,595.5943,,0,204,204,12,1,13,konu,5400,245.3546,5110,0.5586,4,harmonic,1,word,m,,,,,,,
,,,,,,,,,,,,001,2023-11-08_06h59.34.405,vowel_harmony,2023.2.3,MacIntel,59.99880002,595.5946,596.5963,,,,,,,,,,,,,,,,,,,,,,,,,,596.5963,597.612,z,1,0.9994,,597.612,597.6121,,0,205,205,281,1,282,afel,,,,,4,notharmonic,1.8,nw,z,,,,,,,
,,,,,,,,,,,,001,2023-11-08_06h59.34.405,vowel_harmony,2023.2.3,MacIntel,59.99880002,597.6126,598.6125,,,,,,,,,,,,,,,,,,,,,,,,,,598.6125,599.4281,z,1,0.7985,,599.4282,599.4282,,0,206,206,221,1,222,yaypın,,,,,6,harmonic,1.75,nw,z,,,,,,,
,,,,,,,,,,,,001,2023-11-08_06h59.34.405,vowel_harmony,2023.2.3,MacIntel,59.99880002,599.4287,600.4295,,,,,,,,,,,,,,,,,,,,,,,,,,600.4295,601.0617,z,1,0.6166,,601.0618,601.0619,,0,207,207,237,1,238,taşal,,,,,5,harmonic,1.8,nw,z,,,,,,,
,,,,,,,,,,,,001,2023-11-08_06h59.34.405,vowel_harmony,2023.2.3,MacIntel,59.99880002,601.0622,602.0619,,,,,,,,,,,,,,,,,,,,,,,,,,602.0619,602.6621,z,1,0.5783,,602.6621,602.6622,,0,208,208,197,1,198,ranar,,,,,5,harmonic,1.75,nw,z,,,,,,,
,,,,,,,,,,,,001,2023-11-08_06h59.34.405,vowel_harmony,2023.2.3,MacIntel,59.99880002,602.6625,603.6642,,,,,,,,,,,,,,,,,,,,,,,,,,603.6642,604.2604,m,1,0.5814,,604.2605,604.2606,,0,209,209,43,1,44,geniş,3380,153.5738,3185,0.3482,5,harmonic,1.35,word,m,,,,,,,
,,,,,,,,,,,,001,2023-11-08_06h59.34.405,vowel_harmony,2023.2.3,MacIntel,59.99880002,604.2609,605.2613,,,,,,,,,,,,,,,,,,,,,,,,,,605.2613,605.8456,z,1,0.5614,,605.8457,605.8458,,0,210,210,251,1,252,oştay,,,,,5,harmonic,1.95,nw,z,,,,,,,
,,,,,,,,,,,,001,2023-11-08_06h59.34.405,vowel_harmony,2023.2.3,MacIntel,59.99880002,605.8462,606.8449,,,,,,,,,,,,,,,,,,,,,,,,,,606.8449,607.5282,z,1,0.6613,,607.5282,607.5283,,0,211,211,323,1,324,devak,,,,,5,notharmonic,1.75,nw,z,,,,,,,
,,,,,,,,,,,,001,2023-11-08_06h59.34.405,vowel_harmony,2023.2.3,MacIntel,59.99880002,607.5287,608.5283,,,,,,,,,,,,,,,,,,,,,,,,,,608.5288,609.1265,z,1,0.5815,,609.1265,609.1266,,0,212,212,248,1,249,şegim,,,,,5,harmonic,1.9,nw,z,,,,,,,
,,,,,,,,,,,,001,2023-11-08_06h59.34.405,vowel_harmony,2023.2.3,MacIntel,59.99880002,609.1267,610.1278,,,,,,,,,,,,,,,,,,,,,,,,,,610.1279,610.8772,m,1,0.7353,,610.8772,610.8772,,0,213,213,113,1,114,model,1200,54.5232,1082,0.1183,5,notharmonic,1.75,word,m,,,,,,,
,,,,,,,,,,,,001,2023-11-08_06h59.34.405,vowel_harmony,2023.2.3,MacIntel,59.99880002,610.8775,611.8799,,,,,,,,,,,,,,,,,,,,,,,,,,611.8799,612.6631,z,1,0.7635,,612.6631,612.6632,,0,214,214,297,1,298,sapet,,,,,5,notharmonic,1.85,nw,z,,,,,,,
,,,,,,,,,,,,001,2023-11-08_06h59.34.405,vowel_harmony,2023.2.3,MacIntel,59.99880002,612.6637,613.6627,,,,,,,,,,,,,,,,,,,,,,,,,,613.6627,614.5441,z,1,0.8673,,614.5441,614.5442,,0,215,215,332,1,333,tahane,,,,,6,notharmonic,1.85,nw,z,,,,,,,
,,,,,,,,,,,,001,2023-11-08_06h59.34.405,vowel_harmony,2023.2.3,MacIntel,59.99880002,614.5445,615.544,,,,,,,,,,,,,,,,,,,,,,,,,,615.544,616.112,m,1,0.5523,,616.112,616.1122,,0,216,216,84,1,85,ülke,3121,141.8059,2801,0.3062,4,harmonic,1.65,word,m,,,,,,,
,,,,,,,,,,,,001,2023-11-08_06h59.34.405,vowel_harmony,2023.2.3,MacIntel,59.99880002,616.1126,617.1124,,,,,,,,,,,,,,,,,,,,,,,,,,617.1124,617.8966,m,1,0.7607,,617.8966,617.8967,,0,217,217,77,1,78,ufak,3252,147.758,2980,0.3258,4,harmonic,1.5,word,m,,,,,,,
,,,,,,,,,,,,001,2023-11-08_06h59.34.405,vowel_harmony,2023.2.3,MacIntel,59.99880002,617.8972,618.8962,,,,,,,,,,,,,,,,,,,,,,,,,,618.8962,619.5461,m,1,0.6269,,619.5462,619.5462,,0,218,218,54,1,55,yedek,825,37.4847,732,0.08,5,harmonic,1.65,word,m,,,,,,,
,,,,,,,,,,,,001,2023-11-08_06h59.34.405,vowel_harmony,2023.2.3,MacIntel,59.99880002,619.5466,620.547,,,,,,,,,,,,,,,,,,,,,,,,,,620.547,621.2461,z,1,0.6819,,621.2462,621.2463,,0,219,219,189,1,190,düvre,,,,,5,harmonic,1.85,nw,z,,,,,,,
,,,,,,,,,,,,001,2023-11-08_06h59.34.405,vowel_harmony,2023.2.3,MacIntel,59.99880002,621.2467,622.2458,,,,,,,,,,,,,,,,,,,,,,,,,,622.2459,622.6953,m,1,0.4351,,622.6953,622.6954,,0,220,220,25,1,26,rapor,703,31.9415,617,0.0675,5,harmonic,1.8,word,m,,,,,,,
,,,,,,,,,,,,001,2023-11-08_06h59.34.405,vowel_harmony,2023.2.3,MacIntel,59.99880002,622.6957,623.697,,,,,,,,,,,,,,,,,,,,,,,,,,623.6971,624.2304,m,1,0.511,,624.2304,624.2305,,0,221,221,80,1,81,merkez,1445,65.6551,1255,0.1372,6,harmonic,1.8,word,m,,,,,,,
,,,,,,,,,,,,001,2023-11-08_06h59.34.405,vowel_harmony,2023.2.3,MacIntel,59.99880002,624.2309,625.2296,,,,,,,,,,,,,,,,,,,,,,,,,,625.2296,625.7109,m,1,0.4671,,625.711,625.7111,,0,222,222,136,1,137,beyaz,5517,250.6706,4788,0.5234,5,notharmonic,1.85,word,m,,,,,,,
,,,,,,,,,,,,001,2023-11-08_06h59.34.405,vowel_harmony,2023.2.3,MacIntel,59.99880002,625.7115,626.7135,,,,,,,,,,,,,,,,,,,,,,,,,,626.7135,627.3308,m,1,0.5939,,627.3308,627.3309,,0,223,223,168,1,169,kilo,3389,153.9827,2646,0.2893,4,notharmonic,1.65,word,m,,,,,,,
,,,,,,,,,,,,001,2023-11-08_06h59.34.405,vowel_harmony,2023.2.3,MacIntel,59.99880002,627.3313,628.3296,,,,,,,,,,,,,,,,,,,,,,,,,,628.3296,628.963,m,1,0.6177,,628.963,628.9632,,0,224,224,4,1,5,metre,1156,52.5241,1015,0.111,5,harmonic,1.7,word,m,,,,,,,
,,,,,,,,,,,,001,2023-11-08_06h59.34.405,vowel_harmony,2023.2.3,MacIntel,59.99880002,628.9636,629.9618,,,,,,,,,,,,,,,,,,,,,,,,,,629.9618,630.6324,z,1,0.652,,630.6324,630.6326,,0,225,225,236,1,237,toklam,,,,,6,harmonic,1.85,nw,z,,,,,,,
,,,,,,,,,,,,001,2023-11-08_06h59.34.405,vowel_harmony,2023.2.3,MacIntel,59.99880002,630.6329,631.6305,,,,,,,,,,,,,,,,,,,,,,,,,,631.6306,632.1786,m,1,0.5328,,632.1786,632.1792,,0,226,226,140,1,141,sahil,481,21.8547,443,0.0484,5,notharmonic,1.45,word,m,,,,,,,
,,,,,,,,,,,,001,2023-11-08_06h59.34.405,vowel_harmony,2023.2.3,MacIntel,59.99880002,632.1796,633.182,,,,,,,,,,,,,,,,,,,,,,,,,,633.182,633.7304,m,1,0.527,,633.7305,633.7306,,0,227,227,58,1,59,ayak,2143,97.3694,1931,0.2111,4,harmonic,1,word,m,,,,,,,
,,,,,,,,,,,,001,2023-11-08_06h59.34.405,vowel_harmony,2023.2.3,MacIntel,59.99880002,633.7309,634.7311,,,,,,,,,,,,,,,,,,,,,,,,,,634.7312,635.1458,m,0,0.3956,,635.1458,635.146,,0,228,228,340,1,341,minya,,,,,5,notharmonic,1.95,nw,z,,,,,,,
,,,,,,,,,,,,001,2023-11-08_06h59.34.405,vowel_harmony,2023.2.3,MacIntel,59.99880002,635.1463,636.1477,,,,,,,,,,,,,,,,,,,,,,,,,,636.1477,636.6636,m,1,0.4985,,636.6636,636.6636,,0,229,229,85,1,86,geçmiş,4195,190.6042,4039,0.4415,6,harmonic,1.55,word,m,,,,,,,
,,,,,,,,,,,,001,2023-11-08_06h59.34.405,vowel_harmony,2023.2.3,MacIntel,59.99880002,636.664,637.6637,,,,,,,,,,,,,,,,,,,,,,,,,,637.6638,638.3139,m,1,0.6284,,638.3139,638.3141,,0,230,230,27,1,28,bölge,1283,58.2944,1123,0.1228,5,harmonic,1.65,word,m,,,,,,,
,,,,,,,,,,,,001,2023-11-08_06h59.34.405,vowel_harmony,2023.2.3,MacIntel,59.99880002,638.3144,639.3124,,,,,,,,,,,,,,,,,,,,,,,,,,639.3124,639.8963,z,1,0.5726,,639.8964,639.8965,,0,231,231,214,1,215,vecü,,,,,4,harmonic,1.95,nw,z,,,,,,,
,,,,,,,,,,,,001,2023-11-08_06h59.34.405,vowel_harmony,2023.2.3,MacIntel,59.99880002,639.8969,640.8977,,,,,,,,,,,,,,,,,,,,,,,,,,640.8977,641.4814,m,1,0.5644,,641.4815,641.4816,,0,232,232,150,1,151,sabit,1046,47.5261,915,0.1,5,notharmonic,1.75,word,m,,,,,,,
,,,,,,,,,,,,001,2023-11-08_06h59.34.405,vowel_harmony,2023.2.3,MacIntel,59.99880002,641.482,642.4819,,,,,,,,,,,,,,,,,,,,,,,,,,642.4819,643.0972,m,1,0.5977,,643.0973,643.0974,,0,233,233,101,1,102,imza,1358,61.7021,1253,0.137,4,notharmonic,1.65,word,m,,,,,,,
,,,,,,,,,,,,001,2023-11-08_06h59.34.405,vowel_harmony,2023.2.3,MacIntel,59.99880002,643.0978,644.0979,,,,,,,,,,,,,,,,,,,,,,,,,,644.098,644.6298,z,1,0.5135,,644.6298,644.63,,0,234,234,328,1,329,kirul,,,,,5,notharmonic,1.95,nw,z,,,,,,,
,,,,,,,,,,,,001,2023-11-08_06h59.34.405,vowel_harmony,2023.2.3,MacIntel,59.99880002,644.6304,645.632,,,,,,,,,,,,,,,,,,,,,,,,,,645.632,646.5307,z,1,0.882,,646.5307,646.5309,,0,235,235,239,1,240,şekik,,,,,5,harmonic,1.7,nw,z,,,,,,,
,,,,,,,,,,,,001,2023-11-08_06h59.34.405,vowel_harmony,2023.2.3,MacIntel,59.99880002,646.5314,647.5299,,,,,,,,,,,,,,,,,,,,,,,,,,647.5299,648.2979,m,1,0.7486,,648.298,648.298,,0,236,236,118,1,119,meşhur,1092,49.6161,1057,0.1156,6,notharmonic,1.9,word,m,,,,,,,
,,,,,,,,,,,,001,2023-11-08_06h59.34.405,vowel_harmony,2023.2.3,MacIntel,59.99880002,648.2984,649.2922,,,,,,,,,,,,,,,,,,,,,,,,,,649.2922,649.8311,m,0,0.5238,,649.8312,649.8313,,0,237,237,290,1,291,aipa,,,,,4,notharmonic,1.95,nw,z,,,,,,,
,,,,,,,,,,,,001,2023-11-08_06h59.34.405,vowel_harmony,2023.2.3,MacIntel,59.99880002,649.8323,650.9161,,,,,,,,,,,,,,,,,,,,,,,,,,650.9161,652.0997,z,1,1.1573,,652.0997,652.0997,,0,238,238,293,1,294,esnan,,,,,5,notharmonic,1.85,nw,z,,,,,,,
,,,,,,,,,,,,001,2023-11-08_06h59.34.405,vowel_harmony,2023.2.3,MacIntel,59.99880002,652.1004,653.0965,,,,,,,,,,,,,,,,,,,,,,,,,,653.0965,653.6638,z,1,0.5519,,653.6638,653.6639,,0,239,239,199,1,200,movu,,,,,4,harmonic,1.9,nw,z,,,,,,,
,,,,,,,,,,,,001,2023-11-08_06h59.34.405,vowel_harmony,2023.2.3,MacIntel,59.99880002,653.6642,654.6657,,,,,,,,,,,,,,,,,,,,,,,,,,654.6657,655.632,m,1,0.9494,,655.632,697.4184,space,0,240,240,48,1,49,teşvik,932,42.3464,867,0.0948,6,harmonic,1.8,word,m,41.771,,,,,,
,,,,,,,,,,,,001,2023-11-08_06h59.34.405,vowel_harmony,2023.2.3,MacIntel,59.99880002,697.4317,698.4364,,,,,,,,,,,,,,,,,,,,,,,,,,698.4364,699.57,z,1,1.1163,,699.5701,699.5702,,0,241,241,215,1,216,aydo,,,,,4,harmonic,1.9,nw,z,,,,,,,
,,,,,,,,,,,,001,2023-11-08_06h59.34.405,vowel_harmony,2023.2.3,MacIntel,59.99880002,699.5707,700.5669,,,,,,,,,,,,,,,,,,,,,,,,,,700.5669,701.2681,z,1,0.6874,,701.2681,701.2682,,0,242,242,320,1,321,finak,,,,,5,notharmonic,1.85,nw,z,,,,,,,
,,,,,,,,,,,,001,2023-11-08_06h59.34.405,vowel_harmony,2023.2.3,MacIntel,59.99880002,701.2687,702.2731,,,,,,,,,,,,,,,,,,,,,,,,,,702.2732,702.9677,m,1,0.672,,702.9677,702.9678,,0,243,243,79,1,80,durum,6783,308.1926,6431,0.703,5,harmonic,1.7,word,m,,,,,,,
,,,,,,,,,,,,001,2023-11-08_06h59.34.405,vowel_harmony,2023.2.3,MacIntel,59.99880002,702.9683,703.9674,,,,,,,,,,,,,,,,,,,,,,,,,,703.9674,704.6529,m,1,0.6665,,704.6529,704.6529,,0,244,244,130,1,131,hamile,1075,48.8437,877,0.0959,6,notharmonic,1.5,word,m,,,,,,,
,,,,,,,,,,,,001,2023-11-08_06h59.34.405,vowel_harmony,2023.2.3,MacIntel,59.99880002,704.6532,705.6509,,,,,,,,,,,,,,,,,,,,,,,,,,705.6509,706.4184,m,1,0.7472,,706.4185,706.4185,,0,245,245,2,1,3,radyo,763,34.6677,636,0.0695,5,harmonic,1.85,word,m,,,,,,,
,,,,,,,,,,,,001,2023-11-08_06h59.34.405,vowel_harmony,2023.2.3,MacIntel,59.99880002,706.4189,707.4192,,,,,,,,,,,,,,,,,,,,,,,,,,707.4193,708.0836,z,1,0.6451,,708.0837,708.0837,,0,246,246,186,1,187,habık,,,,,5,harmonic,1.9,nw,z,,,,,,,
,,,,,,,,,,,,001,2023-11-08_06h59.34.405,vowel_harmony,2023.2.3,MacIntel,59.99880002,708.084,709.0852,,,,,,,,,,,,,,,,,,,,,,,,,,709.0853,710.2178,z,1,1.1109,,710.2178,710.2179,,0,247,247,358,1,359,yangin,,,,,6,notharmonic,1.9,nw,z,,,,,,,
,,,,,,,,,,,,001,2023-11-08_06h59.34.405,vowel_harmony,2023.2.3,MacIntel,59.99880002,710.2181,711.2186,,,,,,,,,,,,,,,,,,,,,,,,,,711.2186,711.9514,z,1,0.7169,,711.9514,711.9514,,0,248,248,278,1,279,sekon,,,,,5,notharmonic,1.85,nw,z,,,,,,,
,,,,,,,,,,,,001,2023-11-08_06h59.34.405,vowel_harmony,2023.2.3,MacIntel,59.99880002,711.9518,712.9528,,,,,,,,,,,,,,,,,,,,,,,,,,712.9529,713.7678,z,1,0.8012,,713.7678,713.7679,,0,249,249,301,1,302,mezak,,,,,5,notharmonic,1.8,nw,z,,,,,,,
,,,,,,,,,,,,001,2023-11-08_06h59.34.405,vowel_harmony,2023.2.3,MacIntel,59.99880002,713.7683,714.7695,,,,,,,,,,,,,,,,,,,,,,,,,,714.7695,715.535,z,1,0.7455,,715.535,715.5351,,0,250,250,183,1,184,orkın,,,,,5,harmonic,1.9,nw,z,,,,,,,
,,,,,,,,,,,,001,2023-11-08_06h59.34.405,vowel_harmony,2023.2.3,MacIntel,59.99880002,715.5354,716.5356,,,,,,,,,,,,,,,,,,,,,,,,,,716.5357,717.1353,z,1,0.5852,,717.1353,717.1354,,0,251,251,298,1,299,yelsın,,,,,6,notharmonic,1.95,nw,z,,,,,,,
,,,,,,,,,,,,001,2023-11-08_06h59.34.405,vowel_harmony,2023.2.3,MacIntel,59.99880002,717.1358,718.1355,,,,,,,,,,,,,,,,,,,,,,,,,,718.1355,718.7859,z,1,0.6328,,718.7859,718.786,,0,252,252,255,1,256,yokın,,,,,5,harmonic,1.85,nw,z,,,,,,,
,,,,,,,,,,,,001,2023-11-08_06h59.34.405,vowel_harmony,2023.2.3,MacIntel,59.99880002,718.7863,719.7865,,,,,,,,,,,,,,,,,,,,,,,,,,719.7865,720.6198,z,1,0.814,,720.6198,720.62,,0,253,253,292,1,293,kinam,,,,,5,notharmonic,1.85,nw,z,,,,,,,
,,,,,,,,,,,,001,2023-11-08_06h59.34.405,vowel_harmony,2023.2.3,MacIntel,59.99880002,720.6204,721.6183,,,,,,,,,,,,,,,,,,,,,,,,,,721.6183,722.2538,m,1,0.6166,,722.2538,722.2539,,0,254,254,13,1,14,nokta,2085,94.7341,1939,0.212,5,harmonic,1.5,word,m,,,,,,,
,,,,,,,,,,,,001,2023-11-08_06h59.34.405,vowel_harmony,2023.2.3,MacIntel,59.99880002,722.2543,723.2526,,,,,,,,,,,,,,,,,,,,,,,,,,723.2526,723.9544,z,1,0.6816,,723.9544,723.9546,,0,255,255,319,1,320,biho,,,,,4,notharmonic,2,nw,z,,,,,,,
,,,,,,,,,,,,001,2023-11-08_06h59.34.405,vowel_harmony,2023.2.3,MacIntel,59.99880002,723.955,724.949,,,,,,,,,,,,,,,,,,,,,,,,,,724.949,725.6021,m,1,0.6203,,725.6022,725.6022,,0,256,256,9,1,10,karar,8108,368.3954,7436,0.8129,5,harmonic,1.6,word,m,,,,,,,
,,,,,,,,,,,,001,2023-11-08_06h59.34.405,vowel_harmony,2023.2.3,MacIntel,59.99880002,725.6026,726.602,,,,,,,,,,,,,,,,,,,,,,,,,,726.602,727.5044,z,1,0.8871,,727.5044,727.5044,,0,257,257,184,1,185,yapor,,,,,5,harmonic,1.9,nw,z,,,,,,,
,,,,,,,,,,,,001,2023-11-08_06h59.34.405,vowel_harmony,2023.2.3,MacIntel,59.99880002,727.5048,728.5039,,,,,,,,,,,,,,,,,,,,,,,,,,728.504,729.2199,m,1,0.694,,729.22,729.22,,0,258,258,67,1,68,bayram,1948,88.5094,1648,0.1802,6,harmonic,1.85,word,m,,,,,,,
,,,,,,,,,,,,001,2023-11-08_06h59.34.405,vowel_harmony,2023.2.3,MacIntel,59.99880002,729.2204,730.2182,,,,,,,,,,,,,,,,,,,,,,,,,,730.2182,731.12,z,1,0.8828,,731.12,731.1201,,0,259,259,344,1,345,barika,,,,,6,notharmonic,1.75,nw,z,,,,,,,
,,,,,,,,,,,,001,2023-11-08_06h59.34.405,vowel_harmony,2023.2.3,MacIntel,59.99880002,731.1205,732.1209,,,,,,,,,,,,,,,,,,,,,,,,,,732.1209,732.7377,m,1,0.5979,,732.7378,732.7378,,0,260,260,107,1,108,merak,5806,263.8016,5524,0.6039,5,notharmonic,1.65,word,m,,,,,,,
,,,,,,,,,,,,001,2023-11-08_06h59.34.405,vowel_harmony,2023.2.3,MacIntel,59.99880002,732.7382,733.7372,,,,,,,,,,,,,,,,,,,,,,,,,,733.7372,734.3537,z,0,0.5982,,734.3537,734.3538,,0,261,261,109,1,110,milyon,3936,178.8362,2958,0.3234,6,notharmonic,1.75,word,m,,,,,,,
,,,,,,,,,,,,001,2023-11-08_06h59.34.405,vowel_harmony,2023.2.3,MacIntel,59.99880002,734.3542,735.3538,,,,,,,,,,,,,,,,,,,,,,,,,,735.3538,736.0375,m,1,0.6616,,736.0375,736.0376,,0,262,262,5,1,6,bebek,3301,149.9843,2794,0.3054,5,harmonic,1.6,word,m,,,,,,,
,,,,,,,,,,,,001,2023-11-08_06h59.34.405,vowel_harmony,2023.2.3,MacIntel,59.99880002,736.038,737.0373,,,,,,,,,,,,,,,,,,,,,,,,,,737.0374,737.6713,m,1,0.6109,,737.6713,737.6715,,0,263,263,122,1,123,devam,17666,802.673,16284,1.7802,5,notharmonic,1.55,word,m,,,,,,,
,,,,,,,,,,,,001,2023-11-08_06h59.34.405,vowel_harmony,2023.2.3,MacIntel,59.99880002,737.6723,738.6706,,,,,,,,,,,,,,,,,,,,,,,,,,738.6706,739.471,z,1,0.7781,,739.471,739.4712,,0,264,264,351,1,352,seğlık,,,,,6,notharmonic,1.9,nw,z,,,,,,,
,,,,,,,,,,,,001,2023-11-08_06h59.34.405,vowel_harmony,2023.2.3,MacIntel,59.99880002,739.4715,740.4722,,,,,,,,,,,,,,,,,,,,,,,,,,740.4722,741.9039,z,1,1.4128,,741.904,741.9041,,0,265,265,188,1,189,tonık,,,,,5,harmonic,1.85,nw,z,,,,,,,
,,,,,,,,,,,,001,2023-11-08_06h59.34.405,vowel_harmony,2023.2.3,MacIntel,59.99880002,741.9045,742.9061,,,,,,,,,,,,,,,,,,,,,,,,,,742.9061,743.5209,m,1,0.603,,743.521,743.5213,,0,266,266,86,1,87,gerçek,8983,408.1519,8058,0.8809,6,harmonic,1.7,word,m,,,,,,,
,,,,,,,,,,,,001,2023-11-08_06h59.34.405,vowel_harmony,2023.2.3,MacIntel,59.99880002,743.5218,744.5221,,,,,,,,,,,,,,,,,,,,,,,,,,744.5221,745.1062,m,1,0.5665,,745.1062,745.1063,,0,267,267,72,1,73,çorba,1674,76.0599,1513,0.1654,5,harmonic,1.75,word,m,,,,,,,
,,,,,,,,,,,,001,2023-11-08_06h59.34.405,vowel_harmony,2023.2.3,MacIntel,59.99880002,745.1071,746.1063,,,,,,,,,,,,,,,,,,,,,,,,,,746.1064,746.7222,m,1,0.5981,,746.7223,746.7228,,0,268,268,161,1,162,komik,1617,73.4701,1506,0.1646,5,notharmonic,1.75,word,m,,,,,,,
,,,,,,,,,,,,001,2023-11-08_06h59.34.405,vowel_harmony,2023.2.3,MacIntel,59.99880002,746.7233,747.7208,,,,,,,,,,,,,,,,,,,,,,,,,,747.7209,748.3033,m,1,0.5671,,748.3033,748.3034,,0,269,269,96,1,97,dahil,3189,144.8955,3060,0.3345,5,notharmonic,1.7,word,m,,,,,,,
,,,,,,,,,,,,001,2023-11-08_06h59.34.405,vowel_harmony,2023.2.3,MacIntel,59.99880002,748.304,749.3056,,,,,,,,,,,,,,,,,,,,,,,,,,749.3056,749.9899,z,1,0.6657,,749.9899,749.99,,0,270,270,200,1,201,duşın,,,,,5,harmonic,1.9,nw,z,,,,,,,
,,,,,,,,,,,,001,2023-11-08_06h59.34.405,vowel_harmony,2023.2.3,MacIntel,59.99880002,749.9907,750.9906,,,,,,,,,,,,,,,,,,,,,,,,,,750.9906,751.7375,z,1,0.73,,751.7375,751.7376,,0,271,271,246,1,247,orkın,,,,,5,harmonic,1.9,nw,z,,,,,,,
,,,,,,,,,,,,001,2023-11-08_06h59.34.405,vowel_harmony,2023.2.3,MacIntel,59.99880002,751.7382,752.7379,,,,,,,,,,,,,,,,,,,,,,,,,,752.7379,753.5231,z,1,0.7664,,753.5231,753.5233,,0,272,272,316,1,317,misaf,,,,,5,notharmonic,1.85,nw,z,,,,,,,
,,,,,,,,,,,,001,2023-11-08_06h59.34.405,vowel_harmony,2023.2.3,MacIntel,59.99880002,753.5237,754.5237,,,,,,,,,,,,,,,,,,,,,,,,,,754.5237,755.1381,z,1,0.5942,,755.1381,755.1382,,0,273,273,305,1,306,tamü,,,,,4,notharmonic,1.75,nw,z,,,,,,,
,,,,,,,,,,,,001,2023-11-08_06h59.34.405,vowel_harmony,2023.2.3,MacIntel,59.99880002,755.1387,756.138,,,,,,,,,,,,,,,,,,,,,,,,,,756.138,756.8045,z,1,0.6509,,756.8045,756.8045,,0,274,274,258,1,259,karıha,,,,,6,harmonic,1.75,nw,z,,,,,,,
,,,,,,,,,,,,001,2023-11-08_06h59.34.405,vowel_harmony,2023.2.3,MacIntel,59.99880002,756.8047,757.8072,,,,,,,,,,,,,,,,,,,,,,,,,,757.8074,759.1874,m,1,1.3685,,759.1875,759.1875,,0,275,275,159,1,160,vakit,3476,157.9357,3298,0.3605,5,notharmonic,1.65,word,m,,,,,,,
,,,,,,,,,,,,001,2023-11-08_06h59.34.405,vowel_harmony,2023.2.3,MacIntel,59.99880002,759.1887,760.1898,,,,,,,,,,,,,,,,,,,,,,,,,,760.1898,761.3216,m,1,1.1169,,761.3216,761.3217,,0,276,276,95,1,96,takip,4996,226.9984,4651,0.5084,5,notharmonic,1.55,word,m,,,,,,,
,,,,,,,,,,,,001,2023-11-08_06h59.34.405,vowel_harmony,2023.2.3,MacIntel,59.99880002,761.3225,762.3247,,,,,,,,,,,,,,,,,,,,,,,,,,762.3248,762.9902,m,1,0.6474,,762.9902,762.9909,,0,277,277,93,1,94,siyah,2944,133.7637,2527,0.2763,5,notharmonic,1.6,word,m,,,,,,,
,,,,,,,,,,,,001,2023-11-08_06h59.34.405,vowel_harmony,2023.2.3,MacIntel,59.99880002,762.9913,763.9912,,,,,,,,,,,,,,,,,,,,,,,,,,763.9912,764.688,z,1,0.6805,,764.6881,764.6886,,0,278,278,219,1,220,barlum,,,,,6,harmonic,1.9,nw,z,,,,,,,
,,,,,,,,,,,,001,2023-11-08_06h59.34.405,vowel_harmony,2023.2.3,MacIntel,59.99880002,764.689,765.6899,,,,,,,,,,,,,,,,,,,,,,,,,,765.69,766.4071,m,1,0.6982,,766.4071,766.4073,,0,279,279,154,1,155,sakin,1855,84.2838,1635,0.1787,5,notharmonic,1.05,word,m,,,,,,,
,,,,,,,,,,,,001,2023-11-08_06h59.34.405,vowel_harmony,2023.2.3,MacIntel,59.99880002,766.4079,767.4056,,,,,,,,,,,,,,,,,,,,,,,,,,767.4057,768.2874,z,1,0.8664,,768.2875,768.2876,,0,280,280,208,1,209,yayram,,,,,6,harmonic,1.85,nw,z,,,,,,,
,,,,,,,,,,,,001,2023-11-08_06h59.34.405,vowel_harmony,2023.2.3,MacIntel,59.99880002,768.2881,769.2899,,,,,,,,,,,,,,,,,,,,,,,,,,769.29,770.0416,z,1,0.7369,,770.0416,770.0418,,0,281,281,181,1,182,rapkı,,,,,5,harmonic,1.85,nw,z,,,,,,,
,,,,,,,,,,,,001,2023-11-08_06h59.34.405,vowel_harmony,2023.2.3,MacIntel,59.99880002,770.0422,771.0394,,,,,,,,,,,,,,,,,,,,,,,,,,771.0394,771.7239,m,1,0.6708,,771.7239,771.724,,0,282,282,106,1,107,esnaf,315,14.3124,284,0.031,5,notharmonic,1.55,word,m,,,,,,,
,,,,,,,,,,,,001,2023-11-08_06h59.34.405,vowel_harmony,2023.2.3,MacIntel,59.99880002,771.7245,772.722,,,,,,,,,,,,,,,,,,,,,,,,,,772.722,773.3407,m,1,0.5977,,773.3407,773.3408,,0,283,283,156,1,157,medya,1784,81.0579,1495,0.1634,5,notharmonic,1.35,word,m,,,,,,,
,,,,,,,,,,,,001,2023-11-08_06h59.34.405,vowel_harmony,2023.2.3,MacIntel,59.99880002,773.3412,774.3403,,,,,,,,,,,,,,,,,,,,,,,,,,774.3403,774.9227,m,1,0.5644,,774.9227,774.9228,,0,284,284,28,1,29,parlak,1142,51.888,1088,0.1189,6,harmonic,1.7,word,m,,,,,,,
,,,,,,,,,,,,001,2023-11-08_06h59.34.405,vowel_harmony,2023.2.3,MacIntel,59.99880002,774.9232,775.9233,,,,,,,,,,,,,,,,,,,,,,,,,,775.9233,776.2554,m,0,0.3183,,776.2554,776.2556,,0,285,285,341,1,342,işgan,,,,,5,notharmonic,1.95,nw,z,,,,,,,
,,,,,,,,,,,,001,2023-11-08_06h59.34.405,vowel_harmony,2023.2.3,MacIntel,59.99880002,776.2559,777.256,,,,,,,,,,,,,,,,,,,,,,,,,,777.2561,778.0225,z,1,0.7446,,778.0225,778.0226,,0,286,286,182,1,183,orsın,,,,,5,harmonic,1.95,nw,z,,,,,,,
,,,,,,,,,,,,001,2023-11-08_06h59.34.405,vowel_harmony,2023.2.3,MacIntel,59.99880002,778.023,779.0225,,,,,,,,,,,,,,,,,,,,,,,,,,779.0225,779.7744,z,1,0.7313,,779.7745,779.7745,,0,287,287,253,1,254,meslet,,,,,6,harmonic,1.85,nw,z,,,,,,,
,,,,,,,,,,,,001,2023-11-08_06h59.34.405,vowel_harmony,2023.2.3,MacIntel,59.99880002,779.775,780.774,,,,,,,,,,,,,,,,,,,,,,,,,,780.774,781.3896,z,1,0.5974,,781.3897,781.3898,,0,288,288,352,1,353,yılden,,,,,6,notharmonic,1.8,nw,z,,,,,,,
,,,,,,,,,,,,001,2023-11-08_06h59.34.405,vowel_harmony,2023.2.3,MacIntel,59.99880002,781.3902,782.3891,,,,,,,,,,,,,,,,,,,,,,,,,,782.3891,783.8906,z,0,1.4849,,783.8907,783.8908,,0,289,289,94,1,95,final,876,39.802,778,0.0851,5,notharmonic,1,word,m,,,,,,,
,,,,,,,,,,,,001,2023-11-08_06h59.34.405,vowel_harmony,2023.2.3,MacIntel,59.99880002,783.9035,784.917,,,,,,,,,,,,,,,,,,,,,,,,,,784.917,785.8249,z,1,0.882,,785.8254,785.8256,,0,290,290,347,1,348,tekram,,,,,6,notharmonic,1.95,nw,z,,,,,,,
,,,,,,,,,,,,001,2023-11-08_06h59.34.405,vowel_harmony,2023.2.3,MacIntel,59.99880002,785.826,786.8226,,,,,,,,,,,,,,,,,,,,,,,,,,786.8227,787.508,z,1,0.6719,,787.508,787.508,,0,291,291,260,1,261,yarlam,,,,,6,harmonic,1.75,nw,z,,,,,,,
,,,,,,,,,,,,001,2023-11-08_06h59.34.405,vowel_harmony,2023.2.3,MacIntel,59.99880002,787.5084,788.5062,,,,,,,,,,,,,,,,,,,,,,,,,,788.5062,789.1569,z,1,0.6366,,789.157,789.1571,,0,292,292,267,1,268,nokuma,,,,,6,harmonic,1.75,nw,z,,,,,,,
,,,,,,,,,,,,001,2023-11-08_06h59.34.405,vowel_harmony,2023.2.3,MacIntel,59.99880002,789.1575,790.1586,,,,,,,,,,,,,,,,,,,,,,,,,,790.1586,790.7588,z,1,0.5801,,790.7589,790.759,,0,293,293,288,1,289,molit,,,,,5,notharmonic,1.95,nw,z,,,,,,,
,,,,,,,,,,,,001,2023-11-08_06h59.34.405,vowel_harmony,2023.2.3,MacIntel,59.99880002,790.7595,791.7575,,,,,,,,,,,,,,,,,,,,,,,,,,791.7575,792.4899,m,1,0.7117,,792.4899,792.49,,0,294,294,75,1,76,roman,1499,68.1086,1281,0.14,5,harmonic,1.6,word,m,,,,,,,
,,,,,,,,,,,,001,2023-11-08_06h59.34.405,vowel_harmony,2023.2.3,MacIntel,59.99880002,792.491,793.4928,,,,,,,,,,,,,,,,,,,,,,,,,,793.4929,794.1426,m,1,0.6319,,794.1426,794.1427,,0,295,295,20,1,21,nefes,2871,130.4469,2553,0.2791,5,harmonic,1.8,word,m,,,,,,,
,,,,,,,,,,,,001,2023-11-08_06h59.34.405,vowel_harmony,2023.2.3,MacIntel,59.99880002,794.1431,795.1403,,,,,,,,,,,,,,,,,,,,,,,,,,795.1403,795.7417,m,1,0.586,,795.7417,795.742,,0,296,296,60,1,61,doğu,2105,95.6429,1823,0.1993,4,harmonic,1.05,word,m,,,,,,,
,,,,,,,,,,,,001,2023-11-08_06h59.34.405,vowel_harmony,2023.2.3,MacIntel,59.99880002,795.7424,796.7431,,,,,,,,,,,,,,,,,,,,,,,,,,796.7431,797.5739,z,1,0.8135,,797.5739,797.574,,0,297,297,238,1,239,kocı,,,,,4,harmonic,1.95,nw,z,,,,,,,
,,,,,,,,,,,,001,2023-11-08_06h59.34.405,vowel_harmony,2023.2.3,MacIntel,59.99880002,797.5747,798.5756,,,,,,,,,,,,,,,,,,,,,,,,,,798.5756,799.2265,m,1,0.6329,,799.2266,799.2267,,0,298,298,40,1,41,tepki,1695,77.0141,1578,0.1725,5,harmonic,1.55,word,m,,,,,,,
,,,,,,,,,,,,001,2023-11-08_06h59.34.405,vowel_harmony,2023.2.3,MacIntel,59.99880002,799.2271,800.2265,,,,,,,,,,,,,,,,,,,,,,,,,,800.2265,800.8418,m,1,0.6009,,800.8418,800.8419,,0,299,299,116,1,117,daire,621,28.2158,503,0.055,5,notharmonic,1,word,m,,,,,,,
,,,,,,,,,,,,001,2023-11-08_06h59.34.405,vowel_harmony,2023.2.3,MacIntel,59.99880002,800.8422,801.8441,,,,,,,,,,,,,,,,,,,,,,,,,,801.8441,802.4909,m,1,0.624,,802.491,802.4911,,0,300,300,53,1,54,gelir,7578,344.3143,7014,0.7668,5,harmonic,1.4,word,m,,,,,,,
,,,,,,,,,,,,001,2023-11-08_06h59.34.405,vowel_harmony,2023.2.3,MacIntel,59.99880002,802.4915,803.4945,,,,,,,,,,,,,,,,,,,,,,,,,,803.4945,804.0407,m,1,0.5271,,804.0408,804.0409,,0,301,301,22,1,23,anlam,1730,78.6043,1617,0.1768,5,harmonic,1.25,word,m,,,,,,,
,,,,,,,,,,,,001,2023-11-08_06h59.34.405,vowel_harmony,2023.2.3,MacIntel,59.99880002,804.0413,805.0419,,,,,,,,,,,,,,,,,,,,,,,,,,805.042,805.7086,z,1,0.6522,,805.7087,805.7087,,0,302,302,220,1,221,denbi,,,,,5,harmonic,1.75,nw,z,,,,,,,
,,,,,,,,,,,,001,2023-11-08_06h59.34.405,vowel_harmony,2023.2.3,MacIntel,59.99880002,805.7089,806.7103,,,,,,,,,,,,,,,,,,,,,,,,,,806.7103,807.2405,z,1,0.5136,,807.2406,807.2407,,0,303,303,227,1,228,zekö,,,,,4,harmonic,1.9,nw,z,,,,,,,
,,,,,,,,,,,,001,2023-11-08_06h59.34.405,vowel_harmony,2023.2.3,MacIntel,59.99880002,807.2415,808.2431,,,,,,,,,,,,,,,,,,,,,,,,,,808.2431,809.3741,m,1,1.1159,,809.3742,809.3743,,0,304,304,90,1,91,tarif,2834,128.7657,2611,0.2854,5,notharmonic,1.5,word,m,,,,,,,
,,,,,,,,,,,,001,2023-11-08_06h59.34.405,vowel_harmony,2023.2.3,MacIntel,59.99880002,809.3747,810.3737,,,,,,,,,,,,,,,,,,,,,,,,,,810.3738,811.0935,m,1,0.7,,811.0936,811.0937,,0,305,305,69,1,70,forma,719,32.6685,597,0.0653,5,harmonic,1.8,word,m,,,,,,,
,,,,,,,,,,,,001,2023-11-08_06h59.34.405,vowel_harmony,2023.2.3,MacIntel,59.99880002,811.0946,812.0924,,,,,,,,,,,,,,,,,,,,,,,,,,812.0924,813.1254,m,1,1.0197,,813.1254,813.1257,,0,306,306,121,1,122,mesaj,1604,72.8794,1386,0.1515,5,notharmonic,1.8,word,m,,,,,,,
,,,,,,,,,,,,001,2023-11-08_06h59.34.405,vowel_harmony,2023.2.3,MacIntel,59.99880002,813.1265,814.1246,,,,,,,,,,,,,,,,,,,,,,,,,,814.1246,814.9426,z,1,0.8022,,814.9427,814.9428,,0,307,307,287,1,288,haköm,,,,,5,notharmonic,1.9,nw,z,,,,,,,
,,,,,,,,,,,,001,2023-11-08_06h59.34.405,vowel_harmony,2023.2.3,MacIntel,59.99880002,814.9435,815.9407,,,,,,,,,,,,,,,,,,,,,,,,,,815.9407,817.0451,z,1,1.087,,817.0451,817.0452,,0,308,308,331,1,332,ehun,,,,,4,notharmonic,1.95,nw,z,,,,,,,
,,,,,,,,,,,,001,2023-11-08_06h59.34.405,vowel_harmony,2023.2.3,MacIntel,59.99880002,817.0457,818.042,,,,,,,,,,,,,,,,,,,,,,,,,,818.0421,818.7418,z,1,0.6795,,818.7418,818.7419,,0,309,309,264,1,265,vepü,,,,,4,harmonic,2,nw,z,,,,,,,
,,,,,,,,,,,,001,2023-11-08_06h59.34.405,vowel_harmony,2023.2.3,MacIntel,59.99880002,818.7423,819.743,,,,,,,,,,,,,,,,,,,,,,,,,,819.7431,820.608,z,1,0.8464,,820.6081,820.6082,,0,310,310,196,1,197,bilön,,,,,5,harmonic,1.9,nw,z,,,,,,,
,,,,,,,,,,,,001,2023-11-08_06h59.34.405,vowel_harmony,2023.2.3,MacIntel,59.99880002,820.6086,821.6142,,,,,,,,,,,,,,,,,,,,,,,,,,821.6142,822.2932,m,1,0.6661,,822.2933,822.2935,,0,311,311,51,1,52,ilginç,2803,127.3572,2690,0.2941,6,harmonic,1.8,word,m,,,,,,,
,,,,,,,,,,,,001,2023-11-08_06h59.34.405,vowel_harmony,2023.2.3,MacIntel,59.99880002,822.2939,823.2955,,,,,,,,,,,,,,,,,,,,,,,,,,823.2955,823.9097,z,1,0.5988,,823.9097,823.9101,,0,312,312,211,1,212,yarum,,,,,5,harmonic,1.75,nw,z,,,,,,,
,,,,,,,,,,,,001,2023-11-08_06h59.34.405,vowel_harmony,2023.2.3,MacIntel,59.99880002,823.9104,824.9089,,,,,,,,,,,,,,,,,,,,,,,,,,824.9089,825.56,m,1,0.6309,,825.56,825.56,,0,313,313,179,1,180,dakika,5891,267.6637,5207,0.5692,6,notharmonic,1.75,word,m,,,,,,,
,,,,,,,,,,,,001,2023-11-08_06h59.34.405,vowel_harmony,2023.2.3,MacIntel,59.99880002,825.5605,826.5609,,,,,,,,,,,,,,,,,,,,,,,,,,826.5609,827.0595,m,1,0.4808,,827.0595,827.0596,,0,314,314,76,1,77,ilişki,1675,76.1054,1524,0.1666,6,harmonic,1.8,word,m,,,,,,,
,,,,,,,,,,,,001,2023-11-08_06h59.34.405,vowel_harmony,2023.2.3,MacIntel,59.99880002,827.0602,828.0619,,,,,,,,,,,,,,,,,,,,,,,,,,828.062,828.6423,m,1,0.5636,,828.6423,828.6429,,0,315,315,177,1,178,tekrar,10788,490.1639,9352,1.0224,6,notharmonic,1.85,word,m,,,,,,,
,,,,,,,,,,,,001,2023-11-08_06h59.34.405,vowel_harmony,2023.2.3,MacIntel,59.99880002,828.6434,829.6342,,,,,,,,,,,,,,,,,,,,,,,,,,829.6342,830.1284,m,1,0.4793,,830.1285,830.1292,,0,316,316,178,1,179,dikkat,6230,283.0665,5888,0.6437,6,notharmonic,2.05,word,m,,,,,,,
,,,,,,,,,,,,001,2023-11-08_06h59.34.405,vowel_harmony,2023.2.3,MacIntel,59.99880002,830.1299,831.1275,,,,,,,,,,,,,,,,,,,,,,,,,,831.1276,831.6954,m,1,0.5479,,831.6954,831.696,,0,317,317,81,1,82,üretim,1593,72.3796,1283,0.1403,6,harmonic,1.6,word,m,,,,,,,
,,,,,,,,,,,,001,2023-11-08_06h59.34.405,vowel_harmony,2023.2.3,MacIntel,59.99880002,831.6965,832.6943,,,,,,,,,,,,,,,,,,,,,,,,,,832.6943,833.3444,z,1,0.6336,,833.3444,833.3446,,0,318,318,284,1,285,deval,,,,,5,notharmonic,1.75,nw,z,,,,,,,
,,,,,,,,,,,,001,2023-11-08_06h59.34.405,vowel_harmony,2023.2.3,MacIntel,59.99880002,833.3456,834.3457,,,,,,,,,,,,,,,,,,,,,,,,,,834.3457,834.9619,z,1,0.5971,,834.9619,834.9621,,0,319,319,190,1,191,reklen,,,,,6,harmonic,1.8,nw,z,,,,,,,
,,,,,,,,,,,,001,2023-11-08_06h59.34.405,vowel_harmony,2023.2.3,MacIntel,59.99880002,834.9629,835.9621,,,,,,,,,,,,,,,,,,,,,,,,,,835.9621,836.6116,z,1,0.6293,,836.6116,836.6117,,0,320,320,210,1,211,şevci,,,,,5,harmonic,1.75,nw,z,,,,,,,
,,,,,,,,,,,,001,2023-11-08_06h59.34.405,vowel_harmony,2023.2.3,MacIntel,59.99880002,836.6127,837.6096,,,,,,,,,,,,,,,,,,,,,,,,,,837.6096,838.2289,z,1,0.6033,,838.229,838.2296,,0,321,321,348,1,349,aife,,,,,4,notharmonic,1.75,nw,z,,,,,,,
,,,,,,,,,,,,001,2023-11-08_06h59.34.405,vowel_harmony,2023.2.3,MacIntel,59.99880002,838.23,839.228,,,,,,,,,,,,,,,,,,,,,,,,,,839.228,839.8283,z,1,0.5816,,839.8284,839.8284,,0,322,322,304,1,305,annö,,,,,4,notharmonic,1.95,nw,z,,,,,,,
,,,,,,,,,,,,001,2023-11-08_06h59.34.405,vowel_harmony,2023.2.3,MacIntel,59.99880002,839.8289,840.8271,,,,,,,,,,,,,,,,,,,,,,,,,,840.8271,841.4267,z,0,0.5855,,841.4267,841.4268,,0,323,323,26,1,27,sebze,1094,49.707,961,0.1051,5,harmonic,1.9,word,m,,,,,,,
,,,,,,,,,,,,001,2023-11-08_06h59.34.405,vowel_harmony,2023.2.3,MacIntel,59.99880002,841.427,842.4295,,,,,,,,,,,,,,,,,,,,,,,,,,842.4295,843.0446,z,1,0.6019,,843.0447,843.0448,,0,324,324,195,1,196,netüm,,,,,5,harmonic,1.95,nw,z,,,,,,,
,,,,,,,,,,,,001,2023-11-08_06h59.34.405,vowel_harmony,2023.2.3,MacIntel,59.99880002,843.045,844.0458,,,,,,,,,,,,,,,,,,,,,,,,,,844.0458,844.5945,z,1,0.5312,,844.5945,844.5946,,0,325,325,185,1,186,örtin,,,,,5,harmonic,1.9,nw,z,,,,,,,
,,,,,,,,,,,,001,2023-11-08_06h59.34.405,vowel_harmony,2023.2.3,MacIntel,59.99880002,844.5954,845.5967,,,,,,,,,,,,,,,,,,,,,,,,,,845.5967,846.3464,m,1,0.7316,,846.3464,846.347,,0,326,326,1,1,2,erkek,6188,281.1582,5195,0.5679,5,harmonic,1.65,word,m,,,,,,,
,,,,,,,,,,,,001,2023-11-08_06h59.34.405,vowel_harmony,2023.2.3,MacIntel,59.99880002,846.3475,847.346,,,,,,,,,,,,,,,,,,,,,,,,,,847.346,847.8943,m,1,0.5344,,847.8943,847.8944,,0,327,327,148,1,149,selam,1868,84.8745,1764,0.1928,5,notharmonic,1.35,word,m,,,,,,,
,,,,,,,,,,,,001,2023-11-08_06h59.34.405,vowel_harmony,2023.2.3,MacIntel,59.99880002,847.8947,848.8961,,,,,,,,,,,,,,,,,,,,,,,,,,848.8961,849.682,z,1,0.7661,,849.6821,849.6821,,0,328,328,226,1,227,tefem,,,,,5,harmonic,1.75,nw,z,,,,,,,
,,,,,,,,,,,,001,2023-11-08_06h59.34.405,vowel_harmony,2023.2.3,MacIntel,59.99880002,849.6824,850.6771,,,,,,,,,,,,,,,,,,,,,,,,,,850.6771,851.3277,z,1,0.6386,,851.3278,851.3279,,0,329,329,349,1,350,harten,,,,,6,notharmonic,1.85,nw,z,,,,,,,
,,,,,,,,,,,,001,2023-11-08_06h59.34.405,vowel_harmony,2023.2.3,MacIntel,59.99880002,851.3283,852.33,,,,,,,,,,,,,,,,,,,,,,,,,,852.33,852.9135,z,1,0.57,,852.9135,852.9136,,0,330,330,201,1,202,ergiy,,,,,5,harmonic,1.85,nw,z,,,,,,,
,,,,,,,,,,,,001,2023-11-08_06h59.34.405,vowel_harmony,2023.2.3,MacIntel,59.99880002,852.9139,853.9105,,,,,,,,,,,,,,,,,,,,,,,,,,853.9105,854.4455,z,1,0.5173,,854.4455,854.4455,,0,331,331,322,1,323,normin,,,,,6,notharmonic,1.95,nw,z,,,,,,,
,,,,,,,,,,,,001,2023-11-08_06h59.34.405,vowel_harmony,2023.2.3,MacIntel,59.99880002,854.446,855.4434,,,,,,,,,,,,,,,,,,,,,,,,,,855.4436,856.5119,z,1,1.0503,,856.5119,856.512,,0,332,332,286,1,287,cedan,,,,,5,notharmonic,1.8,nw,z,,,,,,,
,,,,,,,,,,,,001,2023-11-08_06h59.34.405,vowel_harmony,2023.2.3,MacIntel,59.99880002,856.5127,857.5139,,,,,,,,,,,,,,,,,,,,,,,,,,857.5139,858.0958,m,1,0.5614,,858.0958,858.0959,,0,333,333,57,1,58,bölüm,1910,86.7828,1605,0.1755,5,harmonic,1.45,word,m,,,,,,,
,,,,,,,,,,,,001,2023-11-08_06h59.34.405,vowel_harmony,2023.2.3,MacIntel,59.99880002,858.0962,859.0942,,,,,,,,,,,,,,,,,,,,,,,,,,859.0942,859.6768,z,1,0.5644,,859.6768,859.6769,,0,334,334,206,1,207,bevek,,,,,5,harmonic,1.75,nw,z,,,,,,,
,,,,,,,,,,,,001,2023-11-08_06h59.34.405,vowel_harmony,2023.2.3,MacIntel,59.99880002,859.678,860.6785,,,,,,,,,,,,,,,,,,,,,,,,,,860.6787,861.3471,m,1,0.6575,,861.3471,861.3472,,0,335,335,42,1,43,ürün,2268,103.0489,1954,0.2136,4,harmonic,1.1,word,m,,,,,,,
,,,,,,,,,,,,001,2023-11-08_06h59.34.405,vowel_harmony,2023.2.3,MacIntel,59.99880002,861.3479,862.3447,,,,,,,,,,,,,,,,,,,,,,,,,,862.3447,862.9784,m,1,0.6181,,862.9785,862.9786,,0,336,336,65,1,66,fikir,2552,115.9528,2413,0.2638,5,harmonic,1.9,word,m,,,,,,,
,,,,,,,,,,,,001,2023-11-08_06h59.34.405,vowel_harmony,2023.2.3,MacIntel,59.99880002,862.9789,863.9815,,,,,,,,,,,,,,,,,,,,,,,,,,863.9816,864.4107,m,1,0.4131,,864.4107,864.4111,,0,337,337,131,1,132,hakim,1677,76.1962,1559,0.1704,5,notharmonic,1,word,m,,,,,,,
,,,,,,,,,,,,001,2023-11-08_06h59.34.405,vowel_harmony,2023.2.3,MacIntel,59.99880002,864.4113,865.4126,,,,,,,,,,,,,,,,,,,,,,,,,,865.4127,866.0456,m,1,0.6137,,866.0456,866.0457,,0,338,338,157,1,158,aktif,1062,48.2531,986,0.1078,5,notharmonic,1.9,word,m,,,,,,,
,,,,,,,,,,,,001,2023-11-08_06h59.34.405,vowel_harmony,2023.2.3,MacIntel,59.99880002,866.046,867.0465,,,,,,,,,,,,,,,,,,,,,,,,,,867.0465,867.5629,m,1,0.4962,,867.563,867.563,,0,339,339,89,1,90,etki,1234,56.0681,1169,0.1278,4,harmonic,1.4,word,m,,,,,,,
,,,,,,,,,,,,001,2023-11-08_06h59.34.405,vowel_harmony,2023.2.3,MacIntel,59.99880002,867.5633,868.5636,,,,,,,,,,,,,,,,,,,,,,,,,,868.5637,869.1457,m,1,0.5682,,869.1457,869.1458,,0,340,340,45,1,46,bilgi,5981,271.7529,5353,0.5852,5,harmonic,1.5,word,m,,,,,,,
,,,,,,,,,,,,001,2023-11-08_06h59.34.405,vowel_harmony,2023.2.3,MacIntel,59.99880002,869.146,870.1482,,,,,,,,,,,,,,,,,,,,,,,,,,870.1482,870.8117,z,1,0.6468,,870.8117,870.812,,0,341,341,257,1,258,zerü,,,,,4,harmonic,1.8,nw,z,,,,,,,
,,,,,,,,,,,,001,2023-11-08_06h59.34.405,vowel_harmony,2023.2.3,MacIntel,59.99880002,870.8126,871.8136,,,,,,,,,,,,,,,,,,,,,,,,,,871.8137,872.7301,z,1,0.9025,,872.7301,872.7302,,0,342,342,280,1,281,adalek,,,,,6,notharmonic,1.85,nw,z,,,,,,,
,,,,,,,,,,,,001,2023-11-08_06h59.34.405,vowel_harmony,2023.2.3,MacIntel,59.99880002,872.7304,873.7342,,,,,,,,,,,,,,,,,,,,,,,,,,873.7342,874.3459,m,1,0.5987,,874.346,874.3461,,0,343,343,104,1,105,cevap,5232,237.7213,4822,0.5271,5,notharmonic,1.85,word,m,,,,,,,
,,,,,,,,,,,,001,2023-11-08_06h59.34.405,vowel_harmony,2023.2.3,MacIntel,59.99880002,874.3465,875.3448,,,,,,,,,,,,,,,,,,,,,,,,,,875.3449,876.0966,z,1,0.7396,,876.0967,876.0968,,0,344,344,354,1,355,taden,,,,,5,notharmonic,1.7,nw,z,,,,,,,
,,,,,,,,,,,,001,2023-11-08_06h59.34.405,vowel_harmony,2023.2.3,MacIntel,59.99880002,876.0972,877.0962,,,,,,,,,,,,,,,,,,,,,,,,,,877.0962,877.996,m,1,0.8797,,877.9961,877.9962,,0,345,345,66,1,67,sanık,768,34.8949,699,0.0764,5,harmonic,1.85,word,m,,,,,,,
,,,,,,,,,,,,001,2023-11-08_06h59.34.405,vowel_harmony,2023.2.3,MacIntel,59.99880002,877.9968,878.999,,,,,,,,,,,,,,,,,,,,,,,,,,878.999,879.5457,z,1,0.5299,,879.5457,879.5458,,0,346,346,296,1,297,işban,,,,,5,notharmonic,1.95,nw,z,,,,,,,
,,,,,,,,,,,,001,2023-11-08_06h59.34.405,vowel_harmony,2023.2.3,MacIntel,59.99880002,879.5461,880.5456,,,,,,,,,,,,,,,,,,,,,,,,,,880.5456,881.0955,m,1,0.53,,881.0955,881.0956,,0,347,347,6,1,7,hayal,4498,204.3713,4079,0.4459,5,harmonic,1.45,word,m,,,,,,,
,,,,,,,,,,,,001,2023-11-08_06h59.34.405,vowel_harmony,2023.2.3,MacIntel,59.99880002,881.0962,882.099,,,,,,,,,,,,,,,,,,,,,,,,,,882.099,882.8644,z,1,0.7462,,882.8644,882.8645,,0,348,348,242,1,243,kahon,,,,,5,harmonic,1.85,nw,z,,,,,,,
,,,,,,,,,,,,001,2023-11-08_06h59.34.405,vowel_harmony,2023.2.3,MacIntel,59.99880002,882.8647,883.8641,,,,,,,,,,,,,,,,,,,,,,,,,,883.8641,884.5636,z,1,0.686,,884.5637,884.5637,,0,349,349,205,1,206,kahay,,,,,5,harmonic,1.9,nw,z,,,,,,,
,,,,,,,,,,,,001,2023-11-08_06h59.34.405,vowel_harmony,2023.2.3,MacIntel,59.99880002,884.5639,885.5644,,,,,,,,,,,,,,,,,,,,,,,,,,885.5644,886.8161,z,1,1.2331,,886.8161,886.8162,,0,350,350,216,1,217,çeyret,,,,,6,harmonic,1.9,nw,z,,,,,,,
,,,,,,,,,,,,001,2023-11-08_06h59.34.405,vowel_harmony,2023.2.3,MacIntel,59.99880002,886.8165,887.8155,,,,,,,,,,,,,,,,,,,,,,,,,,887.8155,888.5136,m,1,0.6832,,888.5137,888.5137,,0,351,351,117,1,118,nasip,1069,48.5711,1042,0.1139,5,notharmonic,1.8,word,m,,,,,,,
,,,,,,,,,,,,001,2023-11-08_06h59.34.405,vowel_harmony,2023.2.3,MacIntel,59.99880002,888.514,889.5139,,,,,,,,,,,,,,,,,,,,,,,,,,889.5139,890.0813,z,1,0.5503,,890.0813,890.0814,,0,352,352,180,1,181,ayaro,,,,,5,harmonic,1.8,nw,z,,,,,,,
,,,,,,,,,,,,001,2023-11-08_06h59.34.405,vowel_harmony,2023.2.3,MacIntel,59.99880002,890.0817,891.0797,,,,,,,,,,,,,,,,,,,,,,,,,,891.0797,892.0801,z,1,0.9842,,892.0801,892.0802,,0,353,353,194,1,195,rayna,,,,,5,harmonic,1.7,nw,z,,,,,,,
,,,,,,,,,,,,001,2023-11-08_06h59.34.405,vowel_harmony,2023.2.3,MacIntel,59.99880002,892.0805,893.0795,,,,,,,,,,,,,,,,,,,,,,,,,,893.0795,893.8799,z,1,0.7867,,893.8799,893.88,,0,354,354,285,1,286,iklon,,,,,5,notharmonic,1.85,nw,z,,,,,,,
,,,,,,,,,,,,001,2023-11-08_06h59.34.405,vowel_harmony,2023.2.3,MacIntel,59.99880002,893.8803,894.8803,,,,,,,,,,,,,,,,,,,,,,,,,,894.8803,895.3629,m,1,0.4728,,895.363,895.3631,,0,355,355,146,1,147,mavi,2206,100.2319,1934,0.2114,4,notharmonic,1.45,word,m,,,,,,,
,,,,,,,,,,,,001,2023-11-08_06h59.34.405,vowel_harmony,2023.2.3,MacIntel,59.99880002,895.3634,896.3656,,,,,,,,,,,,,,,,,,,,,,,,,,896.3657,896.9984,z,1,0.6148,,896.9985,896.9986,,0,356,356,325,1,326,garit,,,,,5,notharmonic,1.85,nw,z,,,,,,,
,,,,,,,,,,,,001,2023-11-08_06h59.34.405,vowel_harmony,2023.2.3,MacIntel,59.99880002,896.999,897.9998,,,,,,,,,,,,,,,,,,,,,,,,,,897.9998,899.2319,z,1,1.2148,,899.232,899.2321,,0,357,357,357,1,358,işarek,,,,,6,notharmonic,1.95,nw,z,,,,,,,
,,,,,,,,,,,,001,2023-11-08_06h59.34.405,vowel_harmony,2023.2.3,MacIntel,59.99880002,899.2324,900.2319,,,,,,,,,,,,,,,,,,,,,,,,,,900.2319,900.8482,m,1,0.5988,,900.8482,900.8483,,0,358,358,129,1,130,tahmin,2353,106.911,2273,0.2485,6,notharmonic,1.6,word,m,,,,,,,
,,,,,,,,,,,,001,2023-11-08_06h59.34.405,vowel_harmony,2023.2.3,MacIntel,59.99880002,900.8488,901.8489,,,,,,,,,,,,,,,,,,,,,,,,,,901.849,902.4979,m,1,0.6295,,902.4979,902.4981,,0,359,359,160,1,161,hakem,603,27.3979,473,0.0517,5,notharmonic,1.3,word,m,,,,,,,
,,,,,,,,,,,,001,2023-11-08_06h59.34.405,vowel_harmony,2023.2.3,MacIntel,59.99880002,,,,,,,,,,,,,,,,,,,,,,,,,,,,,,,,,,,,,,,,,,,,,,,,,,,,,,,902.4988,904.8981,space,2.3843,