Welcome_screen.started,Welcome_screen.stopped,key_respwelcome.keys,key_respwelcome.rt,key_respwelcome.duration,intro_x.thisRepN,intro_x.thisTrialN,intro_x.thisN,intro_x.thisIndex,intro_x.ran,Introduction,participant,session,date,expName,psychopyVersion,OS,frameRate,Fixation.started,Fixation.stopped,Studypractice.started,Studypractice.stopped,key_respstudy.keys,key_respstudy.corr,key_respstudy.rt,key_respstudy.duration,rt,corr,Feedback.started,Feedback.stopped,practice_loop.thisRepN,practice_loop.thisTrialN,practice_loop.thisN,practice_loop.thisIndex,practice_loop.ran,item_nr_p,target_p,isHarmonic_p,target_cond_p,CorrAns_p,Instraction.started,Instraction.stopped,key_respınstraction.keys,key_respınstraction.rt,key_respınstraction.duration,TestTrial.started,TestTrial.stopped,key_respTest.keys,key_respTest.corr,key_respTest.rt,key_respTest.duration,Pause.started,Pause.stopped,key_resp_xx.keys,test_loop.thisRepN,test_loop.thisTrialN,test_loop.thisN,test_loop.thisIndex,test_loop.ran,item_nr,target,BlogFreq_A1,BlogFreqpm_A1,BlogCD_A1,BlogCDPc_A1,WordLength_A1,isHarmonic_A1,old20,target_cond,CorrAns,key_resp_xx.rt,key_resp_xx.duration,Goodbye_screen.started,Goodbye_screen.stopped,key_respgoodbye.keys,key_respgoodbye.rt,key_respgoodbye.duration
0.0127,3.2016,space,3.1719,,0,0,0,0,1,"Deneye hoş geldiniz,

Devam etmek için BOŞLUK tuşuna basınız.",,001,2023-11-09_24h33.37.778,vowel_harmony,2023.2.3,MacIntel,60.0024001,,,,,,,,,,,,,,,,,,,,,,,,,,,,,,,,,,,,,,,,,,,,,,,,,,,,,,,,,,,
3.2022,13.0548,space,9.827,,0,1,1,1,1,"Bu çalışma Valencia Üniversitesi kapsamında yürütülmektedir. Deneydeki göreviniz, ekrana çıkacak Türkçe sözcüklerin kelime olup olmadığını belirlemenizdir. Eğer sözcük gerçek bir kelime ise ""m"" tuşuna, değil ise ""z"" tuşuna basınız.   

Devam etmek için BOŞLUK tuşuna basınız.",,001,2023-11-09_24h33.37.778,vowel_harmony,2023.2.3,MacIntel,60.0024001,,,,,,,,,,,,,,,,,,,,,,,,,,,,,,,,,,,,,,,,,,,,,,,,,,,,,,,,,,,
13.0554,19.4343,space,6.3558,,0,2,2,2,1,"Her sözcük için en fazla iki saniyede cevap vermeniz beklenmektedir. Aksi takdirde deney bir sonraki sözcük ile devam eder. 
Bu çalışmada oldukça hızlı ve doğru cevaplama yapmanız beklenmektedir.

Devam etmek için BOŞLUK tuşuna basınız.",,001,2023-11-09_24h33.37.778,vowel_harmony,2023.2.3,MacIntel,60.0024001,,,,,,,,,,,,,,,,,,,,,,,,,,,,,,,,,,,,,,,,,,,,,,,,,,,,,,,,,,,
19.4347,24.4537,space,4.9973,,0,3,3,3,1,"Çalışmaya başlamadan önce ufak bir pratik yer almaktadır.
Kelimedir: ""m""
Kelime değildir: ""z""

Pratik teste başlamak için BOŞLUK tuşuna basınız. ",,001,2023-11-09_24h33.37.778,vowel_harmony,2023.2.3,MacIntel,60.0024001,,,,,,,,,,,,,,,,,,,,,,,,,,,,,,,,,,,,,,,,,,,,,,,,,,,,,,,,,,,
,,,,,,,,,,,,001,2023-11-09_24h33.37.778,vowel_harmony,2023.2.3,MacIntel,60.0024001,24.4624,25.4522,25.4524,26.7212,z,1,1.2537,,1.2537,1,26.7217,28.2202,0,0,0,13,1,14,pilar,notharmonic,nw,z,,,,,,,,,,,,,,,,,,,,,,,,,,,,,,,,,,,,,
,,,,,,,,,,,,001,2023-11-09_24h33.37.778,vowel_harmony,2023.2.3,MacIntel,60.0024001,28.221,29.2189,29.219,29.4685,z,0,0.2385,,0.2385,0,29.4686,30.9717,0,1,1,7,1,8,oran,harmonic,word,m,,,,,,,,,,,,,,,,,,,,,,,,,,,,,,,,,,,,,
,,,,,,,,,,,,001,2023-11-09_24h33.37.778,vowel_harmony,2023.2.3,MacIntel,60.0024001,30.9723,31.9716,31.9717,32.6186,m,0,0.6304,,0.6304,0,32.6187,34.1193,0,2,2,15,1,16,mımal,harmonic,nw,z,,,,,,,,,,,,,,,,,,,,,,,,,,,,,,,,,,,,,
,,,,,,,,,,,,001,2023-11-09_24h33.37.778,vowel_harmony,2023.2.3,MacIntel,60.0024001,34.1197,35.122,35.1221,35.7857,m,1,0.6528,,0.6528,1,35.7858,37.2841,0,3,3,3,1,4,ihlal,notharmonic,word,m,,,,,,,,,,,,,,,,,,,,,,,,,,,,,,,,,,,,,
,,,,,,,,,,,,001,2023-11-09_24h33.37.778,vowel_harmony,2023.2.3,MacIntel,60.0024001,37.2859,38.2862,38.2863,38.9026,m,1,0.5963,,0.5963,1,38.9027,40.4027,0,4,4,5,1,6,bahçe,notharmonic,word,m,,,,,,,,,,,,,,,,,,,,,,,,,,,,,,,,,,,,,
,,,,,,,,,,,,001,2023-11-09_24h33.37.778,vowel_harmony,2023.2.3,MacIntel,60.0024001,40.4031,41.401,41.4011,41.986,m,0,0.5737,,0.5737,0,41.9861,43.4868,0,5,5,9,1,10,orat,harmonic,nw,z,,,,,,,,,,,,,,,,,,,,,,,,,,,,,,,,,,,,,
,,,,,,,,,,,,001,2023-11-09_24h33.37.778,vowel_harmony,2023.2.3,MacIntel,60.0024001,43.4874,44.4875,44.4876,44.6877,z,0,0.1789,,0.1789,0,44.6877,46.1879,0,6,6,2,1,3,memur,notharmonic,word,m,,,,,,,,,,,,,,,,,,,,,,,,,,,,,,,,,,,,,
,,,,,,,,,,,,001,2023-11-09_24h33.37.778,vowel_harmony,2023.2.3,MacIntel,60.0024001,46.1885,47.1859,47.186,47.7374,m,1,0.5391,,0.5391,1,47.7375,49.2344,0,7,7,6,1,7,pilot,notharmonic,word,m,,,,,,,,,,,,,,,,,,,,,,,,,,,,,,,,,,,,,
,,,,,,,,,,,,001,2023-11-09_24h33.37.778,vowel_harmony,2023.2.3,MacIntel,60.0024001,49.2348,50.238,50.238,50.7702,m,1,0.5121,,0.5121,1,50.7703,52.2694,0,8,8,1,1,2,veri,harmonic,word,m,,,,,,,,,,,,,,,,,,,,,,,,,,,,,,,,,,,,,
,,,,,,,,,,,,001,2023-11-09_24h33.37.778,vowel_harmony,2023.2.3,MacIntel,60.0024001,52.2699,53.2691,53.2692,53.9345,m,1,0.6488,,0.6488,1,53.9345,55.4351,0,9,9,0,1,1,ihale,notharmonic,word,m,,,,,,,,,,,,,,,,,,,,,,,,,,,,,,,,,,,,,
,,,,,,,,,,,,001,2023-11-09_24h33.37.778,vowel_harmony,2023.2.3,MacIntel,60.0024001,55.4354,56.4378,56.4379,57.0191,m,1,0.5727,,0.5727,1,57.0192,58.5208,0,10,10,4,1,5,mimar,notharmonic,word,m,,,,,,,,,,,,,,,,,,,,,,,,,,,,,,,,,,,,,
,,,,,,,,,,,,001,2023-11-09_24h33.37.778,vowel_harmony,2023.2.3,MacIntel,60.0024001,58.5215,59.5201,59.5201,60.1701,z,1,0.6337,,0.6337,1,60.1701,61.6701,0,11,11,12,1,13,ihlot,notharmonic,nw,z,,,,,,,,,,,,,,,,,,,,,,,,,,,,,,,,,,,,,
,,,,,,,,,,,,001,2023-11-09_24h33.37.778,vowel_harmony,2023.2.3,MacIntel,60.0024001,61.6707,62.668,62.668,63.4892,z,1,0.8013,,0.8013,1,63.4893,64.9882,0,12,12,14,1,15,pimer,harmonic,nw,z,,,,,,,,,,,,,,,,,,,,,,,,,,,,,,,,,,,,,
,,,,,,,,,,,,001,2023-11-09_24h33.37.778,vowel_harmony,2023.2.3,MacIntel,60.0024001,64.9885,65.9876,65.9876,66.7367,z,1,0.7306,,0.7306,1,66.7368,68.2359,0,13,13,11,1,12,geki,harmonic,nw,z,,,,,,,,,,,,,,,,,,,,,,,,,,,,,,,,,,,,,
,,,,,,,,,,,,001,2023-11-09_24h33.37.778,vowel_harmony,2023.2.3,MacIntel,60.0024001,68.2364,69.2358,69.2358,69.8705,z,1,0.6233,,0.6233,1,69.8706,71.3675,0,14,14,10,1,11,mahne,notharmonic,nw,z,,,,,,,,,,,,,,,,,,,,,,,,,,,,,,,,,,,,,
,,,,,,,,,,,,001,2023-11-09_24h33.37.778,vowel_harmony,2023.2.3,MacIntel,60.0024001,71.368,72.3689,72.3689,73.1197,z,1,0.7345,,0.7345,1,73.1198,74.622,0,15,15,8,1,9,tahip,notharmonic,nw,z,,,,,,,,,,,,,,,,,,,,,,,,,,,,,,,,,,,,,
,,,,,,,,,,,,001,2023-11-09_24h33.37.778,vowel_harmony,2023.2.3,MacIntel,60.0024001,,,,,,,,,,,,,,,,,,,,,,,74.6231,82.6374,space,7.9924,,,,,,,,,,,,,,,,,,,,,,,,,,,,,,,,,
,,,,,,,,,,,,001,2023-11-09_24h33.37.778,vowel_harmony,2023.2.3,MacIntel,60.0024001,82.677,83.6378,,,,,,,,,,,,,,,,,,,,,,,,,,83.6381,84.4526,m,1,0.7974,,84.4528,84.4544,,0,0,0,66,1,67,sanık,768,34.8949,699,0.0764,5,harmonic,1.85,word,m,,,,,,,
,,,,,,,,,,,,001,2023-11-09_24h33.37.778,vowel_harmony,2023.2.3,MacIntel,60.0024001,84.4549,85.4526,,,,,,,,,,,,,,,,,,,,,,,,,,85.4527,86.2216,z,1,0.755,,86.2217,86.2219,,0,1,1,216,1,217,çeyret,,,,,6,harmonic,1.9,nw,z,,,,,,,
,,,,,,,,,,,,001,2023-11-09_24h33.37.778,vowel_harmony,2023.2.3,MacIntel,60.0024001,86.2223,87.2188,,,,,,,,,,,,,,,,,,,,,,,,,,87.2188,87.8859,m,1,0.6502,,87.886,87.886,,0,2,2,79,1,80,durum,6783,308.1926,6431,0.703,5,harmonic,1.7,word,m,,,,,,,
,,,,,,,,,,,,001,2023-11-09_24h33.37.778,vowel_harmony,2023.2.3,MacIntel,60.0024001,87.8863,88.8849,,,,,,,,,,,,,,,,,,,,,,,,,,88.885,89.4703,m,1,0.5665,,89.4703,89.4704,,0,3,3,20,1,21,nefes,2871,130.4469,2553,0.2791,5,harmonic,1.8,word,m,,,,,,,
,,,,,,,,,,,,001,2023-11-09_24h33.37.778,vowel_harmony,2023.2.3,MacIntel,60.0024001,89.471,90.471,,,,,,,,,,,,,,,,,,,,,,,,,,90.471,91.1207,m,1,0.6343,,91.1207,91.1208,,0,4,4,161,1,162,komik,1617,73.4701,1506,0.1646,5,notharmonic,1.75,word,m,,,,,,,
,,,,,,,,,,,,001,2023-11-09_24h33.37.778,vowel_harmony,2023.2.3,MacIntel,60.0024001,91.1213,92.1194,,,,,,,,,,,,,,,,,,,,,,,,,,92.1194,92.8189,z,1,0.6826,,92.819,92.819,,0,5,5,295,1,296,haylin,,,,,6,notharmonic,1.8,nw,z,,,,,,,
,,,,,,,,,,,,001,2023-11-09_24h33.37.778,vowel_harmony,2023.2.3,MacIntel,60.0024001,92.8195,93.8214,,,,,,,,,,,,,,,,,,,,,,,,,,93.8215,94.4865,z,1,0.6482,,94.4866,94.4868,,0,6,6,305,1,306,tamü,,,,,4,notharmonic,1.75,nw,z,,,,,,,
,,,,,,,,,,,,001,2023-11-09_24h33.37.778,vowel_harmony,2023.2.3,MacIntel,60.0024001,94.4873,95.4882,,,,,,,,,,,,,,,,,,,,,,,,,,95.4883,96.1709,z,1,0.6722,,96.1711,96.1713,,0,7,7,198,1,199,yarbız,,,,,6,harmonic,1.95,nw,z,,,,,,,
,,,,,,,,,,,,001,2023-11-09_24h33.37.778,vowel_harmony,2023.2.3,MacIntel,60.0024001,96.1717,97.1692,,,,,,,,,,,,,,,,,,,,,,,,,,97.1692,97.8692,m,1,0.6854,,97.8693,97.8695,,0,8,8,140,1,141,sahil,481,21.8547,443,0.0484,5,notharmonic,1.45,word,m,,,,,,,
,,,,,,,,,,,,001,2023-11-09_24h33.37.778,vowel_harmony,2023.2.3,MacIntel,60.0024001,97.8698,98.8695,,,,,,,,,,,,,,,,,,,,,,,,,,98.8695,99.519,z,1,0.635,,99.5191,99.5193,,0,9,9,258,1,259,karıha,,,,,6,harmonic,1.75,nw,z,,,,,,,
,,,,,,,,,,,,001,2023-11-09_24h33.37.778,vowel_harmony,2023.2.3,MacIntel,60.0024001,99.5197,100.5183,,,,,,,,,,,,,,,,,,,,,,,,,,100.5184,101.0017,m,1,0.4697,,101.0017,101.0019,,0,10,10,5,1,6,bebek,3301,149.9843,2794,0.3054,5,harmonic,1.6,word,m,,,,,,,
,,,,,,,,,,,,001,2023-11-09_24h33.37.778,vowel_harmony,2023.2.3,MacIntel,60.0024001,101.0022,102.0032,,,,,,,,,,,,,,,,,,,,,,,,,,102.0033,102.5193,m,1,0.4986,,102.5193,102.5194,,0,11,11,148,1,149,selam,1868,84.8745,1764,0.1928,5,notharmonic,1.35,word,m,,,,,,,
,,,,,,,,,,,,001,2023-11-09_24h33.37.778,vowel_harmony,2023.2.3,MacIntel,60.0024001,102.5199,103.5219,,,,,,,,,,,,,,,,,,,,,,,,,,103.5219,104.2031,z,1,0.6648,,104.2032,104.2033,,0,12,12,252,1,253,anlgı,,,,,5,harmonic,1.9,nw,z,,,,,,,
,,,,,,,,,,,,001,2023-11-09_24h33.37.778,vowel_harmony,2023.2.3,MacIntel,60.0024001,104.2037,105.2046,,,,,,,,,,,,,,,,,,,,,,,,,,105.2047,105.8884,z,1,0.6638,,105.8885,105.8885,,0,13,13,342,1,343,kulön,,,,,5,notharmonic,1.9,nw,z,,,,,,,
,,,,,,,,,,,,001,2023-11-09_24h33.37.778,vowel_harmony,2023.2.3,MacIntel,60.0024001,105.8889,106.8885,,,,,,,,,,,,,,,,,,,,,,,,,,106.8885,107.4716,z,1,0.5659,,107.4717,107.4718,,0,14,14,343,1,344,tarne,,,,,5,notharmonic,1.85,nw,z,,,,,,,
,,,,,,,,,,,,001,2023-11-09_24h33.37.778,vowel_harmony,2023.2.3,MacIntel,60.0024001,107.4725,108.4683,,,,,,,,,,,,,,,,,,,,,,,,,,108.4683,109.0867,z,1,0.5998,,109.0868,109.087,,0,15,15,236,1,237,toklam,,,,,6,harmonic,1.85,nw,z,,,,,,,
,,,,,,,,,,,,001,2023-11-09_24h33.37.778,vowel_harmony,2023.2.3,MacIntel,60.0024001,109.0873,110.0864,,,,,,,,,,,,,,,,,,,,,,,,,,110.0864,110.5522,m,1,0.4477,,110.5522,110.5524,,0,16,16,9,1,10,karar,8108,368.3954,7436,0.8129,5,harmonic,1.6,word,m,,,,,,,
,,,,,,,,,,,,001,2023-11-09_24h33.37.778,vowel_harmony,2023.2.3,MacIntel,60.0024001,110.5526,111.5512,,,,,,,,,,,,,,,,,,,,,,,,,,111.5512,112.1054,z,1,0.5355,,112.1055,112.1056,,0,17,17,192,1,193,vecö,,,,,4,harmonic,1.95,nw,z,,,,,,,
,,,,,,,,,,,,001,2023-11-09_24h33.37.778,vowel_harmony,2023.2.3,MacIntel,60.0024001,112.1061,113.1036,,,,,,,,,,,,,,,,,,,,,,,,,,113.1036,113.6352,m,1,0.5168,,113.6353,113.6354,,0,18,18,47,1,48,kaza,740,33.6227,679,0.0742,4,harmonic,1.85,word,m,,,,,,,
,,,,,,,,,,,,001,2023-11-09_24h33.37.778,vowel_harmony,2023.2.3,MacIntel,60.0024001,113.6359,114.6369,,,,,,,,,,,,,,,,,,,,,,,,,,114.637,115.2708,m,1,0.6167,,115.2709,115.271,,0,19,19,131,1,132,hakim,1677,76.1962,1559,0.1704,5,notharmonic,1,word,m,,,,,,,
,,,,,,,,,,,,001,2023-11-09_24h33.37.778,vowel_harmony,2023.2.3,MacIntel,60.0024001,115.2716,116.2695,,,,,,,,,,,,,,,,,,,,,,,,,,116.2695,116.8184,m,1,0.533,,116.8185,116.8186,,0,20,20,85,1,86,geçmiş,4195,190.6042,4039,0.4415,6,harmonic,1.55,word,m,,,,,,,
,,,,,,,,,,,,001,2023-11-09_24h33.37.778,vowel_harmony,2023.2.3,MacIntel,60.0024001,116.819,117.8204,,,,,,,,,,,,,,,,,,,,,,,,,,117.8204,118.5552,z,1,0.7141,,118.5552,118.5553,,0,21,21,312,1,313,şahmin,,,,,6,notharmonic,1.8,nw,z,,,,,,,
,,,,,,,,,,,,001,2023-11-09_24h33.37.778,vowel_harmony,2023.2.3,MacIntel,60.0024001,118.556,119.553,,,,,,,,,,,,,,,,,,,,,,,,,,119.553,120.3544,z,1,0.7831,,120.3544,120.3545,,0,22,22,208,1,209,yayram,,,,,6,harmonic,1.85,nw,z,,,,,,,
,,,,,,,,,,,,001,2023-11-09_24h33.37.778,vowel_harmony,2023.2.3,MacIntel,60.0024001,120.355,121.3522,,,,,,,,,,,,,,,,,,,,,,,,,,121.3524,121.8036,m,1,0.4406,,121.8037,121.8038,,0,23,23,62,1,63,cümle,1911,86.8283,1765,0.193,5,harmonic,1.85,word,m,,,,,,,
,,,,,,,,,,,,001,2023-11-09_24h33.37.778,vowel_harmony,2023.2.3,MacIntel,60.0024001,121.8042,122.805,,,,,,,,,,,,,,,,,,,,,,,,,,122.805,123.2877,m,1,0.4657,,123.2877,123.2879,,0,24,24,26,1,27,sebze,1094,49.707,961,0.1051,5,harmonic,1.9,word,m,,,,,,,
,,,,,,,,,,,,001,2023-11-09_24h33.37.778,vowel_harmony,2023.2.3,MacIntel,60.0024001,123.2882,124.2882,,,,,,,,,,,,,,,,,,,,,,,,,,124.2882,124.7723,m,1,0.4661,,124.7724,124.7728,,0,25,25,115,1,116,saniye,1088,49.4344,984,0.1076,6,notharmonic,1.35,word,m,,,,,,,
,,,,,,,,,,,,001,2023-11-09_24h33.37.778,vowel_harmony,2023.2.3,MacIntel,60.0024001,124.7733,125.7712,,,,,,,,,,,,,,,,,,,,,,,,,,125.7712,126.3538,m,1,0.5641,,126.3539,126.354,,0,26,26,117,1,118,nasip,1069,48.5711,1042,0.1139,5,notharmonic,1.8,word,m,,,,,,,
,,,,,,,,,,,,001,2023-11-09_24h33.37.778,vowel_harmony,2023.2.3,MacIntel,60.0024001,126.3546,127.352,,,,,,,,,,,,,,,,,,,,,,,,,,127.3521,127.985,z,1,0.6227,,127.985,127.9852,,0,27,27,283,1,284,fahe,,,,,4,notharmonic,1.95,nw,z,,,,,,,
,,,,,,,,,,,,001,2023-11-09_24h33.37.778,vowel_harmony,2023.2.3,MacIntel,60.0024001,127.9855,128.9891,,,,,,,,,,,,,,,,,,,,,,,,,,128.9892,129.6203,m,1,0.619,,129.6204,129.6205,,0,28,28,4,1,5,metre,1156,52.5241,1015,0.111,5,harmonic,1.7,word,m,,,,,,,
,,,,,,,,,,,,001,2023-11-09_24h33.37.778,vowel_harmony,2023.2.3,MacIntel,60.0024001,129.621,130.6195,,,,,,,,,,,,,,,,,,,,,,,,,,130.6195,131.4519,z,1,0.8167,,131.4519,131.4519,,0,29,29,289,1,290,karmen,,,,,6,notharmonic,1.75,nw,z,,,,,,,
,,,,,,,,,,,,001,2023-11-09_24h33.37.778,vowel_harmony,2023.2.3,MacIntel,60.0024001,131.4523,132.4538,,,,,,,,,,,,,,,,,,,,,,,,,,132.4538,133.1204,z,1,0.6561,,133.1204,133.1205,,0,30,30,350,1,351,resun,,,,,5,notharmonic,1.85,nw,z,,,,,,,
,,,,,,,,,,,,001,2023-11-09_24h33.37.778,vowel_harmony,2023.2.3,MacIntel,60.0024001,133.1209,134.1225,,,,,,,,,,,,,,,,,,,,,,,,,,134.1225,135.0527,z,1,0.9132,,135.0527,135.0527,,0,31,31,266,1,267,düştön,,,,,6,harmonic,1.9,nw,z,,,,,,,
,,,,,,,,,,,,001,2023-11-09_24h33.37.778,vowel_harmony,2023.2.3,MacIntel,60.0024001,135.0529,136.0538,,,,,,,,,,,,,,,,,,,,,,,,,,136.0538,136.6195,m,1,0.548,,136.6196,136.6196,,0,32,32,94,1,95,final,876,39.802,778,0.0851,5,notharmonic,1,word,m,,,,,,,
,,,,,,,,,,,,001,2023-11-09_24h33.37.778,vowel_harmony,2023.2.3,MacIntel,60.0024001,136.6202,137.6182,,,,,,,,,,,,,,,,,,,,,,,,,,137.6183,138.1696,m,1,0.5392,,138.1696,138.1697,,0,33,33,114,1,115,nisan,2321,105.457,2044,0.2235,5,notharmonic,1.6,word,m,,,,,,,
,,,,,,,,,,,,001,2023-11-09_24h33.37.778,vowel_harmony,2023.2.3,MacIntel,60.0024001,138.1701,139.1696,,,,,,,,,,,,,,,,,,,,,,,,,,139.1697,139.7015,m,1,0.5168,,139.7017,139.7018,,0,34,34,150,1,151,sabit,1046,47.5261,915,0.1,5,notharmonic,1.75,word,m,,,,,,,
,,,,,,,,,,,,001,2023-11-09_24h33.37.778,vowel_harmony,2023.2.3,MacIntel,60.0024001,139.7021,140.7022,,,,,,,,,,,,,,,,,,,,,,,,,,140.7022,141.2354,m,1,0.5181,,141.2356,141.2357,,0,35,35,116,1,117,daire,621,28.2158,503,0.055,5,notharmonic,1,word,m,,,,,,,
,,,,,,,,,,,,001,2023-11-09_24h33.37.778,vowel_harmony,2023.2.3,MacIntel,60.0024001,141.2362,142.2386,,,,,,,,,,,,,,,,,,,,,,,,,,142.2386,142.7708,z,1,0.5189,,142.7708,142.7709,,0,36,36,195,1,196,netüm,,,,,5,harmonic,1.95,nw,z,,,,,,,
,,,,,,,,,,,,001,2023-11-09_24h33.37.778,vowel_harmony,2023.2.3,MacIntel,60.0024001,142.7713,143.7727,,,,,,,,,,,,,,,,,,,,,,,,,,143.7728,144.3194,m,1,0.5316,,144.3196,144.3196,,0,37,37,146,1,147,mavi,2206,100.2319,1934,0.2114,4,notharmonic,1.45,word,m,,,,,,,
,,,,,,,,,,,,001,2023-11-09_24h33.37.778,vowel_harmony,2023.2.3,MacIntel,60.0024001,144.3199,145.3222,,,,,,,,,,,,,,,,,,,,,,,,,,145.3223,146.0367,z,1,0.6973,,146.0367,146.0367,,0,38,38,359,1,360,kardez,,,,,6,notharmonic,1.95,nw,z,,,,,,,
,,,,,,,,,,,,001,2023-11-09_24h33.37.778,vowel_harmony,2023.2.3,MacIntel,60.0024001,146.0369,147.0387,,,,,,,,,,,,,,,,,,,,,,,,,,147.0388,147.6536,m,1,0.5961,,147.6536,147.6537,,0,39,39,23,1,24,kurum,986,44.7999,882,0.0964,5,harmonic,1.75,word,m,,,,,,,
,,,,,,,,,,,,001,2023-11-09_24h33.37.778,vowel_harmony,2023.2.3,MacIntel,60.0024001,147.654,148.654,,,,,,,,,,,,,,,,,,,,,,,,,,148.6541,149.2852,z,1,0.615,,149.2852,149.2853,,0,40,40,277,1,278,balsin,,,,,6,notharmonic,1.85,nw,z,,,,,,,
,,,,,,,,,,,,001,2023-11-09_24h33.37.778,vowel_harmony,2023.2.3,MacIntel,60.0024001,149.2857,150.2878,,,,,,,,,,,,,,,,,,,,,,,,,,150.2879,151.3022,m,0,0.9977,,151.3023,151.3023,,0,41,41,188,1,189,tonık,,,,,5,harmonic,1.85,nw,z,,,,,,,
,,,,,,,,,,,,001,2023-11-09_24h33.37.778,vowel_harmony,2023.2.3,MacIntel,60.0024001,151.3029,152.3042,,,,,,,,,,,,,,,,,,,,,,,,,,152.3043,152.9857,z,1,0.6696,,152.9857,152.9858,,0,42,42,189,1,190,düvre,,,,,5,harmonic,1.85,nw,z,,,,,,,
,,,,,,,,,,,,001,2023-11-09_24h33.37.778,vowel_harmony,2023.2.3,MacIntel,60.0024001,152.9863,153.9874,,,,,,,,,,,,,,,,,,,,,,,,,,153.9874,154.7024,z,1,0.6968,,154.7024,154.7025,,0,43,43,233,1,234,devpi,,,,,5,harmonic,1.8,nw,z,,,,,,,
,,,,,,,,,,,,001,2023-11-09_24h33.37.778,vowel_harmony,2023.2.3,MacIntel,60.0024001,154.7029,155.702,,,,,,,,,,,,,,,,,,,,,,,,,,155.7021,156.2365,m,1,0.5178,,156.2365,156.2367,,0,44,44,174,1,175,bugün,13879,630.6067,12842,1.4039,5,notharmonic,1.85,word,m,,,,,,,
,,,,,,,,,,,,001,2023-11-09_24h33.37.778,vowel_harmony,2023.2.3,MacIntel,60.0024001,156.2372,157.2367,,,,,,,,,,,,,,,,,,,,,,,,,,157.2367,157.9203,z,1,0.6723,,157.9203,157.9204,,0,45,45,273,1,274,nimal,,,,,5,notharmonic,1.9,nw,z,,,,,,,
,,,,,,,,,,,,001,2023-11-09_24h33.37.778,vowel_harmony,2023.2.3,MacIntel,60.0024001,157.9207,158.9197,,,,,,,,,,,,,,,,,,,,,,,,,,158.9197,159.4221,m,1,0.4839,,159.4222,159.4223,,0,46,46,81,1,82,üretim,1593,72.3796,1283,0.1403,6,harmonic,1.6,word,m,,,,,,,
,,,,,,,,,,,,001,2023-11-09_24h33.37.778,vowel_harmony,2023.2.3,MacIntel,60.0024001,159.4228,160.4202,,,,,,,,,,,,,,,,,,,,,,,,,,160.4203,161.0052,z,1,0.5725,,161.0053,161.0053,,0,47,47,282,1,283,taöz,,,,,4,notharmonic,1.9,nw,z,,,,,,,
,,,,,,,,,,,,001,2023-11-09_24h33.37.778,vowel_harmony,2023.2.3,MacIntel,60.0024001,161.0059,162.0047,,,,,,,,,,,,,,,,,,,,,,,,,,162.0048,162.4723,m,1,0.4469,,162.4723,162.4725,,0,48,48,172,1,173,milyar,1496,67.9723,1078,0.1178,6,notharmonic,1.85,word,m,,,,,,,
,,,,,,,,,,,,001,2023-11-09_24h33.37.778,vowel_harmony,2023.2.3,MacIntel,60.0024001,162.473,163.4708,,,,,,,,,,,,,,,,,,,,,,,,,,163.4708,164.1871,z,1,0.7002,,164.1871,164.1872,,0,49,49,351,1,352,seğlık,,,,,6,notharmonic,1.9,nw,z,,,,,,,
,,,,,,,,,,,,001,2023-11-09_24h33.37.778,vowel_harmony,2023.2.3,MacIntel,60.0024001,164.1877,165.1856,,,,,,,,,,,,,,,,,,,,,,,,,,165.1856,165.8053,m,1,0.6013,,165.8054,165.8054,,0,50,50,113,1,114,model,1200,54.5232,1082,0.1183,5,notharmonic,1.75,word,m,,,,,,,
,,,,,,,,,,,,001,2023-11-09_24h33.37.778,vowel_harmony,2023.2.3,MacIntel,60.0024001,165.8058,166.8041,,,,,,,,,,,,,,,,,,,,,,,,,,166.8041,167.3194,z,0,0.4983,,167.3194,167.3194,,0,51,51,125,1,126,ikna,1276,57.9764,1173,0.1282,4,notharmonic,1.85,word,m,,,,,,,
,,,,,,,,,,,,001,2023-11-09_24h33.37.778,vowel_harmony,2023.2.3,MacIntel,60.0024001,167.3197,168.3195,,,,,,,,,,,,,,,,,,,,,,,,,,168.3196,168.8523,z,0,0.5141,,168.8524,168.8525,,0,52,52,92,1,93,sahne,1380,62.7017,1238,0.1353,5,notharmonic,1.65,word,m,,,,,,,
,,,,,,,,,,,,001,2023-11-09_24h33.37.778,vowel_harmony,2023.2.3,MacIntel,60.0024001,168.853,169.8522,,,,,,,,,,,,,,,,,,,,,,,,,,169.8522,170.3034,m,1,0.4354,,170.3035,170.3036,,0,53,53,14,1,15,yaşam,4348,197.5559,3918,0.4283,5,harmonic,1.4,word,m,,,,,,,
,,,,,,,,,,,,001,2023-11-09_24h33.37.778,vowel_harmony,2023.2.3,MacIntel,60.0024001,170.3042,171.3023,,,,,,,,,,,,,,,,,,,,,,,,,,171.3023,172.1541,z,1,0.8368,,172.1542,172.1542,,0,54,54,330,1,331,vahçe,,,,,5,notharmonic,1.9,nw,z,,,,,,,
,,,,,,,,,,,,001,2023-11-09_24h33.37.778,vowel_harmony,2023.2.3,MacIntel,60.0024001,172.1545,173.1554,,,,,,,,,,,,,,,,,,,,,,,,,,173.1554,173.6378,m,1,0.4662,,173.6379,173.638,,0,55,55,37,1,38,hayvan,2363,107.3653,1894,0.2071,6,harmonic,1.5,word,m,,,,,,,
,,,,,,,,,,,,001,2023-11-09_24h33.37.778,vowel_harmony,2023.2.3,MacIntel,60.0024001,173.6385,174.6388,,,,,,,,,,,,,,,,,,,,,,,,,,174.6389,175.3036,z,1,0.6487,,175.3037,175.3038,,0,56,56,181,1,182,rapkı,,,,,5,harmonic,1.85,nw,z,,,,,,,
,,,,,,,,,,,,001,2023-11-09_24h33.37.778,vowel_harmony,2023.2.3,MacIntel,60.0024001,175.3043,176.3024,,,,,,,,,,,,,,,,,,,,,,,,,,176.3025,176.854,m,1,0.5319,,176.854,176.8541,,0,57,57,163,1,164,limon,1658,75.3329,1481,0.1619,5,notharmonic,1.75,word,m,,,,,,,
,,,,,,,,,,,,001,2023-11-09_24h33.37.778,vowel_harmony,2023.2.3,MacIntel,60.0024001,176.8548,177.8534,,,,,,,,,,,,,,,,,,,,,,,,,,177.8535,178.4704,z,1,0.5994,,178.4705,178.4706,,0,58,58,202,1,203,güvin,,,,,5,harmonic,1.95,nw,z,,,,,,,
,,,,,,,,,,,,001,2023-11-09_24h33.37.778,vowel_harmony,2023.2.3,MacIntel,60.0024001,178.471,179.4704,,,,,,,,,,,,,,,,,,,,,,,,,,179.4705,180.1871,z,1,0.6982,,180.1872,180.1872,,0,59,59,285,1,286,iklon,,,,,5,notharmonic,1.85,nw,z,,,,,,,
,,,,,,,,,,,,001,2023-11-09_24h33.37.778,vowel_harmony,2023.2.3,MacIntel,60.0024001,180.1876,181.1867,,,,,,,,,,,,,,,,,,,,,,,,,,181.1868,181.8051,z,1,0.6015,,181.8051,181.8053,,0,60,60,264,1,265,vepü,,,,,4,harmonic,2,nw,z,,,,,,,
,,,,,,,,,,,,001,2023-11-09_24h33.37.778,vowel_harmony,2023.2.3,MacIntel,60.0024001,181.8059,182.8038,,,,,,,,,,,,,,,,,,,,,,,,,,182.8039,183.3371,m,1,0.5142,,183.3371,183.3372,,0,61,61,15,1,16,hayat,7922,359.9443,7314,0.7996,5,harmonic,1.9,word,m,,,,,,,
,,,,,,,,,,,,001,2023-11-09_24h33.37.778,vowel_harmony,2023.2.3,MacIntel,60.0024001,183.3377,184.3371,,,,,,,,,,,,,,,,,,,,,,,,,,184.3372,184.9723,z,1,0.618,,184.9723,184.9724,,0,62,62,199,1,200,movu,,,,,4,harmonic,1.9,nw,z,,,,,,,
,,,,,,,,,,,,001,2023-11-09_24h33.37.778,vowel_harmony,2023.2.3,MacIntel,60.0024001,184.9728,185.971,,,,,,,,,,,,,,,,,,,,,,,,,,185.9711,186.5365,z,1,0.5471,,186.5365,186.5366,,0,63,63,319,1,320,biho,,,,,4,notharmonic,2,nw,z,,,,,,,
,,,,,,,,,,,,001,2023-11-09_24h33.37.778,vowel_harmony,2023.2.3,MacIntel,60.0024001,186.5368,187.5377,,,,,,,,,,,,,,,,,,,,,,,,,,187.5377,188.0889,m,1,0.532,,188.089,188.0891,,0,64,64,110,1,111,rüya,1062,48.2531,937,0.1024,4,notharmonic,1.75,word,m,,,,,,,
,,,,,,,,,,,,001,2023-11-09_24h33.37.778,vowel_harmony,2023.2.3,MacIntel,60.0024001,188.0896,189.0895,,,,,,,,,,,,,,,,,,,,,,,,,,189.0895,189.7555,z,1,0.6436,,189.7556,189.7558,,0,65,65,292,1,293,kinam,,,,,5,notharmonic,1.85,nw,z,,,,,,,
,,,,,,,,,,,,001,2023-11-09_24h33.37.778,vowel_harmony,2023.2.3,MacIntel,60.0024001,189.7562,190.7521,,,,,,,,,,,,,,,,,,,,,,,,,,190.7521,191.3385,m,1,0.5704,,191.3386,191.3387,,0,66,66,157,1,158,aktif,1062,48.2531,986,0.1078,5,notharmonic,1.9,word,m,,,,,,,
,,,,,,,,,,,,001,2023-11-09_24h33.37.778,vowel_harmony,2023.2.3,MacIntel,60.0024001,191.3392,192.3393,,,,,,,,,,,,,,,,,,,,,,,,,,192.3393,192.9366,z,1,0.5795,,192.9366,192.9367,,0,67,67,317,1,318,mevul,,,,,5,notharmonic,1.95,nw,z,,,,,,,
,,,,,,,,,,,,001,2023-11-09_24h33.37.778,vowel_harmony,2023.2.3,MacIntel,60.0024001,192.937,193.9388,,,,,,,,,,,,,,,,,,,,,,,,,,193.9389,194.5225,m,1,0.569,,194.5226,194.5227,,0,68,68,48,1,49,teşvik,932,42.3464,867,0.0948,6,harmonic,1.8,word,m,,,,,,,
,,,,,,,,,,,,001,2023-11-09_24h33.37.778,vowel_harmony,2023.2.3,MacIntel,60.0024001,194.5232,195.5228,,,,,,,,,,,,,,,,,,,,,,,,,,195.523,196.1553,z,1,0.6101,,196.1554,196.1554,,0,69,69,352,1,353,yılden,,,,,6,notharmonic,1.8,nw,z,,,,,,,
,,,,,,,,,,,,001,2023-11-09_24h33.37.778,vowel_harmony,2023.2.3,MacIntel,60.0024001,196.1558,197.1524,,,,,,,,,,,,,,,,,,,,,,,,,,197.1524,197.7882,z,1,0.6153,,197.7882,197.7884,,0,70,70,214,1,215,vecü,,,,,4,harmonic,1.95,nw,z,,,,,,,
,,,,,,,,,,,,001,2023-11-09_24h33.37.778,vowel_harmony,2023.2.3,MacIntel,60.0024001,197.789,198.7868,,,,,,,,,,,,,,,,,,,,,,,,,,198.7868,199.419,z,1,0.6131,,199.4191,199.4191,,0,71,71,209,1,210,sapor,,,,,5,harmonic,1.8,nw,z,,,,,,,
,,,,,,,,,,,,001,2023-11-09_24h33.37.778,vowel_harmony,2023.2.3,MacIntel,60.0024001,199.4195,200.4206,,,,,,,,,,,,,,,,,,,,,,,,,,200.4206,201.1222,z,1,0.69,,201.1223,201.1225,,0,72,72,256,1,257,yaruza,,,,,6,harmonic,1.9,nw,z,,,,,,,
,,,,,,,,,,,,001,2023-11-09_24h33.37.778,vowel_harmony,2023.2.3,MacIntel,60.0024001,201.123,202.1215,,,,,,,,,,,,,,,,,,,,,,,,,,202.1215,202.7556,m,1,0.6149,,202.7556,202.7557,,0,73,73,165,1,166,gazete,1402,63.7013,1270,0.1388,6,notharmonic,1.8,word,m,,,,,,,
,,,,,,,,,,,,001,2023-11-09_24h33.37.778,vowel_harmony,2023.2.3,MacIntel,60.0024001,202.7561,203.7551,,,,,,,,,,,,,,,,,,,,,,,,,,203.7552,204.3201,m,1,0.5482,,204.3202,204.3203,,0,74,74,158,1,159,klasik,1871,85.0108,1734,0.1896,6,notharmonic,2,word,m,,,,,,,
,,,,,,,,,,,,001,2023-11-09_24h33.37.778,vowel_harmony,2023.2.3,MacIntel,60.0024001,204.3207,205.3216,,,,,,,,,,,,,,,,,,,,,,,,,,205.3216,206.0384,z,1,0.6983,,206.0385,206.0386,,0,75,75,300,1,301,nilgi,,,,,5,notharmonic,1.85,nw,z,,,,,,,
,,,,,,,,,,,,001,2023-11-09_24h33.37.778,vowel_harmony,2023.2.3,MacIntel,60.0024001,206.0391,207.0389,,,,,,,,,,,,,,,,,,,,,,,,,,207.039,207.6391,m,1,0.582,,207.6391,207.6391,,0,76,76,147,1,148,işaret,1888,85.7832,1787,0.1954,6,notharmonic,1,word,m,,,,,,,
,,,,,,,,,,,,001,2023-11-09_24h33.37.778,vowel_harmony,2023.2.3,MacIntel,60.0024001,207.6397,208.6379,,,,,,,,,,,,,,,,,,,,,,,,,,208.6379,209.271,z,1,0.6137,,209.271,209.2712,,0,77,77,243,1,244,korguf,,,,,6,harmonic,2,nw,z,,,,,,,
,,,,,,,,,,,,001,2023-11-09_24h33.37.778,vowel_harmony,2023.2.3,MacIntel,60.0024001,209.2717,210.27,,,,,,,,,,,,,,,,,,,,,,,,,,210.2701,210.9034,m,1,0.6159,,210.9034,210.9035,,0,78,78,10,1,11,bardak,1728,78.5135,1569,0.1715,6,harmonic,1.6,word,m,,,,,,,
,,,,,,,,,,,,001,2023-11-09_24h33.37.778,vowel_harmony,2023.2.3,MacIntel,60.0024001,210.9037,211.9021,,,,,,,,,,,,,,,,,,,,,,,,,,211.9022,212.5381,z,1,0.6163,,212.5382,212.5382,,0,79,79,354,1,355,taden,,,,,5,notharmonic,1.7,nw,z,,,,,,,
,,,,,,,,,,,,001,2023-11-09_24h33.37.778,vowel_harmony,2023.2.3,MacIntel,60.0024001,212.5389,213.5392,,,,,,,,,,,,,,,,,,,,,,,,,,213.5392,214.106,m,1,0.5537,,214.106,214.1061,,0,80,80,36,1,37,meslek,1082,49.1618,976,0.1067,6,harmonic,1.9,word,m,,,,,,,
,,,,,,,,,,,,001,2023-11-09_24h33.37.778,vowel_harmony,2023.2.3,MacIntel,60.0024001,214.1063,215.1059,,,,,,,,,,,,,,,,,,,,,,,,,,215.106,215.6531,m,1,0.5318,,215.6532,215.6533,,0,81,81,27,1,28,bölge,1283,58.2944,1123,0.1228,5,harmonic,1.65,word,m,,,,,,,
,,,,,,,,,,,,001,2023-11-09_24h33.37.778,vowel_harmony,2023.2.3,MacIntel,60.0024001,215.6537,216.655,,,,,,,,,,,,,,,,,,,,,,,,,,216.6551,217.4037,z,1,0.7317,,217.4037,217.4039,,0,82,82,227,1,228,zekö,,,,,4,harmonic,1.9,nw,z,,,,,,,
,,,,,,,,,,,,001,2023-11-09_24h33.37.778,vowel_harmony,2023.2.3,MacIntel,60.0024001,217.4042,218.4056,,,,,,,,,,,,,,,,,,,,,,,,,,218.4056,219.3218,z,1,0.8962,,219.3219,219.322,,0,83,83,271,1,272,mimal,,,,,5,notharmonic,1.8,nw,z,,,,,,,
,,,,,,,,,,,,001,2023-11-09_24h33.37.778,vowel_harmony,2023.2.3,MacIntel,60.0024001,219.3225,220.322,,,,,,,,,,,,,,,,,,,,,,,,,,220.3221,220.9553,m,1,0.6128,,220.9554,220.9555,,0,84,84,41,1,42,zengin,2193,99.6412,2015,0.2203,6,harmonic,1.65,word,m,,,,,,,
,,,,,,,,,,,,001,2023-11-09_24h33.37.778,vowel_harmony,2023.2.3,MacIntel,60.0024001,220.956,221.9527,,,,,,,,,,,,,,,,,,,,,,,,,,221.9527,222.5042,m,1,0.5383,,222.5042,222.5042,,0,85,85,69,1,70,forma,719,32.6685,597,0.0653,5,harmonic,1.8,word,m,,,,,,,
,,,,,,,,,,,,001,2023-11-09_24h33.37.778,vowel_harmony,2023.2.3,MacIntel,60.0024001,222.5046,223.5045,,,,,,,,,,,,,,,,,,,,,,,,,,223.5045,223.9369,m,1,0.4169,,223.9369,223.9369,,0,86,86,6,1,7,hayal,4498,204.3713,4079,0.4459,5,harmonic,1.45,word,m,,,,,,,
,,,,,,,,,,,,001,2023-11-09_24h33.37.778,vowel_harmony,2023.2.3,MacIntel,60.0024001,223.9374,224.9389,,,,,,,,,,,,,,,,,,,,,,,,,,224.939,225.438,z,1,0.4879,,225.4381,225.4381,,0,87,87,287,1,288,haköm,,,,,5,notharmonic,1.9,nw,z,,,,,,,
,,,,,,,,,,,,001,2023-11-09_24h33.37.778,vowel_harmony,2023.2.3,MacIntel,60.0024001,225.4384,226.4385,,,,,,,,,,,,,,,,,,,,,,,,,,226.4386,227.054,z,1,0.5968,,227.054,227.0541,,0,88,88,335,1,336,lilo,,,,,4,notharmonic,1.8,nw,z,,,,,,,
,,,,,,,,,,,,001,2023-11-09_24h33.37.778,vowel_harmony,2023.2.3,MacIntel,60.0024001,227.0545,228.0561,,,,,,,,,,,,,,,,,,,,,,,,,,228.0562,228.6539,m,1,0.5853,,228.654,228.6541,,0,89,89,138,1,139,kardeş,1270,57.7038,1174,0.1283,6,notharmonic,1.9,word,m,,,,,,,
,,,,,,,,,,,,001,2023-11-09_24h33.37.778,vowel_harmony,2023.2.3,MacIntel,60.0024001,228.6546,229.6556,,,,,,,,,,,,,,,,,,,,,,,,,,229.6557,230.2883,z,1,0.6135,,230.2884,230.2884,,0,90,90,254,1,255,millek,,,,,6,harmonic,1.8,nw,z,,,,,,,
,,,,,,,,,,,,001,2023-11-09_24h33.37.778,vowel_harmony,2023.2.3,MacIntel,60.0024001,230.2889,231.2892,,,,,,,,,,,,,,,,,,,,,,,,,,231.2892,231.8385,m,1,0.5316,,231.8386,231.8387,,0,91,91,84,1,85,ülke,3121,141.8059,2801,0.3062,4,harmonic,1.65,word,m,,,,,,,
,,,,,,,,,,,,001,2023-11-09_24h33.37.778,vowel_harmony,2023.2.3,MacIntel,60.0024001,231.8395,232.8378,,,,,,,,,,,,,,,,,,,,,,,,,,232.8379,233.3544,m,1,0.5038,,233.3545,233.3546,,0,92,92,11,1,12,umut,1988,90.3268,1818,0.1987,4,harmonic,1.55,word,m,,,,,,,
,,,,,,,,,,,,001,2023-11-09_24h33.37.778,vowel_harmony,2023.2.3,MacIntel,60.0024001,233.3551,234.3569,,,,,,,,,,,,,,,,,,,,,,,,,,234.357,234.8881,z,1,0.5135,,234.8882,234.8883,,0,93,93,220,1,221,denbi,,,,,5,harmonic,1.75,nw,z,,,,,,,
,,,,,,,,,,,,001,2023-11-09_24h33.37.778,vowel_harmony,2023.2.3,MacIntel,60.0024001,234.8888,235.8872,,,,,,,,,,,,,,,,,,,,,,,,,,235.8873,236.4049,m,1,0.4965,,236.405,236.4051,,0,94,94,8,1,9,güven,1433,65.1098,1300,0.1421,5,harmonic,1.35,word,m,,,,,,,
,,,,,,,,,,,,001,2023-11-09_24h33.37.778,vowel_harmony,2023.2.3,MacIntel,60.0024001,236.4061,237.4065,,,,,,,,,,,,,,,,,,,,,,,,,,237.4065,237.9197,z,0,0.4973,,237.9198,237.9199,,0,95,95,118,1,119,meşhur,1092,49.6161,1057,0.1156,6,notharmonic,1.9,word,m,,,,,,,
,,,,,,,,,,,,001,2023-11-09_24h33.37.778,vowel_harmony,2023.2.3,MacIntel,60.0024001,237.9203,238.9229,,,,,,,,,,,,,,,,,,,,,,,,,,238.9229,239.4194,m,1,0.4807,,239.4195,239.4196,,0,96,96,18,1,19,normal,4154,188.7413,3788,0.4141,6,harmonic,1.75,word,m,,,,,,,
,,,,,,,,,,,,001,2023-11-09_24h33.37.778,vowel_harmony,2023.2.3,MacIntel,60.0024001,239.4201,240.4228,,,,,,,,,,,,,,,,,,,,,,,,,,240.4229,241.02,z,1,0.5874,,241.0202,241.0203,,0,97,97,239,1,240,şekik,,,,,5,harmonic,1.7,nw,z,,,,,,,
,,,,,,,,,,,,001,2023-11-09_24h33.37.778,vowel_harmony,2023.2.3,MacIntel,60.0024001,241.0209,242.0205,,,,,,,,,,,,,,,,,,,,,,,,,,242.0206,242.5732,m,1,0.5302,,242.5732,242.5734,,0,98,98,104,1,105,cevap,5232,237.7213,4822,0.5271,5,notharmonic,1.85,word,m,,,,,,,
,,,,,,,,,,,,001,2023-11-09_24h33.37.778,vowel_harmony,2023.2.3,MacIntel,60.0024001,242.5739,243.573,,,,,,,,,,,,,,,,,,,,,,,,,,243.5733,244.1374,z,0,0.5496,,244.1374,244.1374,,0,99,99,152,1,153,tedavi,1865,84.7382,1597,0.1746,6,notharmonic,1.8,word,m,,,,,,,
,,,,,,,,,,,,001,2023-11-09_24h33.37.778,vowel_harmony,2023.2.3,MacIntel,60.0024001,244.1379,245.1369,,,,,,,,,,,,,,,,,,,,,,,,,,245.1369,245.7047,m,1,0.5476,,245.7049,245.7049,,0,100,100,149,1,150,ceza,2611,118.6335,2169,0.2371,4,notharmonic,1.5,word,m,,,,,,,
,,,,,,,,,,,,001,2023-11-09_24h33.37.778,vowel_harmony,2023.2.3,MacIntel,60.0024001,245.7054,246.7044,,,,,,,,,,,,,,,,,,,,,,,,,,246.7045,247.1694,m,1,0.4509,,247.1694,247.1695,,0,101,101,60,1,61,doğu,2105,95.6429,1823,0.1993,4,harmonic,1.05,word,m,,,,,,,
,,,,,,,,,,,,001,2023-11-09_24h33.37.778,vowel_harmony,2023.2.3,MacIntel,60.0024001,247.1699,248.171,,,,,,,,,,,,,,,,,,,,,,,,,,248.1711,248.6535,m,0,0.4654,,248.6535,248.6537,,0,102,102,253,1,254,meslet,,,,,6,harmonic,1.85,nw,z,,,,,,,
,,,,,,,,,,,,001,2023-11-09_24h33.37.778,vowel_harmony,2023.2.3,MacIntel,60.0024001,248.6544,249.6556,,,,,,,,,,,,,,,,,,,,,,,,,,249.6556,250.4035,m,1,0.7312,,250.4036,250.4037,,0,103,103,40,1,41,tepki,1695,77.0141,1578,0.1725,5,harmonic,1.55,word,m,,,,,,,
,,,,,,,,,,,,001,2023-11-09_24h33.37.778,vowel_harmony,2023.2.3,MacIntel,60.0024001,250.4042,251.4052,,,,,,,,,,,,,,,,,,,,,,,,,,251.4052,252.1054,m,1,0.6808,,252.1055,252.1056,,0,104,104,98,1,99,paket,1532,69.608,1392,0.1522,5,notharmonic,1.55,word,m,,,,,,,
,,,,,,,,,,,,001,2023-11-09_24h33.37.778,vowel_harmony,2023.2.3,MacIntel,60.0024001,252.1061,253.1048,,,,,,,,,,,,,,,,,,,,,,,,,,253.1049,253.6563,m,1,0.5386,,253.6564,253.6565,,0,105,105,169,1,170,hikaye,1555,70.653,1405,0.1536,6,notharmonic,1.8,word,m,,,,,,,
,,,,,,,,,,,,001,2023-11-09_24h33.37.778,vowel_harmony,2023.2.3,MacIntel,60.0024001,253.6571,254.6563,,,,,,,,,,,,,,,,,,,,,,,,,,254.6563,255.2041,m,1,0.5308,,255.2041,255.2042,,0,106,106,64,1,65,lise,888,40.3472,816,0.0892,4,harmonic,1.5,word,m,,,,,,,
,,,,,,,,,,,,001,2023-11-09_24h33.37.778,vowel_harmony,2023.2.3,MacIntel,60.0024001,255.2048,256.2064,,,,,,,,,,,,,,,,,,,,,,,,,,256.2065,256.7212,z,1,0.4974,,256.7212,256.7214,,0,107,107,329,1,330,taif,,,,,4,notharmonic,1.8,nw,z,,,,,,,
,,,,,,,,,,,,001,2023-11-09_24h33.37.778,vowel_harmony,2023.2.3,MacIntel,60.0024001,256.7219,257.7212,,,,,,,,,,,,,,,,,,,,,,,,,,257.7213,258.2891,m,1,0.5489,,258.2892,258.2893,,0,108,108,52,1,53,resim,2506,113.8627,2188,0.2392,5,harmonic,1.4,word,m,,,,,,,
,,,,,,,,,,,,001,2023-11-09_24h33.37.778,vowel_harmony,2023.2.3,MacIntel,60.0024001,258.2902,259.2864,,,,,,,,,,,,,,,,,,,,,,,,,,259.2865,259.8206,m,1,0.517,,259.8206,259.8208,,0,109,109,43,1,44,geniş,3380,153.5738,3185,0.3482,5,harmonic,1.35,word,m,,,,,,,
,,,,,,,,,,,,001,2023-11-09_24h33.37.778,vowel_harmony,2023.2.3,MacIntel,60.0024001,259.8212,260.8218,,,,,,,,,,,,,,,,,,,,,,,,,,260.8219,261.5205,m,1,0.6809,,261.5205,261.5207,,0,110,110,50,1,51,kanun,1198,54.4324,1010,0.1104,5,harmonic,1.6,word,m,,,,,,,
,,,,,,,,,,,,001,2023-11-09_24h33.37.778,vowel_harmony,2023.2.3,MacIntel,60.0024001,261.5213,262.5209,,,,,,,,,,,,,,,,,,,,,,,,,,262.521,263.2722,z,1,0.7354,,263.2723,263.2724,,0,111,111,247,1,248,hafgın,,,,,6,harmonic,2,nw,z,,,,,,,
,,,,,,,,,,,,001,2023-11-09_24h33.37.778,vowel_harmony,2023.2.3,MacIntel,60.0024001,263.273,264.2719,,,,,,,,,,,,,,,,,,,,,,,,,,264.272,264.8229,m,1,0.5283,,264.823,264.8231,,0,112,112,100,1,101,düşman,1065,48.3894,962,0.1052,6,notharmonic,1.85,word,m,,,,,,,
,,,,,,,,,,,,001,2023-11-09_24h33.37.778,vowel_harmony,2023.2.3,MacIntel,60.0024001,264.8235,265.8218,,,,,,,,,,,,,,,,,,,,,,,,,,265.8219,266.5042,z,1,0.6669,,266.5044,266.5044,,0,113,113,200,1,201,duşın,,,,,5,harmonic,1.9,nw,z,,,,,,,
,,,,,,,,,,,,001,2023-11-09_24h33.37.778,vowel_harmony,2023.2.3,MacIntel,60.0024001,266.5048,267.504,,,,,,,,,,,,,,,,,,,,,,,,,,267.504,268.2066,z,1,0.6811,,268.2066,268.2067,,0,114,114,297,1,298,sapet,,,,,5,notharmonic,1.85,nw,z,,,,,,,
,,,,,,,,,,,,001,2023-11-09_24h33.37.778,vowel_harmony,2023.2.3,MacIntel,60.0024001,268.2071,269.2073,,,,,,,,,,,,,,,,,,,,,,,,,,269.2073,269.8043,m,1,0.5816,,269.8043,269.8044,,0,115,115,71,1,72,örnek,3463,157.345,3266,0.357,5,harmonic,1.85,word,m,,,,,,,
,,,,,,,,,,,,001,2023-11-09_24h33.37.778,vowel_harmony,2023.2.3,MacIntel,60.0024001,269.805,270.8066,,,,,,,,,,,,,,,,,,,,,,,,,,270.8066,271.355,m,1,0.53,,271.3551,271.3552,,0,116,116,127,1,128,şahane,1153,52.3877,1108,0.1211,6,notharmonic,1.8,word,m,,,,,,,
,,,,,,,,,,,,001,2023-11-09_24h33.37.778,vowel_harmony,2023.2.3,MacIntel,60.0024001,271.3556,272.3529,,,,,,,,,,,,,,,,,,,,,,,,,,272.3529,273.2213,m,1,0.8497,,273.2213,273.2214,,0,117,117,166,1,167,maden,402,18.2653,339,0.0371,5,notharmonic,1.45,word,m,,,,,,,
,,,,,,,,,,,,001,2023-11-09_24h33.37.778,vowel_harmony,2023.2.3,MacIntel,60.0024001,273.222,274.2231,,,,,,,,,,,,,,,,,,,,,,,,,,274.2231,274.7383,m,1,0.4964,,274.7385,274.7385,,0,118,118,56,1,57,sağlam,1818,82.6027,1720,0.188,6,harmonic,1.6,word,m,,,,,,,
,,,,,,,,,,,,001,2023-11-09_24h33.37.778,vowel_harmony,2023.2.3,MacIntel,60.0024001,274.739,275.7379,,,,,,,,,,,,,,,,,,,,,,,,,,275.738,276.5547,z,1,0.7981,,276.5547,276.5547,,0,119,119,280,1,281,adalek,,,,,6,notharmonic,1.85,nw,z,,,,,,,
,,,,,,,,,,,,001,2023-11-09_24h33.37.778,vowel_harmony,2023.2.3,MacIntel,60.0024001,276.555,277.5549,,,,,,,,,,,,,,,,,,,,,,,,,,277.555,278.2205,z,1,0.6523,,278.2205,320.3391,space,0,120,120,245,1,246,bıyan,,,,,5,harmonic,1.7,nw,z,42.102,,,,,,
,,,,,,,,,,,,001,2023-11-09_24h33.37.778,vowel_harmony,2023.2.3,MacIntel,60.0024001,320.3506,321.3383,,,,,,,,,,,,,,,,,,,,,,,,,,321.3384,322.1196,m,1,0.7609,,322.1197,322.1198,,0,121,121,35,1,36,hava,4975,226.0443,4398,0.4808,4,harmonic,1,word,m,,,,,,,
,,,,,,,,,,,,001,2023-11-09_24h33.37.778,vowel_harmony,2023.2.3,MacIntel,60.0024001,322.1205,323.1236,,,,,,,,,,,,,,,,,,,,,,,,,,323.1236,323.6546,m,1,0.5143,,323.6547,323.6548,,0,122,122,153,1,154,inşaat,432,19.6284,376,0.0411,6,notharmonic,1.6,word,m,,,,,,,
,,,,,,,,,,,,001,2023-11-09_24h33.37.778,vowel_harmony,2023.2.3,MacIntel,60.0024001,323.6553,324.6554,,,,,,,,,,,,,,,,,,,,,,,,,,324.6555,325.3558,z,1,0.6799,,325.3559,325.3559,,0,123,123,212,1,213,ortat,,,,,5,harmonic,1.7,nw,z,,,,,,,
,,,,,,,,,,,,001,2023-11-09_24h33.37.778,vowel_harmony,2023.2.3,MacIntel,60.0024001,325.3564,326.3578,,,,,,,,,,,,,,,,,,,,,,,,,,326.3578,326.9072,m,1,0.5328,,326.9072,326.9073,,0,124,124,45,1,46,bilgi,5981,271.7529,5353,0.5852,5,harmonic,1.5,word,m,,,,,,,
,,,,,,,,,,,,001,2023-11-09_24h33.37.778,vowel_harmony,2023.2.3,MacIntel,60.0024001,326.9078,327.9037,,,,,,,,,,,,,,,,,,,,,,,,,,327.9037,328.3571,m,1,0.4307,,328.3571,328.3572,,0,125,125,33,1,34,moda,1381,62.7472,1231,0.1346,4,harmonic,1.55,word,m,,,,,,,
,,,,,,,,,,,,001,2023-11-09_24h33.37.778,vowel_harmony,2023.2.3,MacIntel,60.0024001,328.3577,329.357,,,,,,,,,,,,,,,,,,,,,,,,,,329.3571,330.0552,z,1,0.6812,,330.0552,330.0553,,0,126,126,204,1,205,gerkez,,,,,6,harmonic,1.9,nw,z,,,,,,,
,,,,,,,,,,,,001,2023-11-09_24h33.37.778,vowel_harmony,2023.2.3,MacIntel,60.0024001,330.0558,331.0559,,,,,,,,,,,,,,,,,,,,,,,,,,331.0559,331.6558,z,1,0.5844,,331.6558,331.6559,,0,127,127,186,1,187,habık,,,,,5,harmonic,1.9,nw,z,,,,,,,
,,,,,,,,,,,,001,2023-11-09_24h33.37.778,vowel_harmony,2023.2.3,MacIntel,60.0024001,331.6565,332.6563,,,,,,,,,,,,,,,,,,,,,,,,,,332.6564,333.305,z,1,0.6315,,333.305,333.3052,,0,128,128,211,1,212,yarum,,,,,5,harmonic,1.75,nw,z,,,,,,,
,,,,,,,,,,,,001,2023-11-09_24h33.37.778,vowel_harmony,2023.2.3,MacIntel,60.0024001,333.3055,334.3067,,,,,,,,,,,,,,,,,,,,,,,,,,334.3068,334.9235,m,1,0.6026,,334.9236,334.9237,,0,129,129,13,1,14,nokta,2085,94.7341,1939,0.212,5,harmonic,1.5,word,m,,,,,,,
,,,,,,,,,,,,001,2023-11-09_24h33.37.778,vowel_harmony,2023.2.3,MacIntel,60.0024001,334.9243,335.9214,,,,,,,,,,,,,,,,,,,,,,,,,,335.9215,336.6227,m,1,0.681,,336.6227,336.6229,,0,130,130,162,1,163,hariç,1267,57.5675,1233,0.1348,5,notharmonic,1.75,word,m,,,,,,,
,,,,,,,,,,,,001,2023-11-09_24h33.37.778,vowel_harmony,2023.2.3,MacIntel,60.0024001,336.6235,337.6218,,,,,,,,,,,,,,,,,,,,,,,,,,337.6218,338.3539,z,1,0.7193,,338.354,338.354,,0,131,131,344,1,345,barika,,,,,6,notharmonic,1.75,nw,z,,,,,,,
,,,,,,,,,,,,001,2023-11-09_24h33.37.778,vowel_harmony,2023.2.3,MacIntel,60.0024001,338.3546,339.3552,,,,,,,,,,,,,,,,,,,,,,,,,,339.3552,340.1409,m,1,0.7651,,340.141,340.1411,,0,132,132,145,1,146,iddia,2430,110.4096,2295,0.2509,5,notharmonic,1.85,word,m,,,,,,,
,,,,,,,,,,,,001,2023-11-09_24h33.37.778,vowel_harmony,2023.2.3,MacIntel,60.0024001,340.1417,341.1406,,,,,,,,,,,,,,,,,,,,,,,,,,341.1406,341.823,z,1,0.6607,,341.823,341.8232,,0,133,133,293,1,294,esnan,,,,,5,notharmonic,1.85,nw,z,,,,,,,
,,,,,,,,,,,,001,2023-11-09_24h33.37.778,vowel_harmony,2023.2.3,MacIntel,60.0024001,341.8237,342.8205,,,,,,,,,,,,,,,,,,,,,,,,,,342.8205,343.4889,z,1,0.6539,,343.489,343.4891,,0,134,134,238,1,239,kocı,,,,,4,harmonic,1.95,nw,z,,,,,,,
,,,,,,,,,,,,001,2023-11-09_24h33.37.778,vowel_harmony,2023.2.3,MacIntel,60.0024001,343.4895,344.4901,,,,,,,,,,,,,,,,,,,,,,,,,,344.4901,345.2229,m,1,0.7178,,345.2229,345.2231,,0,135,135,102,1,103,esas,1965,89.2818,1795,0.1962,4,notharmonic,1.75,word,m,,,,,,,
,,,,,,,,,,,,001,2023-11-09_24h33.37.778,vowel_harmony,2023.2.3,MacIntel,60.0024001,345.2236,346.2223,,,,,,,,,,,,,,,,,,,,,,,,,,346.2224,346.9034,z,1,0.6652,,346.9034,346.9036,,0,136,136,322,1,323,normin,,,,,6,notharmonic,1.95,nw,z,,,,,,,
,,,,,,,,,,,,001,2023-11-09_24h33.37.778,vowel_harmony,2023.2.3,MacIntel,60.0024001,346.9042,347.907,,,,,,,,,,,,,,,,,,,,,,,,,,347.907,348.5367,m,1,0.6115,,348.5367,348.5368,,0,137,137,126,1,127,adet,4367,198.4192,3768,0.4119,4,notharmonic,1.4,word,m,,,,,,,
,,,,,,,,,,,,001,2023-11-09_24h33.37.778,vowel_harmony,2023.2.3,MacIntel,60.0024001,348.5374,349.5401,,,,,,,,,,,,,,,,,,,,,,,,,,349.5401,350.0873,m,1,0.5363,,350.0873,350.0875,,0,138,138,25,1,26,rapor,703,31.9415,617,0.0675,5,harmonic,1.8,word,m,,,,,,,
,,,,,,,,,,,,001,2023-11-09_24h33.37.778,vowel_harmony,2023.2.3,MacIntel,60.0024001,350.0882,351.0907,,,,,,,,,,,,,,,,,,,,,,,,,,351.0907,351.7229,z,1,0.619,,351.7229,351.7231,,0,139,139,272,1,273,daken,,,,,5,notharmonic,1.8,nw,z,,,,,,,
,,,,,,,,,,,,001,2023-11-09_24h33.37.778,vowel_harmony,2023.2.3,MacIntel,60.0024001,351.7236,352.7232,,,,,,,,,,,,,,,,,,,,,,,,,,352.7233,353.474,m,1,0.7314,,353.474,353.4741,,0,140,140,133,1,134,taze,2268,103.0489,2062,0.2254,4,notharmonic,1.65,word,m,,,,,,,
,,,,,,,,,,,,001,2023-11-09_24h33.37.778,vowel_harmony,2023.2.3,MacIntel,60.0024001,353.4746,354.472,,,,,,,,,,,,,,,,,,,,,,,,,,354.4721,355.0884,z,1,0.6012,,355.0884,355.0885,,0,141,141,320,1,321,finak,,,,,5,notharmonic,1.85,nw,z,,,,,,,
,,,,,,,,,,,,001,2023-11-09_24h33.37.778,vowel_harmony,2023.2.3,MacIntel,60.0024001,355.0888,356.0887,,,,,,,,,,,,,,,,,,,,,,,,,,356.0888,356.8573,z,1,0.7515,,356.8574,356.8574,,0,142,142,260,1,261,yarlam,,,,,6,harmonic,1.75,nw,z,,,,,,,
,,,,,,,,,,,,001,2023-11-09_24h33.37.778,vowel_harmony,2023.2.3,MacIntel,60.0024001,356.858,357.8564,,,,,,,,,,,,,,,,,,,,,,,,,,357.8565,358.6235,z,1,0.7458,,358.6236,358.6236,,0,143,143,286,1,287,cedan,,,,,5,notharmonic,1.8,nw,z,,,,,,,
,,,,,,,,,,,,001,2023-11-09_24h33.37.778,vowel_harmony,2023.2.3,MacIntel,60.0024001,358.6241,359.6229,,,,,,,,,,,,,,,,,,,,,,,,,,359.6229,360.3555,m,1,0.7199,,360.3555,360.3556,,0,144,144,76,1,77,ilişki,1675,76.1054,1524,0.1666,6,harmonic,1.8,word,m,,,,,,,
,,,,,,,,,,,,001,2023-11-09_24h33.37.778,vowel_harmony,2023.2.3,MacIntel,60.0024001,360.3559,361.3541,,,,,,,,,,,,,,,,,,,,,,,,,,361.3541,362.0555,z,1,0.6855,,362.0556,362.0557,,0,145,145,332,1,333,tahane,,,,,6,notharmonic,1.85,nw,z,,,,,,,
,,,,,,,,,,,,001,2023-11-09_24h33.37.778,vowel_harmony,2023.2.3,MacIntel,60.0024001,362.0564,363.0558,,,,,,,,,,,,,,,,,,,,,,,,,,363.0559,363.7551,z,1,0.6794,,363.7553,363.7553,,0,146,146,340,1,341,minya,,,,,5,notharmonic,1.95,nw,z,,,,,,,
,,,,,,,,,,,,001,2023-11-09_24h33.37.778,vowel_harmony,2023.2.3,MacIntel,60.0024001,363.7557,364.754,,,,,,,,,,,,,,,,,,,,,,,,,,364.7542,365.4564,m,1,0.6882,,365.4565,365.4565,,0,147,147,97,1,98,mevcut,3007,136.6262,2842,0.3107,6,notharmonic,1.95,word,m,,,,,,,
,,,,,,,,,,,,001,2023-11-09_24h33.37.778,vowel_harmony,2023.2.3,MacIntel,60.0024001,365.4569,366.4575,,,,,,,,,,,,,,,,,,,,,,,,,,366.4576,367.1728,z,1,0.696,,367.1728,367.173,,0,148,148,296,1,297,işban,,,,,5,notharmonic,1.95,nw,z,,,,,,,
,,,,,,,,,,,,001,2023-11-09_24h33.37.778,vowel_harmony,2023.2.3,MacIntel,60.0024001,367.1736,368.1727,,,,,,,,,,,,,,,,,,,,,,,,,,368.1728,368.7225,m,1,0.5315,,368.7225,368.7225,,0,149,149,103,1,104,tane,5623,255.4868,5075,0.5548,4,notharmonic,1.3,word,m,,,,,,,
,,,,,,,,,,,,001,2023-11-09_24h33.37.778,vowel_harmony,2023.2.3,MacIntel,60.0024001,368.7229,369.7219,,,,,,,,,,,,,,,,,,,,,,,,,,369.7219,370.3737,z,1,0.6394,,370.3737,370.3737,,0,150,150,228,1,229,haytam,,,,,6,harmonic,1.75,nw,z,,,,,,,
,,,,,,,,,,,,001,2023-11-09_24h33.37.778,vowel_harmony,2023.2.3,MacIntel,60.0024001,370.3742,371.3736,,,,,,,,,,,,,,,,,,,,,,,,,,371.3736,372.0719,m,1,0.6793,,372.072,372.0721,,0,151,151,2,1,3,radyo,763,34.6677,636,0.0695,5,harmonic,1.85,word,m,,,,,,,
,,,,,,,,,,,,001,2023-11-09_24h33.37.778,vowel_harmony,2023.2.3,MacIntel,60.0024001,372.0729,373.0747,,,,,,,,,,,,,,,,,,,,,,,,,,373.0747,374.0904,m,1,1.0032,,374.0904,374.0904,,0,152,152,55,1,56,akıl,2208,100.3228,2004,0.2191,4,harmonic,1,word,m,,,,,,,
,,,,,,,,,,,,001,2023-11-09_24h33.37.778,vowel_harmony,2023.2.3,MacIntel,60.0024001,374.0907,375.0896,,,,,,,,,,,,,,,,,,,,,,,,,,375.0896,375.6067,m,1,0.498,,375.6068,375.6068,,0,153,153,106,1,107,esnaf,315,14.3124,284,0.031,5,notharmonic,1.55,word,m,,,,,,,
,,,,,,,,,,,,001,2023-11-09_24h33.37.778,vowel_harmony,2023.2.3,MacIntel,60.0024001,375.6074,376.6079,,,,,,,,,,,,,,,,,,,,,,,,,,376.608,377.1208,m,1,0.4983,,377.1209,377.121,,0,154,154,141,1,142,madde,3793,172.3389,3389,0.3705,5,notharmonic,1.7,word,m,,,,,,,
,,,,,,,,,,,,001,2023-11-09_24h33.37.778,vowel_harmony,2023.2.3,MacIntel,60.0024001,377.1214,378.1242,,,,,,,,,,,,,,,,,,,,,,,,,,378.1242,378.8057,z,1,0.6635,,378.8057,378.8059,,0,155,155,231,1,232,norgun,,,,,6,harmonic,1.75,nw,z,,,,,,,
,,,,,,,,,,,,001,2023-11-09_24h33.37.778,vowel_harmony,2023.2.3,MacIntel,60.0024001,378.8063,379.807,,,,,,,,,,,,,,,,,,,,,,,,,,379.8071,380.3875,m,1,0.5646,,380.3876,380.3876,,0,156,156,142,1,143,siyasi,2909,132.1734,2445,0.2673,6,notharmonic,1.8,word,m,,,,,,,
,,,,,,,,,,,,001,2023-11-09_24h33.37.778,vowel_harmony,2023.2.3,MacIntel,60.0024001,380.3882,381.3901,,,,,,,,,,,,,,,,,,,,,,,,,,381.3901,381.9568,z,1,0.5488,,381.9569,381.957,,0,157,157,229,1,230,tonam,,,,,5,harmonic,1.8,nw,z,,,,,,,
,,,,,,,,,,,,001,2023-11-09_24h33.37.778,vowel_harmony,2023.2.3,MacIntel,60.0024001,381.9575,382.9544,,,,,,,,,,,,,,,,,,,,,,,,,,382.9544,383.5413,m,1,0.5662,,383.5414,383.5415,,0,158,158,58,1,59,ayak,2143,97.3694,1931,0.2111,4,harmonic,1,word,m,,,,,,,
,,,,,,,,,,,,001,2023-11-09_24h33.37.778,vowel_harmony,2023.2.3,MacIntel,60.0024001,383.542,384.5409,,,,,,,,,,,,,,,,,,,,,,,,,,384.5409,385.2076,m,1,0.647,,385.2077,385.2078,,0,159,159,144,1,145,garip,2567,116.6343,2355,0.2574,5,notharmonic,1.65,word,m,,,,,,,
,,,,,,,,,,,,001,2023-11-09_24h33.37.778,vowel_harmony,2023.2.3,MacIntel,60.0024001,385.2083,386.2053,,,,,,,,,,,,,,,,,,,,,,,,,,386.2053,386.655,m,1,0.4382,,386.6551,386.6553,,0,160,160,175,1,176,aile,3655,166.0687,3126,0.3417,4,notharmonic,1,word,m,,,,,,,
,,,,,,,,,,,,001,2023-11-09_24h33.37.778,vowel_harmony,2023.2.3,MacIntel,60.0024001,386.6558,387.6577,,,,,,,,,,,,,,,,,,,,,,,,,,387.6578,388.2569,z,1,0.58,,388.2569,388.2571,,0,161,161,249,1,250,hurıt,,,,,5,harmonic,1.95,nw,z,,,,,,,
,,,,,,,,,,,,001,2023-11-09_24h33.37.778,vowel_harmony,2023.2.3,MacIntel,60.0024001,388.2575,389.2563,,,,,,,,,,,,,,,,,,,,,,,,,,389.2563,389.9235,m,1,0.6485,,389.9236,389.9237,,0,162,162,32,1,33,temel,4231,192.2399,3851,0.421,5,harmonic,1.55,word,m,,,,,,,
,,,,,,,,,,,,001,2023-11-09_24h33.37.778,vowel_harmony,2023.2.3,MacIntel,60.0024001,389.9241,390.9224,,,,,,,,,,,,,,,,,,,,,,,,,,390.9225,391.4908,m,1,0.5509,,391.4909,391.491,,0,163,163,28,1,29,parlak,1142,51.888,1088,0.1189,6,harmonic,1.7,word,m,,,,,,,
,,,,,,,,,,,,001,2023-11-09_24h33.37.778,vowel_harmony,2023.2.3,MacIntel,60.0024001,391.4915,392.4897,,,,,,,,,,,,,,,,,,,,,,,,,,392.4897,393.1077,z,1,0.5975,,393.1077,393.1079,,0,164,164,259,1,260,hayuk,,,,,5,harmonic,1.95,nw,z,,,,,,,
,,,,,,,,,,,,001,2023-11-09_24h33.37.778,vowel_harmony,2023.2.3,MacIntel,60.0024001,393.1084,394.106,,,,,,,,,,,,,,,,,,,,,,,,,,394.106,394.8221,z,1,0.6988,,394.8221,394.8224,,0,165,165,232,1,233,kanur,,,,,5,harmonic,1.7,nw,z,,,,,,,
,,,,,,,,,,,,001,2023-11-09_24h33.37.778,vowel_harmony,2023.2.3,MacIntel,60.0024001,394.8229,395.8209,,,,,,,,,,,,,,,,,,,,,,,,,,395.8209,396.4396,m,1,0.5983,,396.4397,396.4397,,0,166,166,90,1,91,tarif,2834,128.7657,2611,0.2854,5,notharmonic,1.5,word,m,,,,,,,
,,,,,,,,,,,,001,2023-11-09_24h33.37.778,vowel_harmony,2023.2.3,MacIntel,60.0024001,396.44,397.4381,,,,,,,,,,,,,,,,,,,,,,,,,,397.4382,398.0229,m,1,0.5678,,398.023,398.0231,,0,167,167,91,1,92,ifade,6177,280.6584,5726,0.626,5,notharmonic,1.7,word,m,,,,,,,
,,,,,,,,,,,,001,2023-11-09_24h33.37.778,vowel_harmony,2023.2.3,MacIntel,60.0024001,398.0238,399.022,,,,,,,,,,,,,,,,,,,,,,,,,,399.0221,399.6548,z,1,0.6205,,399.6548,399.6549,,0,168,168,267,1,268,nokuma,,,,,6,harmonic,1.75,nw,z,,,,,,,
,,,,,,,,,,,,001,2023-11-09_24h33.37.778,vowel_harmony,2023.2.3,MacIntel,60.0024001,399.6552,400.6577,,,,,,,,,,,,,,,,,,,,,,,,,,400.6578,401.5078,z,1,0.8293,,401.5078,401.5079,,0,169,169,194,1,195,rayna,,,,,5,harmonic,1.7,nw,z,,,,,,,
,,,,,,,,,,,,001,2023-11-09_24h33.37.778,vowel_harmony,2023.2.3,MacIntel,60.0024001,401.5085,402.5052,,,,,,,,,,,,,,,,,,,,,,,,,,402.5052,403.0584,z,1,0.5357,,403.0584,403.0585,,0,170,170,187,1,188,remrin,,,,,6,harmonic,1.9,nw,z,,,,,,,
,,,,,,,,,,,,001,2023-11-09_24h33.37.778,vowel_harmony,2023.2.3,MacIntel,60.0024001,403.0591,404.0558,,,,,,,,,,,,,,,,,,,,,,,,,,404.0559,404.7237,z,1,0.6492,,404.7237,404.7238,,0,171,171,225,1,226,düvem,,,,,5,harmonic,1.7,nw,z,,,,,,,
,,,,,,,,,,,,001,2023-11-09_24h33.37.778,vowel_harmony,2023.2.3,MacIntel,60.0024001,404.7244,405.7229,,,,,,,,,,,,,,,,,,,,,,,,,,405.7229,406.3067,m,1,0.5641,,406.3067,406.3069,,0,172,172,156,1,157,medya,1784,81.0579,1495,0.1634,5,notharmonic,1.35,word,m,,,,,,,
,,,,,,,,,,,,001,2023-11-09_24h33.37.778,vowel_harmony,2023.2.3,MacIntel,60.0024001,406.3074,407.3077,,,,,,,,,,,,,,,,,,,,,,,,,,407.3077,407.8732,m,1,0.5458,,407.8733,407.8734,,0,173,173,80,1,81,merkez,1445,65.6551,1255,0.1372,6,harmonic,1.8,word,m,,,,,,,
,,,,,,,,,,,,001,2023-11-09_24h33.37.778,vowel_harmony,2023.2.3,MacIntel,60.0024001,407.8738,408.8711,,,,,,,,,,,,,,,,,,,,,,,,,,408.8712,409.4405,z,1,0.5517,,409.4406,409.4406,,0,174,174,308,1,309,hafer,,,,,5,notharmonic,1.85,nw,z,,,,,,,
,,,,,,,,,,,,001,2023-11-09_24h33.37.778,vowel_harmony,2023.2.3,MacIntel,60.0024001,409.4409,410.4409,,,,,,,,,,,,,,,,,,,,,,,,,,410.441,411.0218,m,1,0.5654,,411.0218,411.0219,,0,175,175,42,1,43,ürün,2268,103.0489,1954,0.2136,4,harmonic,1.1,word,m,,,,,,,
,,,,,,,,,,,,001,2023-11-09_24h33.37.778,vowel_harmony,2023.2.3,MacIntel,60.0024001,411.0225,412.0237,,,,,,,,,,,,,,,,,,,,,,,,,,412.0237,412.5389,m,1,0.4969,,412.5389,412.539,,0,176,176,107,1,108,merak,5806,263.8016,5524,0.6039,5,notharmonic,1.65,word,m,,,,,,,
,,,,,,,,,,,,001,2023-11-09_24h33.37.778,vowel_harmony,2023.2.3,MacIntel,60.0024001,412.5395,413.5397,,,,,,,,,,,,,,,,,,,,,,,,,,413.5398,414.0726,m,1,0.5146,,414.0727,414.0729,,0,177,177,95,1,96,takip,4996,226.9984,4651,0.5084,5,notharmonic,1.55,word,m,,,,,,,
,,,,,,,,,,,,001,2023-11-09_24h33.37.778,vowel_harmony,2023.2.3,MacIntel,60.0024001,414.0735,415.073,,,,,,,,,,,,,,,,,,,,,,,,,,415.073,415.6081,m,1,0.5195,,415.6081,415.6082,,0,178,178,132,1,133,modern,2326,105.6842,2031,0.222,6,notharmonic,1.85,word,m,,,,,,,
,,,,,,,,,,,,001,2023-11-09_24h33.37.778,vowel_harmony,2023.2.3,MacIntel,60.0024001,415.6085,416.6043,,,,,,,,,,,,,,,,,,,,,,,,,,416.6043,417.1567,m,1,0.5351,,417.1568,417.1569,,0,179,179,179,1,180,dakika,5891,267.6637,5207,0.5692,6,notharmonic,1.75,word,m,,,,,,,
,,,,,,,,,,,,001,2023-11-09_24h33.37.778,vowel_harmony,2023.2.3,MacIntel,60.0024001,417.1575,418.1544,,,,,,,,,,,,,,,,,,,,,,,,,,418.1545,418.7557,z,1,0.5833,,418.7558,418.7559,,0,180,180,183,1,184,orkın,,,,,5,harmonic,1.9,nw,z,,,,,,,
,,,,,,,,,,,,001,2023-11-09_24h33.37.778,vowel_harmony,2023.2.3,MacIntel,60.0024001,418.7564,419.7564,,,,,,,,,,,,,,,,,,,,,,,,,,419.7565,420.4399,m,1,0.6645,,420.44,420.4401,,0,181,181,29,1,30,huzur,1911,86.8283,1799,0.1967,5,harmonic,1.8,word,m,,,,,,,
,,,,,,,,,,,,001,2023-11-09_24h33.37.778,vowel_harmony,2023.2.3,MacIntel,60.0024001,420.4404,421.439,,,,,,,,,,,,,,,,,,,,,,,,,,421.439,422.0062,z,1,0.5483,,422.0063,422.0064,,0,182,182,234,1,235,düzöt,,,,,5,harmonic,2.05,nw,z,,,,,,,
,,,,,,,,,,,,001,2023-11-09_24h33.37.778,vowel_harmony,2023.2.3,MacIntel,60.0024001,422.0069,423.0066,,,,,,,,,,,,,,,,,,,,,,,,,,423.0067,423.6544,z,1,0.6328,,423.6544,423.6545,,0,183,183,326,1,327,ailo,,,,,4,notharmonic,1.75,nw,z,,,,,,,
,,,,,,,,,,,,001,2023-11-09_24h33.37.778,vowel_harmony,2023.2.3,MacIntel,60.0024001,423.6548,424.6566,,,,,,,,,,,,,,,,,,,,,,,,,,424.6566,425.2722,z,1,0.5989,,425.2722,425.2723,,0,184,184,224,1,225,ertre,,,,,5,harmonic,1.95,nw,z,,,,,,,
,,,,,,,,,,,,001,2023-11-09_24h33.37.778,vowel_harmony,2023.2.3,MacIntel,60.0024001,425.2727,426.272,,,,,,,,,,,,,,,,,,,,,,,,,,426.272,426.9231,z,1,0.632,,426.9231,426.9232,,0,185,185,215,1,216,aydo,,,,,4,harmonic,1.9,nw,z,,,,,,,
,,,,,,,,,,,,001,2023-11-09_24h33.37.778,vowel_harmony,2023.2.3,MacIntel,60.0024001,426.9238,427.9234,,,,,,,,,,,,,,,,,,,,,,,,,,427.9235,428.7712,m,1,0.8295,,428.7712,428.7714,,0,186,186,109,1,110,milyon,3936,178.8362,2958,0.3234,6,notharmonic,1.75,word,m,,,,,,,
,,,,,,,,,,,,001,2023-11-09_24h33.37.778,vowel_harmony,2023.2.3,MacIntel,60.0024001,428.7719,429.7723,,,,,,,,,,,,,,,,,,,,,,,,,,429.7723,430.3394,m,1,0.5473,,430.3395,430.3395,,0,187,187,53,1,54,gelir,7578,344.3143,7014,0.7668,5,harmonic,1.4,word,m,,,,,,,
,,,,,,,,,,,,001,2023-11-09_24h33.37.778,vowel_harmony,2023.2.3,MacIntel,60.0024001,430.3401,431.341,,,,,,,,,,,,,,,,,,,,,,,,,,431.341,431.922,m,1,0.5632,,431.922,431.9221,,0,188,188,17,1,18,yakın,7990,363.0339,7595,0.8303,5,harmonic,1.8,word,m,,,,,,,
,,,,,,,,,,,,001,2023-11-09_24h33.37.778,vowel_harmony,2023.2.3,MacIntel,60.0024001,431.9224,432.9237,,,,,,,,,,,,,,,,,,,,,,,,,,432.9238,433.6559,z,1,0.7118,,433.656,433.6561,,0,189,189,221,1,222,yaypın,,,,,6,harmonic,1.75,nw,z,,,,,,,
,,,,,,,,,,,,001,2023-11-09_24h33.37.778,vowel_harmony,2023.2.3,MacIntel,60.0024001,433.6565,434.6575,,,,,,,,,,,,,,,,,,,,,,,,,,434.6575,435.2725,z,1,0.604,,435.2726,435.2726,,0,190,190,331,1,332,ehun,,,,,4,notharmonic,1.95,nw,z,,,,,,,
,,,,,,,,,,,,001,2023-11-09_24h33.37.778,vowel_harmony,2023.2.3,MacIntel,60.0024001,435.2734,436.2748,,,,,,,,,,,,,,,,,,,,,,,,,,436.2749,436.923,m,1,0.63,,436.923,436.9231,,0,191,191,164,1,165,sinema,1575,71.5618,1304,0.1426,6,notharmonic,1.8,word,m,,,,,,,
,,,,,,,,,,,,001,2023-11-09_24h33.37.778,vowel_harmony,2023.2.3,MacIntel,60.0024001,436.9235,437.9244,,,,,,,,,,,,,,,,,,,,,,,,,,437.9244,438.5732,z,1,0.632,,438.5734,438.5735,,0,192,192,180,1,181,ayaro,,,,,5,harmonic,1.8,nw,z,,,,,,,
,,,,,,,,,,,,001,2023-11-09_24h33.37.778,vowel_harmony,2023.2.3,MacIntel,60.0024001,438.574,439.5746,,,,,,,,,,,,,,,,,,,,,,,,,,439.5747,440.2076,m,1,0.6165,,440.2077,440.2079,,0,193,193,155,1,156,ilaç,1366,62.0656,1215,0.1328,4,notharmonic,1.75,word,m,,,,,,,
,,,,,,,,,,,,001,2023-11-09_24h33.37.778,vowel_harmony,2023.2.3,MacIntel,60.0024001,440.2084,441.2044,,,,,,,,,,,,,,,,,,,,,,,,,,441.2044,441.8559,z,1,0.635,,441.8559,441.8561,,0,194,194,261,1,262,kardok,,,,,6,harmonic,1.95,nw,z,,,,,,,
,,,,,,,,,,,,001,2023-11-09_24h33.37.778,vowel_harmony,2023.2.3,MacIntel,60.0024001,441.8567,442.8546,,,,,,,,,,,,,,,,,,,,,,,,,,442.8546,443.6072,z,1,0.7333,,443.6073,443.6074,,0,195,195,251,1,252,oştay,,,,,5,harmonic,1.95,nw,z,,,,,,,
,,,,,,,,,,,,001,2023-11-09_24h33.37.778,vowel_harmony,2023.2.3,MacIntel,60.0024001,443.6079,444.6072,,,,,,,,,,,,,,,,,,,,,,,,,,444.6073,445.2072,m,1,0.5871,,445.2072,445.2073,,0,196,196,78,1,79,ulusal,1551,70.4713,1355,0.1481,6,harmonic,1.75,word,m,,,,,,,
,,,,,,,,,,,,001,2023-11-09_24h33.37.778,vowel_harmony,2023.2.3,MacIntel,60.0024001,445.2079,446.208,,,,,,,,,,,,,,,,,,,,,,,,,,446.2082,446.7238,m,1,0.4952,,446.7238,446.724,,0,197,197,63,1,64,sultan,1756,79.7857,1368,0.1496,6,harmonic,1.55,word,m,,,,,,,
,,,,,,,,,,,,001,2023-11-09_24h33.37.778,vowel_harmony,2023.2.3,MacIntel,60.0024001,446.7246,447.7211,,,,,,,,,,,,,,,,,,,,,,,,,,447.7212,448.1726,m,1,0.4349,,448.1726,448.1728,,0,198,198,61,1,62,yıldız,1775,80.649,1532,0.1675,6,harmonic,1.6,word,m,,,,,,,
,,,,,,,,,,,,001,2023-11-09_24h33.37.778,vowel_harmony,2023.2.3,MacIntel,60.0024001,448.1734,449.1743,,,,,,,,,,,,,,,,,,,,,,,,,,449.1744,449.8237,z,1,0.6294,,449.8237,449.8238,,0,199,199,327,1,328,parkeş,,,,,6,notharmonic,1.9,nw,z,,,,,,,
,,,,,,,,,,,,001,2023-11-09_24h33.37.778,vowel_harmony,2023.2.3,MacIntel,60.0024001,449.8242,450.824,,,,,,,,,,,,,,,,,,,,,,,,,,450.824,451.5546,z,1,0.7121,,451.5546,451.5547,,0,200,200,348,1,349,aife,,,,,4,notharmonic,1.75,nw,z,,,,,,,
,,,,,,,,,,,,001,2023-11-09_24h33.37.778,vowel_harmony,2023.2.3,MacIntel,60.0024001,451.5553,452.5572,,,,,,,,,,,,,,,,,,,,,,,,,,452.5573,453.0059,z,0,0.43,,453.0059,453.006,,0,201,201,122,1,123,devam,17666,802.673,16284,1.7802,5,notharmonic,1.55,word,m,,,,,,,
,,,,,,,,,,,,001,2023-11-09_24h33.37.778,vowel_harmony,2023.2.3,MacIntel,60.0024001,453.0064,454.006,,,,,,,,,,,,,,,,,,,,,,,,,,454.006,454.458,m,1,0.4292,,454.458,454.4582,,0,202,202,0,1,1,sanat,3121,141.8059,2485,0.2717,5,harmonic,1.4,word,m,,,,,,,
,,,,,,,,,,,,001,2023-11-09_24h33.37.778,vowel_harmony,2023.2.3,MacIntel,60.0024001,454.4587,455.4583,,,,,,,,,,,,,,,,,,,,,,,,,,455.4583,456.0562,m,1,0.5857,,456.0563,456.0563,,0,203,203,99,1,100,ilave,3173,144.1685,2619,0.2863,5,notharmonic,1.85,word,m,,,,,,,
,,,,,,,,,,,,001,2023-11-09_24h33.37.778,vowel_harmony,2023.2.3,MacIntel,60.0024001,456.0567,457.0575,,,,,,,,,,,,,,,,,,,,,,,,,,457.0575,457.5733,m,1,0.4948,,457.5734,457.5735,,0,204,204,136,1,137,beyaz,5517,250.6706,4788,0.5234,5,notharmonic,1.85,word,m,,,,,,,
,,,,,,,,,,,,001,2023-11-09_24h33.37.778,vowel_harmony,2023.2.3,MacIntel,60.0024001,457.5741,458.5743,,,,,,,,,,,,,,,,,,,,,,,,,,458.5744,459.2739,z,1,0.6811,,459.274,459.2741,,0,205,205,279,1,280,tadde,,,,,5,notharmonic,1.8,nw,z,,,,,,,
,,,,,,,,,,,,001,2023-11-09_24h33.37.778,vowel_harmony,2023.2.3,MacIntel,60.0024001,459.276,460.2729,,,,,,,,,,,,,,,,,,,,,,,,,,460.2729,460.7879,m,1,0.4988,,460.788,460.7882,,0,206,206,68,1,69,ücret,734,33.35,634,0.0693,5,harmonic,1.85,word,m,,,,,,,
,,,,,,,,,,,,001,2023-11-09_24h33.37.778,vowel_harmony,2023.2.3,MacIntel,60.0024001,460.7886,461.789,,,,,,,,,,,,,,,,,,,,,,,,,,461.7891,462.4413,z,1,0.6356,,462.4414,462.4415,,0,207,207,341,1,342,işgan,,,,,5,notharmonic,1.95,nw,z,,,,,,,
,,,,,,,,,,,,001,2023-11-09_24h33.37.778,vowel_harmony,2023.2.3,MacIntel,60.0024001,462.442,463.4402,,,,,,,,,,,,,,,,,,,,,,,,,,463.4403,464.0738,z,1,0.6164,,464.0739,464.074,,0,208,208,240,1,241,hoga,,,,,4,harmonic,1.75,nw,z,,,,,,,
,,,,,,,,,,,,001,2023-11-09_24h33.37.778,vowel_harmony,2023.2.3,MacIntel,60.0024001,464.0745,465.0726,,,,,,,,,,,,,,,,,,,,,,,,,,465.0726,465.7387,z,1,0.6489,,465.7388,465.7389,,0,209,209,270,1,271,miyaj,,,,,5,notharmonic,1.9,nw,z,,,,,,,
,,,,,,,,,,,,001,2023-11-09_24h33.37.778,vowel_harmony,2023.2.3,MacIntel,60.0024001,465.7393,466.7377,,,,,,,,,,,,,,,,,,,,,,,,,,466.7378,467.3239,m,1,0.5732,,467.324,467.3241,,0,210,210,24,1,25,yorgun,1153,52.3877,1108,0.1211,6,harmonic,1.55,word,m,,,,,,,
,,,,,,,,,,,,001,2023-11-09_24h33.37.778,vowel_harmony,2023.2.3,MacIntel,60.0024001,467.3246,468.3248,,,,,,,,,,,,,,,,,,,,,,,,,,468.3248,468.9234,m,1,0.5808,,468.9234,468.9236,,0,211,211,134,1,135,iptal,793,36.0308,725,0.0793,5,notharmonic,1.35,word,m,,,,,,,
,,,,,,,,,,,,001,2023-11-09_24h33.37.778,vowel_harmony,2023.2.3,MacIntel,60.0024001,468.9241,469.9223,,,,,,,,,,,,,,,,,,,,,,,,,,469.9224,470.507,m,1,0.5649,,470.5071,470.5072,,0,212,212,87,1,88,mümkün,6604,300.0596,6264,0.6848,6,harmonic,1.9,word,m,,,,,,,
,,,,,,,,,,,,001,2023-11-09_24h33.37.778,vowel_harmony,2023.2.3,MacIntel,60.0024001,470.5078,471.5061,,,,,,,,,,,,,,,,,,,,,,,,,,471.5062,472.0711,z,1,0.546,,472.0712,472.0713,,0,213,213,201,1,202,ergiy,,,,,5,harmonic,1.85,nw,z,,,,,,,
,,,,,,,,,,,,001,2023-11-09_24h33.37.778,vowel_harmony,2023.2.3,MacIntel,60.0024001,472.0719,473.0726,,,,,,,,,,,,,,,,,,,,,,,,,,473.0726,473.6896,m,1,0.599,,473.6896,473.6897,,0,214,214,93,1,94,siyah,2944,133.7637,2527,0.2763,5,notharmonic,1.6,word,m,,,,,,,
,,,,,,,,,,,,001,2023-11-09_24h33.37.778,vowel_harmony,2023.2.3,MacIntel,60.0024001,473.6903,474.6892,,,,,,,,,,,,,,,,,,,,,,,,,,474.6892,475.2878,z,1,0.5822,,475.2879,475.288,,0,215,215,226,1,227,tefem,,,,,5,harmonic,1.75,nw,z,,,,,,,
,,,,,,,,,,,,001,2023-11-09_24h33.37.778,vowel_harmony,2023.2.3,MacIntel,60.0024001,475.2886,476.291,,,,,,,,,,,,,,,,,,,,,,,,,,476.2911,476.8577,m,1,0.5472,,476.8577,476.8578,,0,216,216,7,1,8,hizmet,3023,137.3531,2689,0.294,6,harmonic,1.75,word,m,,,,,,,
,,,,,,,,,,,,001,2023-11-09_24h33.37.778,vowel_harmony,2023.2.3,MacIntel,60.0024001,476.8584,477.8564,,,,,,,,,,,,,,,,,,,,,,,,,,477.8565,478.5072,z,1,0.6309,,478.5072,478.5074,,0,217,217,265,1,266,parula,,,,,6,harmonic,1.75,nw,z,,,,,,,
,,,,,,,,,,,,001,2023-11-09_24h33.37.778,vowel_harmony,2023.2.3,MacIntel,60.0024001,478.5079,479.5081,,,,,,,,,,,,,,,,,,,,,,,,,,479.5082,480.0233,m,1,0.4952,,480.0234,480.0235,,0,218,218,167,1,168,adalet,1611,73.1975,1388,0.1517,6,notharmonic,1.65,word,m,,,,,,,
,,,,,,,,,,,,001,2023-11-09_24h33.37.778,vowel_harmony,2023.2.3,MacIntel,60.0024001,480.0239,481.0238,,,,,,,,,,,,,,,,,,,,,,,,,,481.0239,481.6394,m,1,0.6003,,481.6394,481.6395,,0,219,219,16,1,17,yavaş,5087,231.1331,2886,0.3155,5,harmonic,1.6,word,m,,,,,,,
,,,,,,,,,,,,001,2023-11-09_24h33.37.778,vowel_harmony,2023.2.3,MacIntel,60.0024001,481.64,482.6382,,,,,,,,,,,,,,,,,,,,,,,,,,482.6383,483.2414,z,1,0.5815,,483.2414,483.2416,,0,220,220,324,1,325,pakeh,,,,,5,notharmonic,1.9,nw,z,,,,,,,
,,,,,,,,,,,,001,2023-11-09_24h33.37.778,vowel_harmony,2023.2.3,MacIntel,60.0024001,483.2421,484.2382,,,,,,,,,,,,,,,,,,,,,,,,,,484.2383,485.0583,z,1,0.8069,,485.0584,485.0585,,0,221,221,294,1,295,mesap,,,,,5,notharmonic,1.8,nw,z,,,,,,,
,,,,,,,,,,,,001,2023-11-09_24h33.37.778,vowel_harmony,2023.2.3,MacIntel,60.0024001,485.059,486.0582,,,,,,,,,,,,,,,,,,,,,,,,,,486.0582,486.6548,m,1,0.5814,,486.6549,486.655,,0,222,222,57,1,58,bölüm,1910,86.7828,1605,0.1755,5,harmonic,1.45,word,m,,,,,,,
,,,,,,,,,,,,001,2023-11-09_24h33.37.778,vowel_harmony,2023.2.3,MacIntel,60.0024001,486.6555,487.6548,,,,,,,,,,,,,,,,,,,,,,,,,,487.6549,488.158,m,1,0.483,,488.158,488.1581,,0,223,223,31,1,32,fazla,18293,831.1614,16694,1.825,5,harmonic,1,word,m,,,,,,,
,,,,,,,,,,,,001,2023-11-09_24h33.37.778,vowel_harmony,2023.2.3,MacIntel,60.0024001,488.1586,489.1578,,,,,,,,,,,,,,,,,,,,,,,,,,489.1578,489.7246,z,1,0.5486,,489.7247,489.7248,,0,224,224,246,1,247,orkın,,,,,5,harmonic,1.9,nw,z,,,,,,,
,,,,,,,,,,,,001,2023-11-09_24h33.37.778,vowel_harmony,2023.2.3,MacIntel,60.0024001,489.7252,490.7236,,,,,,,,,,,,,,,,,,,,,,,,,,490.7237,491.3245,m,1,0.5871,,491.3246,491.3247,,0,225,225,159,1,160,vakit,3476,157.9357,3298,0.3605,5,notharmonic,1.65,word,m,,,,,,,
,,,,,,,,,,,,001,2023-11-09_24h33.37.778,vowel_harmony,2023.2.3,MacIntel,60.0024001,491.3252,492.324,,,,,,,,,,,,,,,,,,,,,,,,,,492.3241,492.9382,m,1,0.596,,492.9382,492.9383,,0,226,226,89,1,90,etki,1234,56.0681,1169,0.1278,4,harmonic,1.4,word,m,,,,,,,
,,,,,,,,,,,,001,2023-11-09_24h33.37.778,vowel_harmony,2023.2.3,MacIntel,60.0024001,492.9387,493.9393,,,,,,,,,,,,,,,,,,,,,,,,,,493.9394,494.6084,z,1,0.6479,,494.6085,494.6086,,0,227,227,196,1,197,bilön,,,,,5,harmonic,1.9,nw,z,,,,,,,
,,,,,,,,,,,,001,2023-11-09_24h33.37.778,vowel_harmony,2023.2.3,MacIntel,60.0024001,494.6093,495.6062,,,,,,,,,,,,,,,,,,,,,,,,,,495.6063,496.2383,z,1,0.6143,,496.2383,496.2385,,0,228,228,235,1,236,oşup,,,,,4,harmonic,1.75,nw,z,,,,,,,
,,,,,,,,,,,,001,2023-11-09_24h33.37.778,vowel_harmony,2023.2.3,MacIntel,60.0024001,496.239,497.239,,,,,,,,,,,,,,,,,,,,,,,,,,497.239,497.8229,m,1,0.5646,,497.823,497.8231,,0,229,229,73,1,74,millet,1658,75.3329,1508,0.1649,6,harmonic,1.7,word,m,,,,,,,
,,,,,,,,,,,,001,2023-11-09_24h33.37.778,vowel_harmony,2023.2.3,MacIntel,60.0024001,497.8236,498.8249,,,,,,,,,,,,,,,,,,,,,,,,,,498.8249,499.4916,z,1,0.6458,,499.4918,499.4918,,0,230,230,302,1,303,işgar,,,,,5,notharmonic,1.9,nw,z,,,,,,,
,,,,,,,,,,,,001,2023-11-09_24h33.37.778,vowel_harmony,2023.2.3,MacIntel,60.0024001,499.4924,500.4919,,,,,,,,,,,,,,,,,,,,,,,,,,500.492,501.0565,m,1,0.5461,,501.0565,501.0566,,0,231,231,111,1,112,kahve,2634,119.6785,2283,0.2496,5,notharmonic,1.85,word,m,,,,,,,
,,,,,,,,,,,,001,2023-11-09_24h33.37.778,vowel_harmony,2023.2.3,MacIntel,60.0024001,501.0572,502.055,,,,,,,,,,,,,,,,,,,,,,,,,,502.0551,502.5384,m,1,0.4624,,502.5385,502.5386,,0,232,232,177,1,178,tekrar,10788,490.1639,9352,1.0224,6,notharmonic,1.85,word,m,,,,,,,
,,,,,,,,,,,,001,2023-11-09_24h33.37.778,vowel_harmony,2023.2.3,MacIntel,60.0024001,502.5392,503.5423,,,,,,,,,,,,,,,,,,,,,,,,,,503.5423,504.2077,z,1,0.6494,,504.2077,504.2079,,0,233,233,323,1,324,devak,,,,,5,notharmonic,1.75,nw,z,,,,,,,
,,,,,,,,,,,,001,2023-11-09_24h33.37.778,vowel_harmony,2023.2.3,MacIntel,60.0024001,504.2084,505.2078,,,,,,,,,,,,,,,,,,,,,,,,,,505.2078,505.8244,z,1,0.6008,,505.8244,505.8246,,0,234,234,242,1,243,kahon,,,,,5,harmonic,1.85,nw,z,,,,,,,
,,,,,,,,,,,,001,2023-11-09_24h33.37.778,vowel_harmony,2023.2.3,MacIntel,60.0024001,505.8251,506.8228,,,,,,,,,,,,,,,,,,,,,,,,,,506.8228,507.4051,z,1,0.5654,,507.4052,507.4053,,0,235,235,288,1,289,molit,,,,,5,notharmonic,1.95,nw,z,,,,,,,
,,,,,,,,,,,,001,2023-11-09_24h33.37.778,vowel_harmony,2023.2.3,MacIntel,60.0024001,507.4058,508.4063,,,,,,,,,,,,,,,,,,,,,,,,,,508.4064,508.9748,z,1,0.5512,,508.9748,508.9749,,0,236,236,346,1,347,kidan,,,,,5,notharmonic,1.8,nw,z,,,,,,,
,,,,,,,,,,,,001,2023-11-09_24h33.37.778,vowel_harmony,2023.2.3,MacIntel,60.0024001,508.9755,509.9728,,,,,,,,,,,,,,,,,,,,,,,,,,509.9729,510.6226,m,1,0.6325,,510.6226,510.6228,,0,237,237,34,1,35,hoca,1893,86.0104,1526,0.1668,4,harmonic,1.45,word,m,,,,,,,
,,,,,,,,,,,,001,2023-11-09_24h33.37.778,vowel_harmony,2023.2.3,MacIntel,60.0024001,510.6232,511.6256,,,,,,,,,,,,,,,,,,,,,,,,,,511.6256,512.174,m,1,0.5287,,512.1741,512.1743,,0,238,238,72,1,73,çorba,1674,76.0599,1513,0.1654,5,harmonic,1.75,word,m,,,,,,,
,,,,,,,,,,,,001,2023-11-09_24h33.37.778,vowel_harmony,2023.2.3,MacIntel,60.0024001,512.175,513.1726,,,,,,,,,,,,,,,,,,,,,,,,,,513.1727,513.7253,z,1,0.5373,,513.7254,513.7254,,0,239,239,336,1,337,diyam,,,,,5,notharmonic,1.85,nw,z,,,,,,,
,,,,,,,,,,,,001,2023-11-09_24h33.37.778,vowel_harmony,2023.2.3,MacIntel,60.0024001,513.7259,514.7245,,,,,,,,,,,,,,,,,,,,,,,,,,514.7246,515.3743,z,1,0.6297,,515.3744,537.242,space,0,240,240,309,1,310,yorgen,,,,,6,notharmonic,1.9,nw,z,21.8525,,,,,,
,,,,,,,,,,,,001,2023-11-09_24h33.37.778,vowel_harmony,2023.2.3,MacIntel,60.0024001,537.256,538.2556,,,,,,,,,,,,,,,,,,,,,,,,,,538.2556,538.9717,m,1,0.6969,,538.9718,538.9719,,0,241,241,112,1,113,sezon,2315,105.1844,1917,0.2096,5,notharmonic,1.8,word,m,,,,,,,
,,,,,,,,,,,,001,2023-11-09_24h33.37.778,vowel_harmony,2023.2.3,MacIntel,60.0024001,538.9723,539.9756,,,,,,,,,,,,,,,,,,,,,,,,,,539.9757,540.4727,m,1,0.4817,,540.4728,540.4729,,0,242,242,74,1,75,başarı,1398,63.5196,1300,0.1421,6,harmonic,1.2,word,m,,,,,,,
,,,,,,,,,,,,001,2023-11-09_24h33.37.778,vowel_harmony,2023.2.3,MacIntel,60.0024001,540.4735,541.4733,,,,,,,,,,,,,,,,,,,,,,,,,,541.4733,542.2556,z,1,0.7645,,542.2556,542.2557,,0,243,243,301,1,302,mezak,,,,,5,notharmonic,1.8,nw,z,,,,,,,
,,,,,,,,,,,,001,2023-11-09_24h33.37.778,vowel_harmony,2023.2.3,MacIntel,60.0024001,542.2562,543.259,,,,,,,,,,,,,,,,,,,,,,,,,,543.259,543.8573,z,1,0.5802,,543.8574,543.8575,,0,244,244,304,1,305,annö,,,,,4,notharmonic,1.95,nw,z,,,,,,,
,,,,,,,,,,,,001,2023-11-09_24h33.37.778,vowel_harmony,2023.2.3,MacIntel,60.0024001,543.8583,544.8568,,,,,,,,,,,,,,,,,,,,,,,,,,544.8568,545.3742,m,1,0.4963,,545.3743,545.3743,,0,245,245,108,1,109,tarih,2806,127.4935,2483,0.2714,5,notharmonic,1.55,word,m,,,,,,,
,,,,,,,,,,,,001,2023-11-09_24h33.37.778,vowel_harmony,2023.2.3,MacIntel,60.0024001,545.3748,546.3736,,,,,,,,,,,,,,,,,,,,,,,,,,546.3736,546.9586,z,1,0.5682,,546.9586,546.9587,,0,246,246,291,1,292,mepan,,,,,5,notharmonic,1.75,nw,z,,,,,,,
,,,,,,,,,,,,001,2023-11-09_24h33.37.778,vowel_harmony,2023.2.3,MacIntel,60.0024001,546.9593,547.9585,,,,,,,,,,,,,,,,,,,,,,,,,,547.9586,548.6091,z,1,0.6331,,548.6091,548.6092,,0,247,247,257,1,258,zerü,,,,,4,harmonic,1.8,nw,z,,,,,,,
,,,,,,,,,,,,001,2023-11-09_24h33.37.778,vowel_harmony,2023.2.3,MacIntel,60.0024001,548.6098,549.6055,,,,,,,,,,,,,,,,,,,,,,,,,,549.6056,550.2077,z,1,0.5836,,550.2079,550.208,,0,248,248,337,1,338,bakem,,,,,5,notharmonic,1.7,nw,z,,,,,,,
,,,,,,,,,,,,001,2023-11-09_24h33.37.778,vowel_harmony,2023.2.3,MacIntel,60.0024001,550.2087,551.2071,,,,,,,,,,,,,,,,,,,,,,,,,,551.2072,551.9237,m,1,0.697,,551.9238,551.9239,,0,249,249,143,1,144,kitap,8359,379.7998,6786,0.7418,5,notharmonic,1.9,word,m,,,,,,,
,,,,,,,,,,,,001,2023-11-09_24h33.37.778,vowel_harmony,2023.2.3,MacIntel,60.0024001,551.9244,552.9245,,,,,,,,,,,,,,,,,,,,,,,,,,552.9245,553.5237,m,1,0.5873,,553.5238,553.5239,,0,250,250,151,1,152,ateş,2108,95.7792,1803,0.1971,4,notharmonic,1.65,word,m,,,,,,,
,,,,,,,,,,,,001,2023-11-09_24h33.37.778,vowel_harmony,2023.2.3,MacIntel,60.0024001,553.5244,554.5237,,,,,,,,,,,,,,,,,,,,,,,,,,554.5237,555.1233,m,1,0.5805,,555.1233,555.1235,,0,251,251,22,1,23,anlam,1730,78.6043,1617,0.1768,5,harmonic,1.25,word,m,,,,,,,
,,,,,,,,,,,,001,2023-11-09_24h33.37.778,vowel_harmony,2023.2.3,MacIntel,60.0024001,555.124,556.1234,,,,,,,,,,,,,,,,,,,,,,,,,,556.1235,556.8073,z,1,0.6639,,556.8075,556.8076,,0,252,252,237,1,238,taşal,,,,,5,harmonic,1.8,nw,z,,,,,,,
,,,,,,,,,,,,001,2023-11-09_24h33.37.778,vowel_harmony,2023.2.3,MacIntel,60.0024001,556.8081,557.8061,,,,,,,,,,,,,,,,,,,,,,,,,,557.8061,558.4055,z,1,0.5821,,558.4056,558.4058,,0,253,253,278,1,279,sekon,,,,,5,notharmonic,1.85,nw,z,,,,,,,
,,,,,,,,,,,,001,2023-11-09_24h33.37.778,vowel_harmony,2023.2.3,MacIntel,60.0024001,558.4063,559.4084,,,,,,,,,,,,,,,,,,,,,,,,,,559.4085,560.075,z,1,0.6506,,560.0751,560.0751,,0,254,254,306,1,307,otet,,,,,4,notharmonic,1.95,nw,z,,,,,,,
,,,,,,,,,,,,001,2023-11-09_24h33.37.778,vowel_harmony,2023.2.3,MacIntel,60.0024001,560.0756,561.0734,,,,,,,,,,,,,,,,,,,,,,,,,,561.0736,561.7238,z,1,0.6296,,561.7239,561.724,,0,255,255,321,1,322,makih,,,,,5,notharmonic,1.8,nw,z,,,,,,,
,,,,,,,,,,,,001,2023-11-09_24h33.37.778,vowel_harmony,2023.2.3,MacIntel,60.0024001,561.7245,562.7237,,,,,,,,,,,,,,,,,,,,,,,,,,562.7237,563.1891,z,0,0.4506,,563.1891,563.1892,,0,256,256,70,1,71,yarın,3440,156.3,3222,0.3522,5,harmonic,1.85,word,m,,,,,,,
,,,,,,,,,,,,001,2023-11-09_24h33.37.778,vowel_harmony,2023.2.3,MacIntel,60.0024001,563.1898,564.1906,,,,,,,,,,,,,,,,,,,,,,,,,,564.1907,564.7739,m,1,0.5645,,564.7739,564.774,,0,257,257,96,1,97,dahil,3189,144.8955,3060,0.3345,5,notharmonic,1.7,word,m,,,,,,,
,,,,,,,,,,,,001,2023-11-09_24h33.37.778,vowel_harmony,2023.2.3,MacIntel,60.0024001,564.7745,565.7736,,,,,,,,,,,,,,,,,,,,,,,,,,565.7737,566.4414,z,1,0.6468,,566.4414,566.4415,,0,258,258,222,1,223,gelü,,,,,4,harmonic,1.75,nw,z,,,,,,,
,,,,,,,,,,,,001,2023-11-09_24h33.37.778,vowel_harmony,2023.2.3,MacIntel,60.0024001,566.4419,567.4398,,,,,,,,,,,,,,,,,,,,,,,,,,567.4398,567.9906,m,1,0.532,,567.9906,567.9908,,0,259,259,75,1,76,roman,1499,68.1086,1281,0.14,5,harmonic,1.6,word,m,,,,,,,
,,,,,,,,,,,,001,2023-11-09_24h33.37.778,vowel_harmony,2023.2.3,MacIntel,60.0024001,567.9913,568.9893,,,,,,,,,,,,,,,,,,,,,,,,,,568.9893,569.6239,m,1,0.6159,,569.624,569.6241,,0,260,260,49,1,50,şeker,4708,213.9128,4170,0.4559,5,harmonic,1.6,word,m,,,,,,,
,,,,,,,,,,,,001,2023-11-09_24h33.37.778,vowel_harmony,2023.2.3,MacIntel,60.0024001,569.6247,570.6234,,,,,,,,,,,,,,,,,,,,,,,,,,570.6235,571.159,m,1,0.5216,,571.159,571.1591,,0,261,261,168,1,169,kilo,3389,153.9827,2646,0.2893,4,notharmonic,1.65,word,m,,,,,,,
,,,,,,,,,,,,001,2023-11-09_24h33.37.778,vowel_harmony,2023.2.3,MacIntel,60.0024001,571.1597,572.1565,,,,,,,,,,,,,,,,,,,,,,,,,,572.1566,572.7735,z,1,0.5999,,572.7735,572.7736,,0,262,262,185,1,186,örtin,,,,,5,harmonic,1.9,nw,z,,,,,,,
,,,,,,,,,,,,001,2023-11-09_24h33.37.778,vowel_harmony,2023.2.3,MacIntel,60.0024001,572.7743,573.7735,,,,,,,,,,,,,,,,,,,,,,,,,,573.7735,574.5229,z,1,0.7362,,574.5229,574.5231,,0,263,263,223,1,224,kakon,,,,,5,harmonic,1.85,nw,z,,,,,,,
,,,,,,,,,,,,001,2023-11-09_24h33.37.778,vowel_harmony,2023.2.3,MacIntel,60.0024001,574.5236,575.5258,,,,,,,,,,,,,,,,,,,,,,,,,,575.5259,576.409,m,1,0.8634,,576.4091,576.4092,,0,264,264,139,1,140,lira,1253,56.9314,947,0.1035,4,notharmonic,1.4,word,m,,,,,,,
,,,,,,,,,,,,001,2023-11-09_24h33.37.778,vowel_harmony,2023.2.3,MacIntel,60.0024001,576.4098,577.409,,,,,,,,,,,,,,,,,,,,,,,,,,577.409,578.1055,z,1,0.6781,,578.1056,578.1057,,0,265,265,310,1,311,yandeş,,,,,6,notharmonic,1.95,nw,z,,,,,,,
,,,,,,,,,,,,001,2023-11-09_24h33.37.778,vowel_harmony,2023.2.3,MacIntel,60.0024001,578.1063,579.1084,,,,,,,,,,,,,,,,,,,,,,,,,,579.1085,579.6086,m,1,0.4788,,579.6087,579.6089,,0,266,266,51,1,52,ilginç,2803,127.3572,2690,0.2941,6,harmonic,1.8,word,m,,,,,,,
,,,,,,,,,,,,001,2023-11-09_24h33.37.778,vowel_harmony,2023.2.3,MacIntel,60.0024001,579.6095,580.6084,,,,,,,,,,,,,,,,,,,,,,,,,,580.6084,581.1419,m,1,0.5189,,581.1419,581.142,,0,267,267,119,1,120,kulüp,649,29.488,467,0.0511,5,notharmonic,1.4,word,m,,,,,,,
,,,,,,,,,,,,001,2023-11-09_24h33.37.778,vowel_harmony,2023.2.3,MacIntel,60.0024001,581.1427,582.1424,,,,,,,,,,,,,,,,,,,,,,,,,,582.1425,582.924,z,1,0.7629,,582.924,582.9242,,0,268,268,274,1,275,pisan,,,,,5,notharmonic,1.75,nw,z,,,,,,,
,,,,,,,,,,,,001,2023-11-09_24h33.37.778,vowel_harmony,2023.2.3,MacIntel,60.0024001,582.9247,583.9238,,,,,,,,,,,,,,,,,,,,,,,,,,583.9239,584.4928,m,1,0.5469,,584.4929,584.493,,0,269,269,170,1,171,basit,3385,153.801,3177,0.3473,5,notharmonic,1.65,word,m,,,,,,,
,,,,,,,,,,,,001,2023-11-09_24h33.37.778,vowel_harmony,2023.2.3,MacIntel,60.0024001,584.4937,585.4929,,,,,,,,,,,,,,,,,,,,,,,,,,585.4929,586.1401,z,1,0.6294,,586.1402,586.1402,,0,270,270,268,1,269,haldum,,,,,6,harmonic,2,nw,z,,,,,,,
,,,,,,,,,,,,001,2023-11-09_24h33.37.778,vowel_harmony,2023.2.3,MacIntel,60.0024001,586.1409,587.1405,,,,,,,,,,,,,,,,,,,,,,,,,,587.1406,587.7425,m,1,0.5809,,587.7425,587.7426,,0,271,271,173,1,174,sade,1193,54.2052,1114,0.1218,4,notharmonic,1.55,word,m,,,,,,,
,,,,,,,,,,,,001,2023-11-09_24h33.37.778,vowel_harmony,2023.2.3,MacIntel,60.0024001,587.7432,588.7415,,,,,,,,,,,,,,,,,,,,,,,,,,588.7415,589.4078,z,1,0.6458,,589.4079,589.408,,0,272,272,206,1,207,bevek,,,,,5,harmonic,1.75,nw,z,,,,,,,
,,,,,,,,,,,,001,2023-11-09_24h33.37.778,vowel_harmony,2023.2.3,MacIntel,60.0024001,589.4086,590.4094,,,,,,,,,,,,,,,,,,,,,,,,,,590.4095,591.1726,z,1,0.7508,,591.1726,591.1727,,0,273,273,275,1,276,tahçe,,,,,5,notharmonic,1.95,nw,z,,,,,,,
,,,,,,,,,,,,001,2023-11-09_24h33.37.778,vowel_harmony,2023.2.3,MacIntel,60.0024001,591.173,592.1724,,,,,,,,,,,,,,,,,,,,,,,,,,592.1724,592.775,z,1,0.5863,,592.7751,592.7752,,0,274,274,213,1,214,kaun,,,,,4,harmonic,1.7,nw,z,,,,,,,
,,,,,,,,,,,,001,2023-11-09_24h33.37.778,vowel_harmony,2023.2.3,MacIntel,60.0024001,592.7757,593.7754,,,,,,,,,,,,,,,,,,,,,,,,,,593.7755,594.4235,z,1,0.6295,,594.4235,594.4236,,0,275,275,333,1,334,heyran,,,,,6,notharmonic,1.85,nw,z,,,,,,,
,,,,,,,,,,,,001,2023-11-09_24h33.37.778,vowel_harmony,2023.2.3,MacIntel,60.0024001,594.424,595.4261,,,,,,,,,,,,,,,,,,,,,,,,,,595.4262,596.2923,z,1,0.8476,,596.2924,596.2925,,0,276,276,357,1,358,işarek,,,,,6,notharmonic,1.95,nw,z,,,,,,,
,,,,,,,,,,,,001,2023-11-09_24h33.37.778,vowel_harmony,2023.2.3,MacIntel,60.0024001,596.293,597.2922,,,,,,,,,,,,,,,,,,,,,,,,,,597.2923,597.923,z,1,0.6121,,597.923,597.9231,,0,277,277,334,1,335,işgan,,,,,5,notharmonic,1.95,nw,z,,,,,,,
,,,,,,,,,,,,001,2023-11-09_24h33.37.778,vowel_harmony,2023.2.3,MacIntel,60.0024001,597.9236,598.9264,,,,,,,,,,,,,,,,,,,,,,,,,,598.9266,599.4735,z,1,0.5313,,599.4735,599.4736,,0,278,278,262,1,263,sauk,,,,,4,harmonic,1.85,nw,z,,,,,,,
,,,,,,,,,,,,001,2023-11-09_24h33.37.778,vowel_harmony,2023.2.3,MacIntel,60.0024001,599.474,600.4756,,,,,,,,,,,,,,,,,,,,,,,,,,600.4756,601.0395,m,1,0.5467,,601.0395,601.0396,,0,279,279,129,1,130,tahmin,2353,106.911,2273,0.2485,6,notharmonic,1.6,word,m,,,,,,,
,,,,,,,,,,,,001,2023-11-09_24h33.37.778,vowel_harmony,2023.2.3,MacIntel,60.0024001,601.0402,602.0423,,,,,,,,,,,,,,,,,,,,,,,,,,602.0424,602.6729,z,1,0.6124,,602.6729,602.6731,,0,280,280,190,1,191,reklen,,,,,6,harmonic,1.8,nw,z,,,,,,,
,,,,,,,,,,,,001,2023-11-09_24h33.37.778,vowel_harmony,2023.2.3,MacIntel,60.0024001,602.6737,603.6728,,,,,,,,,,,,,,,,,,,,,,,,,,603.6728,604.3254,z,1,0.6339,,604.3255,604.3256,,0,281,281,182,1,183,orsın,,,,,5,harmonic,1.95,nw,z,,,,,,,
,,,,,,,,,,,,001,2023-11-09_24h33.37.778,vowel_harmony,2023.2.3,MacIntel,60.0024001,604.3261,605.3228,,,,,,,,,,,,,,,,,,,,,,,,,,605.3228,605.9228,z,1,0.5826,,605.9229,605.923,,0,282,282,314,1,315,seral,,,,,5,notharmonic,1.7,nw,z,,,,,,,
,,,,,,,,,,,,001,2023-11-09_24h33.37.778,vowel_harmony,2023.2.3,MacIntel,60.0024001,605.9237,606.9261,,,,,,,,,,,,,,,,,,,,,,,,,,606.9262,607.4411,m,1,0.4948,,607.4411,607.4413,,0,283,283,67,1,68,bayram,1948,88.5094,1648,0.1802,6,harmonic,1.85,word,m,,,,,,,
,,,,,,,,,,,,001,2023-11-09_24h33.37.778,vowel_harmony,2023.2.3,MacIntel,60.0024001,607.4418,608.4406,,,,,,,,,,,,,,,,,,,,,,,,,,608.4407,608.99,m,1,0.5324,,608.9901,608.9903,,0,284,284,30,1,31,çevre,1662,75.5147,1409,0.154,5,harmonic,1.55,word,m,,,,,,,
,,,,,,,,,,,,001,2023-11-09_24h33.37.778,vowel_harmony,2023.2.3,MacIntel,60.0024001,608.9908,609.9928,,,,,,,,,,,,,,,,,,,,,,,,,,609.9928,610.6245,z,1,0.6111,,610.6246,610.6247,,0,285,285,299,1,300,fihal,,,,,5,notharmonic,1.95,nw,z,,,,,,,
,,,,,,,,,,,,001,2023-11-09_24h33.37.778,vowel_harmony,2023.2.3,MacIntel,60.0024001,610.6253,611.6241,,,,,,,,,,,,,,,,,,,,,,,,,,611.6242,612.2392,m,1,0.5996,,612.2392,612.2393,,0,286,286,59,1,60,köpek,1044,47.4352,901,0.0985,5,harmonic,1.75,word,m,,,,,,,
,,,,,,,,,,,,001,2023-11-09_24h33.37.778,vowel_harmony,2023.2.3,MacIntel,60.0024001,612.2398,613.2395,,,,,,,,,,,,,,,,,,,,,,,,,,613.2395,613.6918,m,1,0.4337,,613.6919,613.6919,,0,287,287,86,1,87,gerçek,8983,408.1519,8058,0.8809,6,harmonic,1.7,word,m,,,,,,,
,,,,,,,,,,,,001,2023-11-09_24h33.37.778,vowel_harmony,2023.2.3,MacIntel,60.0024001,613.6925,614.6894,,,,,,,,,,,,,,,,,,,,,,,,,,614.6894,615.3238,z,1,0.6169,,615.3239,615.3241,,0,288,288,248,1,249,şegim,,,,,5,harmonic,1.9,nw,z,,,,,,,
,,,,,,,,,,,,001,2023-11-09_24h33.37.778,vowel_harmony,2023.2.3,MacIntel,60.0024001,615.3246,616.3261,,,,,,,,,,,,,,,,,,,,,,,,,,616.3261,617.0571,z,1,0.7128,,617.0572,617.0572,,0,289,289,284,1,285,deval,,,,,5,notharmonic,1.75,nw,z,,,,,,,
,,,,,,,,,,,,001,2023-11-09_24h33.37.778,vowel_harmony,2023.2.3,MacIntel,60.0024001,617.0579,618.0587,,,,,,,,,,,,,,,,,,,,,,,,,,618.0588,618.7259,z,1,0.6449,,618.726,618.7261,,0,290,290,276,1,277,iptap,,,,,5,notharmonic,1.95,nw,z,,,,,,,
,,,,,,,,,,,,001,2023-11-09_24h33.37.778,vowel_harmony,2023.2.3,MacIntel,60.0024001,618.7267,619.723,,,,,,,,,,,,,,,,,,,,,,,,,,619.723,620.5229,m,1,0.7824,,620.5229,620.5231,,0,291,291,46,1,47,takım,4370,198.5555,3726,0.4073,5,harmonic,1.7,word,m,,,,,,,
,,,,,,,,,,,,001,2023-11-09_24h33.37.778,vowel_harmony,2023.2.3,MacIntel,60.0024001,620.5235,621.524,,,,,,,,,,,,,,,,,,,,,,,,,,621.524,622.208,z,1,0.6633,,622.2081,622.2082,,0,292,292,358,1,359,yangin,,,,,6,notharmonic,1.9,nw,z,,,,,,,
,,,,,,,,,,,,001,2023-11-09_24h33.37.778,vowel_harmony,2023.2.3,MacIntel,60.0024001,622.2087,623.2092,,,,,,,,,,,,,,,,,,,,,,,,,,623.2092,623.8413,m,1,0.6208,,623.8414,623.8415,,0,293,293,65,1,66,fikir,2552,115.9528,2413,0.2638,5,harmonic,1.9,word,m,,,,,,,
,,,,,,,,,,,,001,2023-11-09_24h33.37.778,vowel_harmony,2023.2.3,MacIntel,60.0024001,623.8422,624.8415,,,,,,,,,,,,,,,,,,,,,,,,,,624.8415,625.5924,z,1,0.7368,,625.5925,625.5925,,0,294,294,203,1,204,döves,,,,,5,harmonic,1.8,nw,z,,,,,,,
,,,,,,,,,,,,001,2023-11-09_24h33.37.778,vowel_harmony,2023.2.3,MacIntel,60.0024001,625.5931,626.5931,,,,,,,,,,,,,,,,,,,,,,,,,,626.5931,627.2227,m,1,0.6137,,627.2227,627.2229,,0,295,295,39,1,40,yaygın,1061,48.2076,1019,0.1114,6,harmonic,1.35,word,m,,,,,,,
,,,,,,,,,,,,001,2023-11-09_24h33.37.778,vowel_harmony,2023.2.3,MacIntel,60.0024001,627.2233,628.2254,,,,,,,,,,,,,,,,,,,,,,,,,,628.2254,628.8229,z,1,0.5835,,628.823,628.8231,,0,296,296,328,1,329,kirul,,,,,5,notharmonic,1.95,nw,z,,,,,,,
,,,,,,,,,,,,001,2023-11-09_24h33.37.778,vowel_harmony,2023.2.3,MacIntel,60.0024001,628.8236,629.8244,,,,,,,,,,,,,,,,,,,,,,,,,,629.8244,630.5417,m,1,0.697,,630.5417,630.5418,,0,297,297,12,1,13,konu,5400,245.3546,5110,0.5586,4,harmonic,1,word,m,,,,,,,
,,,,,,,,,,,,001,2023-11-09_24h33.37.778,vowel_harmony,2023.2.3,MacIntel,60.0024001,630.5423,631.5405,,,,,,,,,,,,,,,,,,,,,,,,,,631.5406,632.075,m,1,0.5118,,632.075,632.0751,,0,298,298,178,1,179,dikkat,6230,283.0665,5888,0.6437,6,notharmonic,2.05,word,m,,,,,,,
,,,,,,,,,,,,001,2023-11-09_24h33.37.778,vowel_harmony,2023.2.3,MacIntel,60.0024001,632.0756,633.0757,,,,,,,,,,,,,,,,,,,,,,,,,,633.0757,633.7907,z,1,0.6946,,633.7908,633.7909,,0,299,299,316,1,317,misaf,,,,,5,notharmonic,1.85,nw,z,,,,,,,
,,,,,,,,,,,,001,2023-11-09_24h33.37.778,vowel_harmony,2023.2.3,MacIntel,60.0024001,633.7914,634.793,,,,,,,,,,,,,,,,,,,,,,,,,,634.793,635.4927,z,1,0.6807,,635.4928,635.4928,,0,300,300,338,1,339,pardön,,,,,6,notharmonic,1.95,nw,z,,,,,,,
,,,,,,,,,,,,001,2023-11-09_24h33.37.778,vowel_harmony,2023.2.3,MacIntel,60.0024001,635.4934,636.4929,,,,,,,,,,,,,,,,,,,,,,,,,,636.4929,637.223,z,1,0.7129,,637.2231,637.2232,,0,301,301,184,1,185,yapor,,,,,5,harmonic,1.9,nw,z,,,,,,,
,,,,,,,,,,,,001,2023-11-09_24h33.37.778,vowel_harmony,2023.2.3,MacIntel,60.0024001,637.2238,638.2249,,,,,,,,,,,,,,,,,,,,,,,,,,638.2249,638.8238,z,1,0.5804,,638.8239,638.8241,,0,302,302,290,1,291,aipa,,,,,4,notharmonic,1.95,nw,z,,,,,,,
,,,,,,,,,,,,001,2023-11-09_24h33.37.778,vowel_harmony,2023.2.3,MacIntel,60.0024001,638.8245,639.8239,,,,,,,,,,,,,,,,,,,,,,,,,,639.824,640.8572,z,1,1.0137,,640.8573,640.8574,,0,303,303,347,1,348,tekram,,,,,6,notharmonic,1.95,nw,z,,,,,,,
,,,,,,,,,,,,001,2023-11-09_24h33.37.778,vowel_harmony,2023.2.3,MacIntel,60.0024001,640.8582,641.8592,,,,,,,,,,,,,,,,,,,,,,,,,,641.8593,642.459,z,1,0.5769,,642.459,642.459,,0,304,304,241,1,242,porlam,,,,,6,harmonic,2,nw,z,,,,,,,
,,,,,,,,,,,,001,2023-11-09_24h33.37.778,vowel_harmony,2023.2.3,MacIntel,60.0024001,642.4595,643.4562,,,,,,,,,,,,,,,,,,,,,,,,,,643.4562,643.9908,z,1,0.52,,643.9909,643.991,,0,305,305,318,1,319,yorgün,,,,,6,notharmonic,1.9,nw,z,,,,,,,
,,,,,,,,,,,,001,2023-11-09_24h33.37.778,vowel_harmony,2023.2.3,MacIntel,60.0024001,643.9914,644.9927,,,,,,,,,,,,,,,,,,,,,,,,,,644.9927,645.6076,m,1,0.6004,,645.6076,645.6077,,0,306,306,120,1,121,ihmal,1002,45.5269,977,0.1068,5,notharmonic,1.65,word,m,,,,,,,
,,,,,,,,,,,,001,2023-11-09_24h33.37.778,vowel_harmony,2023.2.3,MacIntel,60.0024001,645.6079,646.6079,,,,,,,,,,,,,,,,,,,,,,,,,,646.608,647.1405,m,1,0.5151,,647.1406,647.1406,,0,307,307,154,1,155,sakin,1855,84.2838,1635,0.1787,5,notharmonic,1.05,word,m,,,,,,,
,,,,,,,,,,,,001,2023-11-09_24h33.37.778,vowel_harmony,2023.2.3,MacIntel,60.0024001,647.1411,648.1421,,,,,,,,,,,,,,,,,,,,,,,,,,648.1421,648.824,z,1,0.6619,,648.824,648.8241,,0,308,308,325,1,326,garit,,,,,5,notharmonic,1.85,nw,z,,,,,,,
,,,,,,,,,,,,001,2023-11-09_24h33.37.778,vowel_harmony,2023.2.3,MacIntel,60.0024001,648.8245,649.8229,,,,,,,,,,,,,,,,,,,,,,,,,,649.823,650.4253,z,1,0.5839,,650.4253,650.4254,,0,309,309,349,1,350,harten,,,,,6,notharmonic,1.85,nw,z,,,,,,,
,,,,,,,,,,,,001,2023-11-09_24h33.37.778,vowel_harmony,2023.2.3,MacIntel,60.0024001,650.4258,651.4244,,,,,,,,,,,,,,,,,,,,,,,,,,651.4245,651.942,m,1,0.5033,,651.942,651.9421,,0,310,310,77,1,78,ufak,3252,147.758,2980,0.3258,4,harmonic,1.5,word,m,,,,,,,
,,,,,,,,,,,,001,2023-11-09_24h33.37.778,vowel_harmony,2023.2.3,MacIntel,60.0024001,651.9425,652.9427,,,,,,,,,,,,,,,,,,,,,,,,,,652.9427,653.4398,m,1,0.4875,,653.4399,653.44,,0,311,311,44,1,45,kayıt,1234,56.0681,1058,0.1157,5,harmonic,1.35,word,m,,,,,,,
,,,,,,,,,,,,001,2023-11-09_24h33.37.778,vowel_harmony,2023.2.3,MacIntel,60.0024001,653.4405,654.4409,,,,,,,,,,,,,,,,,,,,,,,,,,654.4409,655.1925,z,1,0.7383,,655.1926,655.1928,,0,312,312,345,1,346,bardeş,,,,,6,notharmonic,1.95,nw,z,,,,,,,
,,,,,,,,,,,,001,2023-11-09_24h33.37.778,vowel_harmony,2023.2.3,MacIntel,60.0024001,655.1932,656.1917,,,,,,,,,,,,,,,,,,,,,,,,,,656.1917,657.7898,z,0,1.5802,,657.7898,657.79,,0,313,313,137,1,138,parti,2613,118.7244,2059,0.2251,5,notharmonic,1.8,word,m,,,,,,,
,,,,,,,,,,,,001,2023-11-09_24h33.37.778,vowel_harmony,2023.2.3,MacIntel,60.0024001,657.8033,658.7907,,,,,,,,,,,,,,,,,,,,,,,,,,658.7908,659.5732,m,1,0.7644,,659.5733,659.5734,,0,314,314,160,1,161,hakem,603,27.3979,473,0.0517,5,notharmonic,1.3,word,m,,,,,,,
,,,,,,,,,,,,001,2023-11-09_24h33.37.778,vowel_harmony,2023.2.3,MacIntel,60.0024001,659.5739,660.5755,,,,,,,,,,,,,,,,,,,,,,,,,,660.5755,661.0729,m,1,0.4777,,661.073,661.0731,,0,315,315,3,1,4,minik,2916,132.4915,2594,0.2836,5,harmonic,1.6,word,m,,,,,,,
,,,,,,,,,,,,001,2023-11-09_24h33.37.778,vowel_harmony,2023.2.3,MacIntel,60.0024001,661.0735,662.0743,,,,,,,,,,,,,,,,,,,,,,,,,,662.0743,662.8403,z,1,0.7517,,662.8403,662.8405,,0,316,316,205,1,206,kahay,,,,,5,harmonic,1.9,nw,z,,,,,,,
,,,,,,,,,,,,001,2023-11-09_24h33.37.778,vowel_harmony,2023.2.3,MacIntel,60.0024001,662.8409,663.8399,,,,,,,,,,,,,,,,,,,,,,,,,,663.8399,664.4606,m,1,0.5968,,664.4606,664.4608,,0,317,317,105,1,106,sahip,10887,494.6621,9847,1.0765,5,notharmonic,1.25,word,m,,,,,,,
,,,,,,,,,,,,001,2023-11-09_24h33.37.778,vowel_harmony,2023.2.3,MacIntel,60.0024001,664.4612,665.4589,,,,,,,,,,,,,,,,,,,,,,,,,,665.4589,665.975,m,1,0.4969,,665.9751,665.9752,,0,318,318,135,1,136,hafif,3355,152.4379,3101,0.339,5,notharmonic,1.75,word,m,,,,,,,
,,,,,,,,,,,,001,2023-11-09_24h33.37.778,vowel_harmony,2023.2.3,MacIntel,60.0024001,665.9757,666.9771,,,,,,,,,,,,,,,,,,,,,,,,,,666.9771,667.4411,m,1,0.4443,,667.4412,667.4413,,0,319,319,128,1,129,tatil,2152,97.7783,1865,0.2039,5,notharmonic,1.7,word,m,,,,,,,
,,,,,,,,,,,,001,2023-11-09_24h33.37.778,vowel_harmony,2023.2.3,MacIntel,60.0024001,667.4418,668.4432,,,,,,,,,,,,,,,,,,,,,,,,,,668.4434,669.1897,z,1,0.7327,,669.1898,669.1898,,0,320,320,219,1,220,barlum,,,,,6,harmonic,1.9,nw,z,,,,,,,
,,,,,,,,,,,,001,2023-11-09_24h33.37.778,vowel_harmony,2023.2.3,MacIntel,60.0024001,669.1902,670.1933,,,,,,,,,,,,,,,,,,,,,,,,,,670.1933,670.8259,z,1,0.6136,,670.826,670.8261,,0,321,321,311,1,312,dedya,,,,,5,notharmonic,1.9,nw,z,,,,,,,
,,,,,,,,,,,,001,2023-11-09_24h33.37.778,vowel_harmony,2023.2.3,MacIntel,60.0024001,670.827,671.8245,,,,,,,,,,,,,,,,,,,,,,,,,,671.8246,672.4565,z,1,0.6148,,672.4566,672.4566,,0,322,322,356,1,357,mergun,,,,,6,notharmonic,1.95,nw,z,,,,,,,
,,,,,,,,,,,,001,2023-11-09_24h33.37.778,vowel_harmony,2023.2.3,MacIntel,60.0024001,672.4572,673.4593,,,,,,,,,,,,,,,,,,,,,,,,,,673.4594,674.09,m,1,0.6135,,674.0901,674.0901,,0,323,323,101,1,102,imza,1358,61.7021,1253,0.137,4,notharmonic,1.65,word,m,,,,,,,
,,,,,,,,,,,,001,2023-11-09_24h33.37.778,vowel_harmony,2023.2.3,MacIntel,60.0024001,674.0904,675.0941,,,,,,,,,,,,,,,,,,,,,,,,,,675.0942,675.6593,m,1,0.5452,,675.6595,675.6595,,0,324,324,19,1,20,ödül,1063,48.2985,926,0.1012,4,harmonic,1.7,word,m,,,,,,,
,,,,,,,,,,,,001,2023-11-09_24h33.37.778,vowel_harmony,2023.2.3,MacIntel,60.0024001,675.6601,676.6583,,,,,,,,,,,,,,,,,,,,,,,,,,676.6584,677.2248,z,1,0.5474,,677.2249,677.2251,,0,325,325,339,1,340,asmel,,,,,5,notharmonic,1.95,nw,z,,,,,,,
,,,,,,,,,,,,001,2023-11-09_24h33.37.778,vowel_harmony,2023.2.3,MacIntel,60.0024001,677.2259,678.2245,,,,,,,,,,,,,,,,,,,,,,,,,,678.2246,678.8234,z,1,0.5792,,678.8234,678.8235,,0,326,326,303,1,304,fisor,,,,,5,notharmonic,1.9,nw,z,,,,,,,
,,,,,,,,,,,,001,2023-11-09_24h33.37.778,vowel_harmony,2023.2.3,MacIntel,60.0024001,678.8241,679.8258,,,,,,,,,,,,,,,,,,,,,,,,,,679.8259,680.4411,m,1,0.5948,,680.4411,680.4412,,0,327,327,38,1,39,dönem,2820,128.1296,2437,0.2664,5,harmonic,1.4,word,m,,,,,,,
,,,,,,,,,,,,001,2023-11-09_24h33.37.778,vowel_harmony,2023.2.3,MacIntel,60.0024001,680.4415,681.4399,,,,,,,,,,,,,,,,,,,,,,,,,,681.4399,682.0396,z,1,0.5815,,682.0396,682.0398,,0,328,328,193,1,194,yokın,,,,,5,harmonic,1.85,nw,z,,,,,,,
,,,,,,,,,,,,001,2023-11-09_24h33.37.778,vowel_harmony,2023.2.3,MacIntel,60.0024001,682.0403,683.0411,,,,,,,,,,,,,,,,,,,,,,,,,,683.0412,683.5735,m,1,0.5122,,683.5735,683.5737,,0,329,329,21,1,22,duygu,1877,85.2834,1760,0.1924,5,harmonic,1.8,word,m,,,,,,,
,,,,,,,,,,,,001,2023-11-09_24h33.37.778,vowel_harmony,2023.2.3,MacIntel,60.0024001,683.5742,684.576,,,,,,,,,,,,,,,,,,,,,,,,,,684.5761,685.1734,z,1,0.5802,,685.1734,685.1735,,0,330,330,269,1,270,vekü,,,,,4,harmonic,2,nw,z,,,,,,,
,,,,,,,,,,,,001,2023-11-09_24h33.37.778,vowel_harmony,2023.2.3,MacIntel,60.0024001,685.1741,686.1751,,,,,,,,,,,,,,,,,,,,,,,,,,686.1751,686.8437,z,1,0.651,,686.8437,686.8438,,0,331,331,255,1,256,yokın,,,,,5,harmonic,1.85,nw,z,,,,,,,
,,,,,,,,,,,,001,2023-11-09_24h33.37.778,vowel_harmony,2023.2.3,MacIntel,60.0024001,686.8443,687.8424,,,,,,,,,,,,,,,,,,,,,,,,,,687.8425,688.4931,z,1,0.629,,688.4932,688.4934,,0,332,332,355,1,356,adül,,,,,4,notharmonic,1.85,nw,z,,,,,,,
,,,,,,,,,,,,001,2023-11-09_24h33.37.778,vowel_harmony,2023.2.3,MacIntel,60.0024001,688.4938,689.491,,,,,,,,,,,,,,,,,,,,,,,,,,689.4911,690.2591,z,1,0.7467,,690.2592,690.2594,,0,333,333,207,1,208,örtre,,,,,5,harmonic,1.85,nw,z,,,,,,,
,,,,,,,,,,,,001,2023-11-09_24h33.37.778,vowel_harmony,2023.2.3,MacIntel,60.0024001,690.2599,691.259,,,,,,,,,,,,,,,,,,,,,,,,,,691.259,691.7768,m,1,0.4951,,691.7768,691.777,,0,334,334,171,1,172,reklam,1565,71.1074,1244,0.136,6,notharmonic,1.9,word,m,,,,,,,
,,,,,,,,,,,,001,2023-11-09_24h33.37.778,vowel_harmony,2023.2.3,MacIntel,60.0024001,691.7776,692.7768,,,,,,,,,,,,,,,,,,,,,,,,,,692.7768,693.2754,z,1,0.478,,693.2754,693.2755,,0,335,335,250,1,251,kakuk,,,,,5,harmonic,1.9,nw,z,,,,,,,
,,,,,,,,,,,,001,2023-11-09_24h33.37.778,vowel_harmony,2023.2.3,MacIntel,60.0024001,693.276,694.2764,,,,,,,,,,,,,,,,,,,,,,,,,,694.2764,694.7435,m,1,0.4491,,694.7435,694.7436,,0,336,336,121,1,122,mesaj,1604,72.8794,1386,0.1515,5,notharmonic,1.8,word,m,,,,,,,
,,,,,,,,,,,,001,2023-11-09_24h33.37.778,vowel_harmony,2023.2.3,MacIntel,60.0024001,694.7442,695.7423,,,,,,,,,,,,,,,,,,,,,,,,,,695.7424,696.41,z,1,0.6529,,696.4101,696.4102,,0,337,337,307,1,308,merbat,,,,,6,notharmonic,1.95,nw,z,,,,,,,
,,,,,,,,,,,,001,2023-11-09_24h33.37.778,vowel_harmony,2023.2.3,MacIntel,60.0024001,696.4107,697.4087,,,,,,,,,,,,,,,,,,,,,,,,,,697.4088,698.2265,z,1,0.7962,,698.2265,698.2267,,0,338,338,315,1,316,takep,,,,,5,notharmonic,1.85,nw,z,,,,,,,
,,,,,,,,,,,,001,2023-11-09_24h33.37.778,vowel_harmony,2023.2.3,MacIntel,60.0024001,698.2273,699.2236,,,,,,,,,,,,,,,,,,,,,,,,,,699.2236,699.7937,m,1,0.5477,,699.7937,699.7939,,0,339,339,124,1,125,ilan,1579,71.7435,1499,0.1639,4,notharmonic,1,word,m,,,,,,,
,,,,,,,,,,,,001,2023-11-09_24h33.37.778,vowel_harmony,2023.2.3,MacIntel,60.0024001,699.7944,700.7905,,,,,,,,,,,,,,,,,,,,,,,,,,700.7905,701.34,z,1,0.5311,,701.3401,701.3402,,0,340,340,191,1,192,doab,,,,,4,harmonic,2,nw,z,,,,,,,
,,,,,,,,,,,,001,2023-11-09_24h33.37.778,vowel_harmony,2023.2.3,MacIntel,60.0024001,701.3407,702.3439,,,,,,,,,,,,,,,,,,,,,,,,,,702.344,703.0076,z,1,0.6463,,703.0076,703.0077,,0,341,341,230,1,231,bikir,,,,,5,harmonic,1.75,nw,z,,,,,,,
,,,,,,,,,,,,001,2023-11-09_24h33.37.778,vowel_harmony,2023.2.3,MacIntel,60.0024001,703.0082,704.007,,,,,,,,,,,,,,,,,,,,,,,,,,704.007,704.5099,z,1,0.4819,,704.51,704.5101,,0,342,342,244,1,245,kaof,,,,,4,harmonic,1.9,nw,z,,,,,,,
,,,,,,,,,,,,001,2023-11-09_24h33.37.778,vowel_harmony,2023.2.3,MacIntel,60.0024001,704.5106,705.5108,,,,,,,,,,,,,,,,,,,,,,,,,,705.511,706.1601,m,1,0.6342,,706.1601,706.1603,,0,343,343,130,1,131,hamile,1075,48.8437,877,0.0959,6,notharmonic,1.5,word,m,,,,,,,
,,,,,,,,,,,,001,2023-11-09_24h33.37.778,vowel_harmony,2023.2.3,MacIntel,60.0024001,706.1608,707.1599,,,,,,,,,,,,,,,,,,,,,,,,,,707.16,707.6433,z,1,0.4614,,707.6433,707.6434,,0,344,344,218,1,219,tezöl,,,,,5,harmonic,2,nw,z,,,,,,,
,,,,,,,,,,,,001,2023-11-09_24h33.37.778,vowel_harmony,2023.2.3,MacIntel,60.0024001,707.644,708.6439,,,,,,,,,,,,,,,,,,,,,,,,,,708.644,709.2432,z,1,0.5822,,709.2432,709.2434,,0,345,345,210,1,211,şevci,,,,,5,harmonic,1.75,nw,z,,,,,,,
,,,,,,,,,,,,001,2023-11-09_24h33.37.778,vowel_harmony,2023.2.3,MacIntel,60.0024001,709.2438,710.2436,,,,,,,,,,,,,,,,,,,,,,,,,,710.2436,710.7237,z,1,0.4665,,710.7238,710.7239,,0,346,346,298,1,299,yelsın,,,,,6,notharmonic,1.95,nw,z,,,,,,,
,,,,,,,,,,,,001,2023-11-09_24h33.37.778,vowel_harmony,2023.2.3,MacIntel,60.0024001,710.7244,711.7259,,,,,,,,,,,,,,,,,,,,,,,,,,711.7259,712.226,m,1,0.4873,,712.2261,712.2262,,0,347,347,1,1,2,erkek,6188,281.1582,5195,0.5679,5,harmonic,1.65,word,m,,,,,,,
,,,,,,,,,,,,001,2023-11-09_24h33.37.778,vowel_harmony,2023.2.3,MacIntel,60.0024001,712.2267,713.2234,,,,,,,,,,,,,,,,,,,,,,,,,,713.2235,713.7096,m,1,0.467,,713.7097,713.7098,,0,348,348,82,1,83,aday,1028,46.7082,873,0.0954,4,harmonic,1.45,word,m,,,,,,,
,,,,,,,,,,,,001,2023-11-09_24h33.37.778,vowel_harmony,2023.2.3,MacIntel,60.0024001,713.7103,714.7095,,,,,,,,,,,,,,,,,,,,,,,,,,714.7096,715.2233,z,1,0.4969,,715.2234,715.2235,,0,349,349,217,1,218,sanfız,,,,,6,harmonic,1.85,nw,z,,,,,,,
,,,,,,,,,,,,001,2023-11-09_24h33.37.778,vowel_harmony,2023.2.3,MacIntel,60.0024001,715.2241,716.2268,,,,,,,,,,,,,,,,,,,,,,,,,,716.2268,716.8581,m,1,0.6109,,716.8582,716.8583,,0,350,350,123,1,124,haber,4559,207.1429,4151,0.4538,5,notharmonic,1.85,word,m,,,,,,,
,,,,,,,,,,,,001,2023-11-09_24h33.37.778,vowel_harmony,2023.2.3,MacIntel,60.0024001,716.8587,717.8576,,,,,,,,,,,,,,,,,,,,,,,,,,717.8576,718.3748,m,1,0.4988,,718.3749,718.375,,0,351,351,88,1,89,yalnız,5891,267.6637,5440,0.5947,6,harmonic,1.6,word,m,,,,,,,
,,,,,,,,,,,,001,2023-11-09_24h33.37.778,vowel_harmony,2023.2.3,MacIntel,60.0024001,718.3755,719.3756,,,,,,,,,,,,,,,,,,,,,,,,,,719.3756,719.9253,m,1,0.53,,719.9253,719.9254,,0,352,352,54,1,55,yedek,825,37.4847,732,0.08,5,harmonic,1.65,word,m,,,,,,,
,,,,,,,,,,,,001,2023-11-09_24h33.37.778,vowel_harmony,2023.2.3,MacIntel,60.0024001,719.9259,720.9233,,,,,,,,,,,,,,,,,,,,,,,,,,720.9234,721.51,z,1,0.5666,,721.5101,721.5102,,0,353,353,353,1,354,ikno,,,,,4,notharmonic,1.95,nw,z,,,,,,,
,,,,,,,,,,,,001,2023-11-09_24h33.37.778,vowel_harmony,2023.2.3,MacIntel,60.0024001,721.5107,722.5071,,,,,,,,,,,,,,,,,,,,,,,,,,722.5072,723.0413,m,1,0.5159,,723.0414,723.0416,,0,354,354,176,1,177,harika,4682,212.7315,4422,0.4834,6,notharmonic,1.9,word,m,,,,,,,
,,,,,,,,,,,,001,2023-11-09_24h33.37.778,vowel_harmony,2023.2.3,MacIntel,60.0024001,723.0423,724.0428,,,,,,,,,,,,,,,,,,,,,,,,,,724.0429,724.4767,m,1,0.4112,,724.4768,724.477,,0,355,355,83,1,84,küçük,14048,638.2854,12467,1.3629,5,harmonic,1.75,word,m,,,,,,,
,,,,,,,,,,,,001,2023-11-09_24h33.37.778,vowel_harmony,2023.2.3,MacIntel,60.0024001,724.4776,725.4773,,,,,,,,,,,,,,,,,,,,,,,,,,725.4773,726.2075,z,1,0.7134,,726.2076,726.2077,,0,356,356,263,1,264,duzur,,,,,5,harmonic,1.8,nw,z,,,,,,,
,,,,,,,,,,,,001,2023-11-09_24h33.37.778,vowel_harmony,2023.2.3,MacIntel,60.0024001,726.2082,727.209,,,,,,,,,,,,,,,,,,,,,,,,,,727.2091,727.957,z,1,0.7311,,727.957,727.9572,,0,357,357,197,1,198,ranar,,,,,5,harmonic,1.75,nw,z,,,,,,,
,,,,,,,,,,,,001,2023-11-09_24h33.37.778,vowel_harmony,2023.2.3,MacIntel,60.0024001,727.9576,728.958,,,,,,,,,,,,,,,,,,,,,,,,,,728.958,729.541,z,1,0.5635,,729.541,729.5411,,0,358,358,313,1,314,ikas,,,,,4,notharmonic,1.85,nw,z,,,,,,,
,,,,,,,,,,,,001,2023-11-09_24h33.37.778,vowel_harmony,2023.2.3,MacIntel,60.0024001,729.5415,730.5403,,,,,,,,,,,,,,,,,,,,,,,,,,730.5404,731.0926,z,1,0.5325,,731.0927,731.0929,,0,359,359,281,1,282,afel,,,,,4,notharmonic,1.8,nw,z,,,,,,,
,,,,,,,,,,,,001,2023-11-09_24h33.37.778,vowel_harmony,2023.2.3,MacIntel,60.0024001,,,,,,,,,,,,,,,,,,,,,,,,,,,,,,,,,,,,,,,,,,,,,,,,,,,,,,,731.0936,733.5761,space,2.4654,