Welcome_screen.started,Welcome_screen.stopped,key_respwelcome.keys,key_respwelcome.rt,key_respwelcome.duration,intro_x.thisRepN,intro_x.thisTrialN,intro_x.thisN,intro_x.thisIndex,intro_x.ran,Introduction,participant,session,date,expName,psychopyVersion,OS,frameRate,Fixation.started,Fixation.stopped,Studypractice.started,Studypractice.stopped,key_respstudy.keys,key_respstudy.corr,key_respstudy.rt,key_respstudy.duration,rt,corr,Feedback.started,Feedback.stopped,practice_loop.thisRepN,practice_loop.thisTrialN,practice_loop.thisN,practice_loop.thisIndex,practice_loop.ran,item_nr_p,target_p,isHarmonic_p,target_cond_p,CorrAns_p,Instraction.started,Instraction.stopped,key_respınstraction.keys,key_respınstraction.rt,key_respınstraction.duration,TestTrial.started,TestTrial.stopped,key_respTest.keys,key_respTest.corr,key_respTest.rt,key_respTest.duration,Pause.started,Pause.stopped,key_resp_xx.keys,test_loop.thisRepN,test_loop.thisTrialN,test_loop.thisN,test_loop.thisIndex,test_loop.ran,item_nr,target,BlogFreq_A1,BlogFreqpm_A1,BlogCD_A1,BlogCDPc_A1,WordLength_A1,isHarmonic_A1,old20,target_cond,CorrAns,key_resp_xx.rt,key_resp_xx.duration,Goodbye_screen.started,Goodbye_screen.stopped,key_respgoodbye.keys,key_respgoodbye.rt,key_respgoodbye.duration
0.0147,1.9734,space,1.9379,,0,0,0,0,1,"Deneye hoş geldiniz,

Devam etmek için BOŞLUK tuşuna basınız.",,001,2023-11-09_11h13.28.022,vowel_harmony,2023.2.3,Win32,60.08171113,,,,,,,,,,,,,,,,,,,,,,,,,,,,,,,,,,,,,,,,,,,,,,,,,,,,,,,,,,,
1.9737,7.0064,space,5.0192,,0,1,1,1,1,"Bu çalışma Valencia Üniversitesi kapsamında yürütülmektedir. Deneydeki göreviniz, ekrana çıkacak Türkçe sözcüklerin kelime olup olmadığını belirlemenizdir. Eğer sözcük gerçek bir kelime ise ""m"" tuşuna, değil ise ""z"" tuşuna basınız.   

Devam etmek için BOŞLUK tuşuna basınız.",,001,2023-11-09_11h13.28.022,vowel_harmony,2023.2.3,Win32,60.08171113,,,,,,,,,,,,,,,,,,,,,,,,,,,,,,,,,,,,,,,,,,,,,,,,,,,,,,,,,,,
7.0067,8.7064,space,1.684,,0,2,2,2,1,"Her sözcük için en fazla iki saniyede cevap vermeniz beklenmektedir. Aksi takdirde deney bir sonraki sözcük ile devam eder. 
Bu çalışmada oldukça hızlı ve doğru cevaplama yapmanız beklenmektedir.

Devam etmek için BOŞLUK tuşuna basınız.",,001,2023-11-09_11h13.28.022,vowel_harmony,2023.2.3,Win32,60.08171113,,,,,,,,,,,,,,,,,,,,,,,,,,,,,,,,,,,,,,,,,,,,,,,,,,,,,,,,,,,
8.7068,13.6727,space,4.9404,,0,3,3,3,1,"Çalışmaya başlamadan önce ufak bir pratik yer almaktadır.
Kelimedir: ""m""
Kelime değildir: ""z""

Pratik teste başlamak için BOŞLUK tuşuna basınız. ",,001,2023-11-09_11h13.28.022,vowel_harmony,2023.2.3,Win32,60.08171113,,,,,,,,,,,,,,,,,,,,,,,,,,,,,,,,,,,,,,,,,,,,,,,,,,,,,,,,,,,
,,,,,,,,,,,,001,2023-11-09_11h13.28.022,vowel_harmony,2023.2.3,Win32,60.08171113,13.6828,14.6729,14.673,18.2228,m,1,3.5332,,3.5332,1,18.223,19.7226,0,0,0,0,1,1,ihale,notharmonic,word,m,,,,,,,,,,,,,,,,,,,,,,,,,,,,,,,,,,,,,
,,,,,,,,,,,,001,2023-11-09_11h13.28.022,vowel_harmony,2023.2.3,Win32,60.08171113,19.723,20.7226,20.7226,20.906,m,1,0.1708,,0.1708,1,20.906,22.4059,0,1,1,7,1,8,oran,harmonic,word,m,,,,,,,,,,,,,,,,,,,,,,,,,,,,,,,,,,,,,
,,,,,,,,,,,,001,2023-11-09_11h13.28.022,vowel_harmony,2023.2.3,Win32,60.08171113,22.4061,23.4058,23.4058,24.9391,z,1,1.5282,,1.5282,1,24.9391,26.439,0,2,2,9,1,10,orat,harmonic,nw,z,,,,,,,,,,,,,,,,,,,,,,,,,,,,,,,,,,,,,
,,,,,,,,,,,,001,2023-11-09_11h13.28.022,vowel_harmony,2023.2.3,Win32,60.08171113,26.4393,27.4391,27.4392,28.0056,m,1,0.5583,,0.5583,1,28.0057,29.5058,0,3,3,4,1,5,mimar,notharmonic,word,m,,,,,,,,,,,,,,,,,,,,,,,,,,,,,,,,,,,,,
,,,,,,,,,,,,001,2023-11-09_11h13.28.022,vowel_harmony,2023.2.3,Win32,60.08171113,29.506,30.5055,30.5055,31.3889,m,1,0.8758,,0.8758,1,31.3889,32.8888,0,4,4,5,1,6,bahçe,notharmonic,word,m,,,,,,,,,,,,,,,,,,,,,,,,,,,,,,,,,,,,,
,,,,,,,,,,,,001,2023-11-09_11h13.28.022,vowel_harmony,2023.2.3,Win32,60.08171113,32.8891,33.8888,33.8888,34.7888,z,1,0.8845,,0.8845,1,34.7888,36.2887,0,5,5,10,1,11,mahne,notharmonic,nw,z,,,,,,,,,,,,,,,,,,,,,,,,,,,,,,,,,,,,,
,,,,,,,,,,,,001,2023-11-09_11h13.28.022,vowel_harmony,2023.2.3,Win32,60.08171113,36.289,37.2888,37.2888,38.0052,m,1,0.7009,,0.7009,1,38.0053,39.5055,0,6,6,6,1,7,pilot,notharmonic,word,m,,,,,,,,,,,,,,,,,,,,,,,,,,,,,,,,,,,,,
,,,,,,,,,,,,001,2023-11-09_11h13.28.022,vowel_harmony,2023.2.3,Win32,60.08171113,39.5059,40.5052,40.5052,41.3054,m,0,0.7894,,0.7894,0,41.3054,42.8051,0,7,7,13,1,14,pilar,notharmonic,nw,z,,,,,,,,,,,,,,,,,,,,,,,,,,,,,,,,,,,,,
,,,,,,,,,,,,001,2023-11-09_11h13.28.022,vowel_harmony,2023.2.3,Win32,60.08171113,42.8054,43.8058,43.8058,44.6385,z,1,0.8155,,0.8155,1,44.6386,46.1385,0,8,8,11,1,12,geki,harmonic,nw,z,,,,,,,,,,,,,,,,,,,,,,,,,,,,,,,,,,,,,
,,,,,,,,,,,,001,2023-11-09_11h13.28.022,vowel_harmony,2023.2.3,Win32,60.08171113,46.1387,47.1384,47.1384,47.8217,m,1,0.6758,,0.6758,1,47.8218,49.3218,0,9,9,1,1,2,veri,harmonic,word,m,,,,,,,,,,,,,,,,,,,,,,,,,,,,,,,,,,,,,
,,,,,,,,,,,,001,2023-11-09_11h13.28.022,vowel_harmony,2023.2.3,Win32,60.08171113,49.3221,50.3215,50.3216,51.4548,z,1,1.1164,,1.1164,1,51.4549,52.9553,0,10,10,8,1,9,tahip,notharmonic,nw,z,,,,,,,,,,,,,,,,,,,,,,,,,,,,,,,,,,,,,
,,,,,,,,,,,,001,2023-11-09_11h13.28.022,vowel_harmony,2023.2.3,Win32,60.08171113,52.956,53.9549,53.9549,54.6214,m,1,0.6508,,0.6508,1,54.6215,56.1215,0,11,11,2,1,3,memur,notharmonic,word,m,,,,,,,,,,,,,,,,,,,,,,,,,,,,,,,,,,,,,
,,,,,,,,,,,,001,2023-11-09_11h13.28.022,vowel_harmony,2023.2.3,Win32,60.08171113,56.1216,57.1213,57.1213,58.1212,z,1,0.9885,,0.9885,1,58.1213,59.6213,0,12,12,15,1,16,mımal,harmonic,nw,z,,,,,,,,,,,,,,,,,,,,,,,,,,,,,,,,,,,,,
,,,,,,,,,,,,001,2023-11-09_11h13.28.022,vowel_harmony,2023.2.3,Win32,60.08171113,59.6215,60.6212,60.6212,61.6046,z,1,0.968,,0.968,1,61.6046,63.1046,0,13,13,14,1,15,pimer,harmonic,nw,z,,,,,,,,,,,,,,,,,,,,,,,,,,,,,,,,,,,,,
,,,,,,,,,,,,001,2023-11-09_11h13.28.022,vowel_harmony,2023.2.3,Win32,60.08171113,63.1048,64.105,64.105,64.8545,m,0,0.7313,,0.7313,0,64.8546,66.3545,0,14,14,12,1,13,ihlot,notharmonic,nw,z,,,,,,,,,,,,,,,,,,,,,,,,,,,,,,,,,,,,,
,,,,,,,,,,,,001,2023-11-09_11h13.28.022,vowel_harmony,2023.2.3,Win32,60.08171113,66.3548,67.3544,67.3544,68.0544,m,1,0.6917,,0.6917,1,68.0544,69.5543,0,15,15,3,1,4,ihlal,notharmonic,word,m,,,,,,,,,,,,,,,,,,,,,,,,,,,,,,,,,,,,,
,,,,,,,,,,,,001,2023-11-09_11h13.28.022,vowel_harmony,2023.2.3,Win32,60.08171113,,,,,,,,,,,,,,,,,,,,,,,69.5547,73.4545,space,3.8822,,,,,,,,,,,,,,,,,,,,,,,,,,,,,,,,,
,,,,,,,,,,,,001,2023-11-09_11h13.28.022,vowel_harmony,2023.2.3,Win32,60.08171113,73.4887,74.4709,,,,,,,,,,,,,,,,,,,,,,,,,,74.471,75.0545,m,1,0.5645,,75.0547,75.0561,,0,0,0,138,1,139,kardeş,1270,57.7038,1174,0.1283,6,notharmonic,1.9,word,m,,,,,,,
,,,,,,,,,,,,001,2023-11-09_11h13.28.022,vowel_harmony,2023.2.3,Win32,60.08171113,75.0565,76.0541,,,,,,,,,,,,,,,,,,,,,,,,,,76.0542,76.7874,z,1,0.7281,,76.7874,76.7875,,0,1,1,325,1,326,garit,,,,,5,notharmonic,1.85,nw,z,,,,,,,
,,,,,,,,,,,,001,2023-11-09_11h13.28.022,vowel_harmony,2023.2.3,Win32,60.08171113,76.7877,77.7874,,,,,,,,,,,,,,,,,,,,,,,,,,77.7874,78.5374,z,1,0.7308,,78.5374,78.5375,,0,2,2,185,1,186,örtin,,,,,5,harmonic,1.9,nw,z,,,,,,,
,,,,,,,,,,,,001,2023-11-09_11h13.28.022,vowel_harmony,2023.2.3,Win32,60.08171113,78.5376,79.5373,,,,,,,,,,,,,,,,,,,,,,,,,,79.5373,79.9706,m,1,0.4141,,79.9707,79.9707,,0,3,3,111,1,112,kahve,2634,119.6785,2283,0.2496,5,notharmonic,1.85,word,m,,,,,,,
,,,,,,,,,,,,001,2023-11-09_11h13.28.022,vowel_harmony,2023.2.3,Win32,60.08171113,79.971,80.9707,,,,,,,,,,,,,,,,,,,,,,,,,,80.9707,82.0872,z,1,1.1075,,82.0873,82.0874,,0,4,4,296,1,297,işban,,,,,5,notharmonic,1.95,nw,z,,,,,,,
,,,,,,,,,,,,001,2023-11-09_11h13.28.022,vowel_harmony,2023.2.3,Win32,60.08171113,82.0876,83.0872,,,,,,,,,,,,,,,,,,,,,,,,,,83.0872,83.6539,m,1,0.5591,,83.6539,83.654,,0,5,5,52,1,53,resim,2506,113.8627,2188,0.2392,5,harmonic,1.4,word,m,,,,,,,
,,,,,,,,,,,,001,2023-11-09_11h13.28.022,vowel_harmony,2023.2.3,Win32,60.08171113,83.6543,84.654,,,,,,,,,,,,,,,,,,,,,,,,,,84.654,85.4038,m,1,0.745,,85.4038,85.4039,,0,6,6,1,1,2,erkek,6188,281.1582,5195,0.5679,5,harmonic,1.65,word,m,,,,,,,
,,,,,,,,,,,,001,2023-11-09_11h13.28.022,vowel_harmony,2023.2.3,Win32,60.08171113,85.4041,86.4037,,,,,,,,,,,,,,,,,,,,,,,,,,86.4037,87.1873,z,1,0.7789,,87.1874,87.1875,,0,7,7,221,1,222,yaypın,,,,,6,harmonic,1.75,nw,z,,,,,,,
,,,,,,,,,,,,001,2023-11-09_11h13.28.022,vowel_harmony,2023.2.3,Win32,60.08171113,87.1877,88.187,,,,,,,,,,,,,,,,,,,,,,,,,,88.1871,88.7205,m,1,0.5238,,88.7205,88.7206,,0,8,8,18,1,19,normal,4154,188.7413,3788,0.4141,6,harmonic,1.75,word,m,,,,,,,
,,,,,,,,,,,,001,2023-11-09_11h13.28.022,vowel_harmony,2023.2.3,Win32,60.08171113,88.7208,89.7203,,,,,,,,,,,,,,,,,,,,,,,,,,89.7204,90.6536,z,1,0.926,,90.6537,90.6538,,0,9,9,355,1,356,adül,,,,,4,notharmonic,1.85,nw,z,,,,,,,
,,,,,,,,,,,,001,2023-11-09_11h13.28.022,vowel_harmony,2023.2.3,Win32,60.08171113,90.6539,91.6536,,,,,,,,,,,,,,,,,,,,,,,,,,91.6536,92.5702,z,1,0.8969,,92.5702,92.5703,,0,10,10,204,1,205,gerkez,,,,,6,harmonic,1.9,nw,z,,,,,,,
,,,,,,,,,,,,001,2023-11-09_11h13.28.022,vowel_harmony,2023.2.3,Win32,60.08171113,92.5705,93.5701,,,,,,,,,,,,,,,,,,,,,,,,,,93.5703,94.3535,z,1,0.7717,,94.3535,94.3537,,0,11,11,320,1,321,finak,,,,,5,notharmonic,1.85,nw,z,,,,,,,
,,,,,,,,,,,,001,2023-11-09_11h13.28.022,vowel_harmony,2023.2.3,Win32,60.08171113,94.3538,95.3535,,,,,,,,,,,,,,,,,,,,,,,,,,95.3535,95.9035,m,1,0.5334,,95.9035,95.9036,,0,12,12,70,1,71,yarın,3440,156.3,3222,0.3522,5,harmonic,1.85,word,m,,,,,,,
,,,,,,,,,,,,001,2023-11-09_11h13.28.022,vowel_harmony,2023.2.3,Win32,60.08171113,95.9039,96.9035,,,,,,,,,,,,,,,,,,,,,,,,,,96.9035,97.7868,m,1,0.8635,,97.7868,97.7869,,0,13,13,175,1,176,aile,3655,166.0687,3126,0.3417,4,notharmonic,1,word,m,,,,,,,
,,,,,,,,,,,,001,2023-11-09_11h13.28.022,vowel_harmony,2023.2.3,Win32,60.08171113,97.7871,98.7868,,,,,,,,,,,,,,,,,,,,,,,,,,98.7869,99.42,m,1,0.628,,99.42,99.4201,,0,14,14,15,1,16,hayat,7922,359.9443,7314,0.7996,5,harmonic,1.9,word,m,,,,,,,
,,,,,,,,,,,,001,2023-11-09_11h13.28.022,vowel_harmony,2023.2.3,Win32,60.08171113,99.4203,100.42,,,,,,,,,,,,,,,,,,,,,,,,,,100.42,100.9201,m,1,0.4904,,100.9201,100.9202,,0,15,15,40,1,41,tepki,1695,77.0141,1578,0.1725,5,harmonic,1.55,word,m,,,,,,,
,,,,,,,,,,,,001,2023-11-09_11h13.28.022,vowel_harmony,2023.2.3,Win32,60.08171113,100.9203,101.9202,,,,,,,,,,,,,,,,,,,,,,,,,,101.9202,102.3868,m,1,0.4546,,102.3869,102.387,,0,16,16,117,1,118,nasip,1069,48.5711,1042,0.1139,5,notharmonic,1.8,word,m,,,,,,,
,,,,,,,,,,,,001,2023-11-09_11h13.28.022,vowel_harmony,2023.2.3,Win32,60.08171113,102.3872,103.3866,,,,,,,,,,,,,,,,,,,,,,,,,,103.3867,104.0032,m,1,0.6037,,104.0033,104.0034,,0,17,17,59,1,60,köpek,1044,47.4352,901,0.0985,5,harmonic,1.75,word,m,,,,,,,
,,,,,,,,,,,,001,2023-11-09_11h13.28.022,vowel_harmony,2023.2.3,Win32,60.08171113,104.0035,105.0032,,,,,,,,,,,,,,,,,,,,,,,,,,105.0033,105.4366,m,1,0.4199,,105.4366,105.4367,,0,18,18,44,1,45,kayıt,1234,56.0681,1058,0.1157,5,harmonic,1.35,word,m,,,,,,,
,,,,,,,,,,,,001,2023-11-09_11h13.28.022,vowel_harmony,2023.2.3,Win32,60.08171113,105.4369,106.4364,,,,,,,,,,,,,,,,,,,,,,,,,,106.4364,106.7864,m,1,0.3319,,106.7865,106.7865,,0,19,19,9,1,10,karar,8108,368.3954,7436,0.8129,5,harmonic,1.6,word,m,,,,,,,
,,,,,,,,,,,,001,2023-11-09_11h13.28.022,vowel_harmony,2023.2.3,Win32,60.08171113,106.7868,107.7865,,,,,,,,,,,,,,,,,,,,,,,,,,107.7865,108.3365,m,1,0.541,,108.3365,108.3366,,0,20,20,114,1,115,nisan,2321,105.457,2044,0.2235,5,notharmonic,1.6,word,m,,,,,,,
,,,,,,,,,,,,001,2023-11-09_11h13.28.022,vowel_harmony,2023.2.3,Win32,60.08171113,108.3368,109.3365,,,,,,,,,,,,,,,,,,,,,,,,,,109.3365,110.2531,z,1,0.9097,,110.2531,110.2531,,0,21,21,293,1,294,esnan,,,,,5,notharmonic,1.85,nw,z,,,,,,,
,,,,,,,,,,,,001,2023-11-09_11h13.28.022,vowel_harmony,2023.2.3,Win32,60.08171113,110.2534,111.2531,,,,,,,,,,,,,,,,,,,,,,,,,,111.2531,111.8363,m,1,0.5785,,111.8363,111.8363,,0,22,22,20,1,21,nefes,2871,130.4469,2553,0.2791,5,harmonic,1.8,word,m,,,,,,,
,,,,,,,,,,,,001,2023-11-09_11h13.28.022,vowel_harmony,2023.2.3,Win32,60.08171113,111.8366,112.8363,,,,,,,,,,,,,,,,,,,,,,,,,,112.8363,113.3531,m,1,0.5057,,113.3531,113.3531,,0,23,23,100,1,101,düşman,1065,48.3894,962,0.1052,6,notharmonic,1.85,word,m,,,,,,,
,,,,,,,,,,,,001,2023-11-09_11h13.28.022,vowel_harmony,2023.2.3,Win32,60.08171113,113.3534,114.3529,,,,,,,,,,,,,,,,,,,,,,,,,,114.3529,114.8695,m,1,0.5016,,114.8696,114.8696,,0,24,24,17,1,18,yakın,7990,363.0339,7595,0.8303,5,harmonic,1.8,word,m,,,,,,,
,,,,,,,,,,,,001,2023-11-09_11h13.28.022,vowel_harmony,2023.2.3,Win32,60.08171113,114.8698,115.8696,,,,,,,,,,,,,,,,,,,,,,,,,,115.8696,116.4528,m,1,0.5763,,116.4528,116.453,,0,25,25,90,1,91,tarif,2834,128.7657,2611,0.2854,5,notharmonic,1.5,word,m,,,,,,,
,,,,,,,,,,,,001,2023-11-09_11h13.28.022,vowel_harmony,2023.2.3,Win32,60.08171113,116.4532,117.4529,,,,,,,,,,,,,,,,,,,,,,,,,,117.4529,117.9694,m,1,0.5056,,117.9694,117.9695,,0,26,26,177,1,178,tekrar,10788,490.1639,9352,1.0224,6,notharmonic,1.85,word,m,,,,,,,
,,,,,,,,,,,,001,2023-11-09_11h13.28.022,vowel_harmony,2023.2.3,Win32,60.08171113,117.9697,118.9695,,,,,,,,,,,,,,,,,,,,,,,,,,118.9695,119.5528,m,1,0.5656,,119.5529,119.553,,0,27,27,43,1,44,geniş,3380,153.5738,3185,0.3482,5,harmonic,1.35,word,m,,,,,,,
,,,,,,,,,,,,001,2023-11-09_11h13.28.022,vowel_harmony,2023.2.3,Win32,60.08171113,119.5532,120.5527,,,,,,,,,,,,,,,,,,,,,,,,,,120.5527,121.2694,z,1,0.7101,,121.2695,121.2696,,0,28,28,187,1,188,remrin,,,,,6,harmonic,1.9,nw,z,,,,,,,
,,,,,,,,,,,,001,2023-11-09_11h13.28.022,vowel_harmony,2023.2.3,Win32,60.08171113,121.2699,122.2694,,,,,,,,,,,,,,,,,,,,,,,,,,122.2694,122.8859,z,1,0.6016,,122.8859,122.886,,0,29,29,308,1,309,hafer,,,,,5,notharmonic,1.85,nw,z,,,,,,,
,,,,,,,,,,,,001,2023-11-09_11h13.28.022,vowel_harmony,2023.2.3,Win32,60.08171113,122.8863,123.886,,,,,,,,,,,,,,,,,,,,,,,,,,123.886,124.5858,m,1,0.6897,,124.5859,124.5859,,0,30,30,22,1,23,anlam,1730,78.6043,1617,0.1768,5,harmonic,1.25,word,m,,,,,,,
,,,,,,,,,,,,001,2023-11-09_11h13.28.022,vowel_harmony,2023.2.3,Win32,60.08171113,124.5861,125.5858,,,,,,,,,,,,,,,,,,,,,,,,,,125.5858,126.3693,z,1,0.766,,126.3693,126.3694,,0,31,31,273,1,274,nimal,,,,,5,notharmonic,1.9,nw,z,,,,,,,
,,,,,,,,,,,,001,2023-11-09_11h13.28.022,vowel_harmony,2023.2.3,Win32,60.08171113,126.3697,127.3692,,,,,,,,,,,,,,,,,,,,,,,,,,127.3693,127.8858,m,1,0.5026,,127.8859,127.8859,,0,32,32,26,1,27,sebze,1094,49.707,961,0.1051,5,harmonic,1.9,word,m,,,,,,,
,,,,,,,,,,,,001,2023-11-09_11h13.28.022,vowel_harmony,2023.2.3,Win32,60.08171113,127.8861,128.8858,,,,,,,,,,,,,,,,,,,,,,,,,,128.8858,129.6691,z,1,0.7761,,129.6691,129.6692,,0,33,33,229,1,230,tonam,,,,,5,harmonic,1.8,nw,z,,,,,,,
,,,,,,,,,,,,001,2023-11-09_11h13.28.022,vowel_harmony,2023.2.3,Win32,60.08171113,129.6693,130.6691,,,,,,,,,,,,,,,,,,,,,,,,,,130.6691,131.1858,m,1,0.5055,,131.1858,131.1858,,0,34,34,115,1,116,saniye,1088,49.4344,984,0.1076,6,notharmonic,1.35,word,m,,,,,,,
,,,,,,,,,,,,001,2023-11-09_11h13.28.022,vowel_harmony,2023.2.3,Win32,60.08171113,131.1862,132.1857,,,,,,,,,,,,,,,,,,,,,,,,,,132.1857,132.6857,m,1,0.4932,,132.6858,132.6859,,0,35,35,179,1,180,dakika,5891,267.6637,5207,0.5692,6,notharmonic,1.75,word,m,,,,,,,
,,,,,,,,,,,,001,2023-11-09_11h13.28.022,vowel_harmony,2023.2.3,Win32,60.08171113,132.6861,133.6857,,,,,,,,,,,,,,,,,,,,,,,,,,133.6857,134.2357,m,1,0.5309,,134.2357,134.2358,,0,36,36,147,1,148,işaret,1888,85.7832,1787,0.1954,6,notharmonic,1,word,m,,,,,,,
,,,,,,,,,,,,001,2023-11-09_11h13.28.022,vowel_harmony,2023.2.3,Win32,60.08171113,134.236,135.2356,,,,,,,,,,,,,,,,,,,,,,,,,,135.2356,135.8523,m,1,0.6027,,135.8523,135.8524,,0,37,37,63,1,64,sultan,1756,79.7857,1368,0.1496,6,harmonic,1.55,word,m,,,,,,,
,,,,,,,,,,,,001,2023-11-09_11h13.28.022,vowel_harmony,2023.2.3,Win32,60.08171113,135.8526,136.8521,,,,,,,,,,,,,,,,,,,,,,,,,,136.8521,137.3023,m,1,0.4357,,137.3024,137.3024,,0,38,38,83,1,84,küçük,14048,638.2854,12467,1.3629,5,harmonic,1.75,word,m,,,,,,,
,,,,,,,,,,,,001,2023-11-09_11h13.28.022,vowel_harmony,2023.2.3,Win32,60.08171113,137.3026,138.3021,,,,,,,,,,,,,,,,,,,,,,,,,,138.3022,138.7189,m,0,0.4006,,138.7189,138.719,,0,39,39,302,1,303,işgar,,,,,5,notharmonic,1.9,nw,z,,,,,,,
,,,,,,,,,,,,001,2023-11-09_11h13.28.022,vowel_harmony,2023.2.3,Win32,60.08171113,138.7193,139.7187,,,,,,,,,,,,,,,,,,,,,,,,,,139.7187,140.4521,z,1,0.7285,,140.4522,140.4522,,0,40,40,339,1,340,asmel,,,,,5,notharmonic,1.95,nw,z,,,,,,,
,,,,,,,,,,,,001,2023-11-09_11h13.28.022,vowel_harmony,2023.2.3,Win32,60.08171113,140.4525,141.4521,,,,,,,,,,,,,,,,,,,,,,,,,,141.4521,142.0687,m,1,0.6019,,142.0688,142.0688,,0,41,41,132,1,133,modern,2326,105.6842,2031,0.222,6,notharmonic,1.85,word,m,,,,,,,
,,,,,,,,,,,,001,2023-11-09_11h13.28.022,vowel_harmony,2023.2.3,Win32,60.08171113,142.069,143.0687,,,,,,,,,,,,,,,,,,,,,,,,,,143.0687,143.6521,m,1,0.5787,,143.6521,143.6522,,0,42,42,31,1,32,fazla,18293,831.1614,16694,1.825,5,harmonic,1,word,m,,,,,,,
,,,,,,,,,,,,001,2023-11-09_11h13.28.022,vowel_harmony,2023.2.3,Win32,60.08171113,143.6524,144.652,,,,,,,,,,,,,,,,,,,,,,,,,,144.6521,145.302,z,1,0.6418,,145.302,145.3021,,0,43,43,236,1,237,toklam,,,,,6,harmonic,1.85,nw,z,,,,,,,
,,,,,,,,,,,,001,2023-11-09_11h13.28.022,vowel_harmony,2023.2.3,Win32,60.08171113,145.3023,146.3019,,,,,,,,,,,,,,,,,,,,,,,,,,146.3019,146.9852,m,1,0.6731,,146.9853,146.9853,,0,44,44,164,1,165,sinema,1575,71.5618,1304,0.1426,6,notharmonic,1.8,word,m,,,,,,,
,,,,,,,,,,,,001,2023-11-09_11h13.28.022,vowel_harmony,2023.2.3,Win32,60.08171113,146.9855,147.9853,,,,,,,,,,,,,,,,,,,,,,,,,,147.9853,148.5852,m,1,0.5817,,148.5852,148.5853,,0,45,45,101,1,102,imza,1358,61.7021,1253,0.137,4,notharmonic,1.65,word,m,,,,,,,
,,,,,,,,,,,,001,2023-11-09_11h13.28.022,vowel_harmony,2023.2.3,Win32,60.08171113,148.5855,149.5856,,,,,,,,,,,,,,,,,,,,,,,,,,149.5856,150.3685,z,1,0.7726,,150.3685,150.3685,,0,46,46,323,1,324,devak,,,,,5,notharmonic,1.75,nw,z,,,,,,,
,,,,,,,,,,,,001,2023-11-09_11h13.28.022,vowel_harmony,2023.2.3,Win32,60.08171113,150.3687,151.3685,,,,,,,,,,,,,,,,,,,,,,,,,,151.3685,151.9684,m,1,0.589,,151.9684,151.9685,,0,47,47,105,1,106,sahip,10887,494.6621,9847,1.0765,5,notharmonic,1.25,word,m,,,,,,,
,,,,,,,,,,,,001,2023-11-09_11h13.28.022,vowel_harmony,2023.2.3,Win32,60.08171113,151.9688,152.9684,,,,,,,,,,,,,,,,,,,,,,,,,,152.9684,153.4683,m,1,0.4944,,153.4683,153.4684,,0,48,48,125,1,126,ikna,1276,57.9764,1173,0.1282,4,notharmonic,1.85,word,m,,,,,,,
,,,,,,,,,,,,001,2023-11-09_11h13.28.022,vowel_harmony,2023.2.3,Win32,60.08171113,153.4685,154.4683,,,,,,,,,,,,,,,,,,,,,,,,,,154.4683,155.2183,z,1,0.7376,,155.2184,155.2184,,0,49,49,345,1,346,bardeş,,,,,6,notharmonic,1.95,nw,z,,,,,,,
,,,,,,,,,,,,001,2023-11-09_11h13.28.022,vowel_harmony,2023.2.3,Win32,60.08171113,155.2187,156.2182,,,,,,,,,,,,,,,,,,,,,,,,,,156.2184,156.8683,z,1,0.6446,,156.8683,156.8684,,0,50,50,201,1,202,ergiy,,,,,5,harmonic,1.85,nw,z,,,,,,,
,,,,,,,,,,,,001,2023-11-09_11h13.28.022,vowel_harmony,2023.2.3,Win32,60.08171113,156.8685,157.8682,,,,,,,,,,,,,,,,,,,,,,,,,,157.8682,159.3682,z,1,1.4895,,159.3682,159.3683,,0,51,51,359,1,360,kardez,,,,,6,notharmonic,1.95,nw,z,,,,,,,
,,,,,,,,,,,,001,2023-11-09_11h13.28.022,vowel_harmony,2023.2.3,Win32,60.08171113,159.3686,160.3682,,,,,,,,,,,,,,,,,,,,,,,,,,160.3682,161.0848,m,1,0.7103,,161.0848,161.0848,,0,52,52,30,1,31,çevre,1662,75.5147,1409,0.154,5,harmonic,1.55,word,m,,,,,,,
,,,,,,,,,,,,001,2023-11-09_11h13.28.022,vowel_harmony,2023.2.3,Win32,60.08171113,161.085,162.0848,,,,,,,,,,,,,,,,,,,,,,,,,,162.0848,163.1181,z,1,1.0184,,163.1183,163.1183,,0,53,53,341,1,342,işgan,,,,,5,notharmonic,1.95,nw,z,,,,,,,
,,,,,,,,,,,,001,2023-11-09_11h13.28.022,vowel_harmony,2023.2.3,Win32,60.08171113,163.1187,164.1182,,,,,,,,,,,,,,,,,,,,,,,,,,164.1182,164.9014,z,1,0.7676,,164.9014,164.9015,,0,54,54,324,1,325,pakeh,,,,,5,notharmonic,1.9,nw,z,,,,,,,
,,,,,,,,,,,,001,2023-11-09_11h13.28.022,vowel_harmony,2023.2.3,Win32,60.08171113,164.9017,165.9013,,,,,,,,,,,,,,,,,,,,,,,,,,165.9013,166.618,z,1,0.6976,,166.618,166.618,,0,55,55,281,1,282,afel,,,,,4,notharmonic,1.8,nw,z,,,,,,,
,,,,,,,,,,,,001,2023-11-09_11h13.28.022,vowel_harmony,2023.2.3,Win32,60.08171113,166.6182,167.6179,,,,,,,,,,,,,,,,,,,,,,,,,,167.6179,168.3679,z,1,0.7403,,168.3679,168.368,,0,56,56,182,1,183,orsın,,,,,5,harmonic,1.95,nw,z,,,,,,,
,,,,,,,,,,,,001,2023-11-09_11h13.28.022,vowel_harmony,2023.2.3,Win32,60.08171113,168.3682,169.3678,,,,,,,,,,,,,,,,,,,,,,,,,,169.3678,170.0513,m,1,0.68,,170.0514,170.0514,,0,57,57,98,1,99,paket,1532,69.608,1392,0.1522,5,notharmonic,1.55,word,m,,,,,,,
,,,,,,,,,,,,001,2023-11-09_11h13.28.022,vowel_harmony,2023.2.3,Win32,60.08171113,170.0518,171.0512,,,,,,,,,,,,,,,,,,,,,,,,,,171.0512,172.3011,z,1,1.2359,,172.3011,172.3012,,0,58,58,298,1,299,yelsın,,,,,6,notharmonic,1.95,nw,z,,,,,,,
,,,,,,,,,,,,001,2023-11-09_11h13.28.022,vowel_harmony,2023.2.3,Win32,60.08171113,172.3014,173.301,,,,,,,,,,,,,,,,,,,,,,,,,,173.3011,175.2176,m,1,1.9058,,175.2176,175.2177,,0,59,59,143,1,144,kitap,8359,379.7998,6786,0.7418,5,notharmonic,1.9,word,m,,,,,,,
,,,,,,,,,,,,001,2023-11-09_11h13.28.022,vowel_harmony,2023.2.3,Win32,60.08171113,175.2179,176.2176,,,,,,,,,,,,,,,,,,,,,,,,,,176.2176,176.9008,z,1,0.6693,,176.9009,176.9009,,0,60,60,351,1,352,seğlık,,,,,6,notharmonic,1.9,nw,z,,,,,,,
,,,,,,,,,,,,001,2023-11-09_11h13.28.022,vowel_harmony,2023.2.3,Win32,60.08171113,176.9011,177.901,,,,,,,,,,,,,,,,,,,,,,,,,,177.901,178.451,m,1,0.539,,178.451,178.451,,0,61,61,96,1,97,dahil,3189,144.8955,3060,0.3345,5,notharmonic,1.7,word,m,,,,,,,
,,,,,,,,,,,,001,2023-11-09_11h13.28.022,vowel_harmony,2023.2.3,Win32,60.08171113,178.4512,179.4509,,,,,,,,,,,,,,,,,,,,,,,,,,179.4509,180.1176,z,1,0.6593,,180.1177,180.1178,,0,62,62,192,1,193,vecö,,,,,4,harmonic,1.95,nw,z,,,,,,,
,,,,,,,,,,,,001,2023-11-09_11h13.28.022,vowel_harmony,2023.2.3,Win32,60.08171113,180.118,181.1176,,,,,,,,,,,,,,,,,,,,,,,,,,181.1177,181.7841,m,1,0.6567,,181.7841,181.7842,,0,63,63,122,1,123,devam,17666,802.673,16284,1.7802,5,notharmonic,1.55,word,m,,,,,,,
,,,,,,,,,,,,001,2023-11-09_11h13.28.022,vowel_harmony,2023.2.3,Win32,60.08171113,181.7844,182.7841,,,,,,,,,,,,,,,,,,,,,,,,,,182.7841,183.4675,z,1,0.677,,183.4675,183.4676,,0,64,64,285,1,286,iklon,,,,,5,notharmonic,1.85,nw,z,,,,,,,
,,,,,,,,,,,,001,2023-11-09_11h13.28.022,vowel_harmony,2023.2.3,Win32,60.08171113,183.4679,184.4675,,,,,,,,,,,,,,,,,,,,,,,,,,184.4675,185.0174,m,1,0.5321,,185.0174,185.0174,,0,65,65,35,1,36,hava,4975,226.0443,4398,0.4808,4,harmonic,1,word,m,,,,,,,
,,,,,,,,,,,,001,2023-11-09_11h13.28.022,vowel_harmony,2023.2.3,Win32,60.08171113,185.0176,186.0172,,,,,,,,,,,,,,,,,,,,,,,,,,186.0172,186.4508,m,1,0.4217,,186.4508,186.4509,,0,66,66,163,1,164,limon,1658,75.3329,1481,0.1619,5,notharmonic,1.75,word,m,,,,,,,
,,,,,,,,,,,,001,2023-11-09_11h13.28.022,vowel_harmony,2023.2.3,Win32,60.08171113,186.4511,187.4506,,,,,,,,,,,,,,,,,,,,,,,,,,187.4507,187.8673,m,1,0.4052,,187.8673,187.8674,,0,67,67,162,1,163,hariç,1267,57.5675,1233,0.1348,5,notharmonic,1.75,word,m,,,,,,,
,,,,,,,,,,,,001,2023-11-09_11h13.28.022,vowel_harmony,2023.2.3,Win32,60.08171113,187.8676,188.8672,,,,,,,,,,,,,,,,,,,,,,,,,,188.8673,189.4004,m,1,0.5234,,189.4005,189.4005,,0,68,68,53,1,54,gelir,7578,344.3143,7014,0.7668,5,harmonic,1.4,word,m,,,,,,,
,,,,,,,,,,,,001,2023-11-09_11h13.28.022,vowel_harmony,2023.2.3,Win32,60.08171113,189.4007,190.4005,,,,,,,,,,,,,,,,,,,,,,,,,,190.4006,190.8505,m,1,0.4302,,190.8505,190.8505,,0,69,69,110,1,111,rüya,1062,48.2531,937,0.1024,4,notharmonic,1.75,word,m,,,,,,,
,,,,,,,,,,,,001,2023-11-09_11h13.28.022,vowel_harmony,2023.2.3,Win32,60.08171113,190.8508,191.8504,,,,,,,,,,,,,,,,,,,,,,,,,,191.8505,192.2673,m,1,0.4051,,192.2673,192.2674,,0,70,70,178,1,179,dikkat,6230,283.0665,5888,0.6437,6,notharmonic,2.05,word,m,,,,,,,
,,,,,,,,,,,,001,2023-11-09_11h13.28.022,vowel_harmony,2023.2.3,Win32,60.08171113,192.2677,193.2671,,,,,,,,,,,,,,,,,,,,,,,,,,193.2671,194.2004,z,1,0.9166,,194.2004,194.2011,,0,71,71,214,1,215,vecü,,,,,4,harmonic,1.95,nw,z,,,,,,,
,,,,,,,,,,,,001,2023-11-09_11h13.28.022,vowel_harmony,2023.2.3,Win32,60.08171113,194.2013,195.2004,,,,,,,,,,,,,,,,,,,,,,,,,,195.2004,195.9006,m,1,0.6864,,195.9006,195.9007,,0,72,72,148,1,149,selam,1868,84.8745,1764,0.1928,5,notharmonic,1.35,word,m,,,,,,,
,,,,,,,,,,,,001,2023-11-09_11h13.28.022,vowel_harmony,2023.2.3,Win32,60.08171113,195.901,196.9003,,,,,,,,,,,,,,,,,,,,,,,,,,196.9003,197.7336,m,1,0.8181,,197.7336,197.7336,,0,73,73,7,1,8,hizmet,3023,137.3531,2689,0.294,6,harmonic,1.75,word,m,,,,,,,
,,,,,,,,,,,,001,2023-11-09_11h13.28.022,vowel_harmony,2023.2.3,Win32,60.08171113,197.7339,198.7335,,,,,,,,,,,,,,,,,,,,,,,,,,198.7336,199.2503,m,1,0.5057,,199.2503,199.2504,,0,74,74,104,1,105,cevap,5232,237.7213,4822,0.5271,5,notharmonic,1.85,word,m,,,,,,,
,,,,,,,,,,,,001,2023-11-09_11h13.28.022,vowel_harmony,2023.2.3,Win32,60.08171113,199.2507,200.2503,,,,,,,,,,,,,,,,,,,,,,,,,,200.2503,200.8003,m,1,0.5403,,200.8003,200.8004,,0,75,75,109,1,110,milyon,3936,178.8362,2958,0.3234,6,notharmonic,1.75,word,m,,,,,,,
,,,,,,,,,,,,001,2023-11-09_11h13.28.022,vowel_harmony,2023.2.3,Win32,60.08171113,200.8006,201.8002,,,,,,,,,,,,,,,,,,,,,,,,,,201.8002,202.1502,m,1,0.3427,,202.1503,202.1503,,0,76,76,136,1,137,beyaz,5517,250.6706,4788,0.5234,5,notharmonic,1.85,word,m,,,,,,,
,,,,,,,,,,,,001,2023-11-09_11h13.28.022,vowel_harmony,2023.2.3,Win32,60.08171113,202.1504,203.1503,,,,,,,,,,,,,,,,,,,,,,,,,,203.1503,203.9334,m,1,0.7758,,203.9334,203.9335,,0,77,77,166,1,167,maden,402,18.2653,339,0.0371,5,notharmonic,1.45,word,m,,,,,,,
,,,,,,,,,,,,001,2023-11-09_11h13.28.022,vowel_harmony,2023.2.3,Win32,60.08171113,203.9337,204.9335,,,,,,,,,,,,,,,,,,,,,,,,,,204.9335,205.3,m,1,0.3607,,205.3001,205.3001,,0,78,78,154,1,155,sakin,1855,84.2838,1635,0.1787,5,notharmonic,1.05,word,m,,,,,,,
,,,,,,,,,,,,001,2023-11-09_11h13.28.022,vowel_harmony,2023.2.3,Win32,60.08171113,205.3003,206.3002,,,,,,,,,,,,,,,,,,,,,,,,,,206.3003,206.6334,m,0,0.322,,206.6334,206.6335,,0,79,79,259,1,260,hayuk,,,,,5,harmonic,1.95,nw,z,,,,,,,
,,,,,,,,,,,,001,2023-11-09_11h13.28.022,vowel_harmony,2023.2.3,Win32,60.08171113,206.6337,207.6333,,,,,,,,,,,,,,,,,,,,,,,,,,207.6333,208.4166,z,1,0.7654,,208.4166,208.4166,,0,80,80,329,1,330,taif,,,,,4,notharmonic,1.8,nw,z,,,,,,,
,,,,,,,,,,,,001,2023-11-09_11h13.28.022,vowel_harmony,2023.2.3,Win32,60.08171113,208.4168,209.4166,,,,,,,,,,,,,,,,,,,,,,,,,,209.4166,209.9666,m,1,0.5414,,209.9667,209.9668,,0,81,81,102,1,103,esas,1965,89.2818,1795,0.1962,4,notharmonic,1.75,word,m,,,,,,,
,,,,,,,,,,,,001,2023-11-09_11h13.28.022,vowel_harmony,2023.2.3,Win32,60.08171113,209.9671,210.9665,,,,,,,,,,,,,,,,,,,,,,,,,,210.9665,211.5666,z,1,0.5923,,211.5666,211.5666,,0,82,82,184,1,185,yapor,,,,,5,harmonic,1.9,nw,z,,,,,,,
,,,,,,,,,,,,001,2023-11-09_11h13.28.022,vowel_harmony,2023.2.3,Win32,60.08171113,211.5668,212.5665,,,,,,,,,,,,,,,,,,,,,,,,,,212.5665,213.7498,m,1,1.1746,,213.7499,213.7499,,0,83,83,118,1,119,meşhur,1092,49.6161,1057,0.1156,6,notharmonic,1.9,word,m,,,,,,,
,,,,,,,,,,,,001,2023-11-09_11h13.28.022,vowel_harmony,2023.2.3,Win32,60.08171113,213.7501,214.7498,,,,,,,,,,,,,,,,,,,,,,,,,,214.7498,215.6998,z,1,0.937,,215.6998,215.6998,,0,84,84,297,1,298,sapet,,,,,5,notharmonic,1.85,nw,z,,,,,,,
,,,,,,,,,,,,001,2023-11-09_11h13.28.022,vowel_harmony,2023.2.3,Win32,60.08171113,215.7001,216.6997,,,,,,,,,,,,,,,,,,,,,,,,,,216.6997,217.3497,m,1,0.644,,217.3497,217.3498,,0,85,85,119,1,120,kulüp,649,29.488,467,0.0511,5,notharmonic,1.4,word,m,,,,,,,
,,,,,,,,,,,,001,2023-11-09_11h13.28.022,vowel_harmony,2023.2.3,Win32,60.08171113,217.35,218.3496,,,,,,,,,,,,,,,,,,,,,,,,,,218.3496,218.7996,m,1,0.4406,,218.7996,218.7997,,0,86,86,27,1,28,bölge,1283,58.2944,1123,0.1228,5,harmonic,1.65,word,m,,,,,,,
,,,,,,,,,,,,001,2023-11-09_11h13.28.022,vowel_harmony,2023.2.3,Win32,60.08171113,218.7999,219.7996,,,,,,,,,,,,,,,,,,,,,,,,,,219.7997,220.4996,z,1,0.6875,,220.4998,220.4998,,0,87,87,186,1,187,habık,,,,,5,harmonic,1.9,nw,z,,,,,,,
,,,,,,,,,,,,001,2023-11-09_11h13.28.022,vowel_harmony,2023.2.3,Win32,60.08171113,220.4999,221.4995,,,,,,,,,,,,,,,,,,,,,,,,,,221.4995,222.4328,z,1,0.9233,,222.4329,222.4329,,0,88,88,234,1,235,düzöt,,,,,5,harmonic,2.05,nw,z,,,,,,,
,,,,,,,,,,,,001,2023-11-09_11h13.28.022,vowel_harmony,2023.2.3,Win32,60.08171113,222.4333,223.4329,,,,,,,,,,,,,,,,,,,,,,,,,,223.4329,223.9328,m,0,0.4863,,223.9328,223.9329,,0,89,89,270,1,271,miyaj,,,,,5,notharmonic,1.9,nw,z,,,,,,,
,,,,,,,,,,,,001,2023-11-09_11h13.28.022,vowel_harmony,2023.2.3,Win32,60.08171113,223.9331,224.9328,,,,,,,,,,,,,,,,,,,,,,,,,,224.9329,225.8995,z,1,0.9535,,225.8995,225.8995,,0,90,90,342,1,343,kulön,,,,,5,notharmonic,1.9,nw,z,,,,,,,
,,,,,,,,,,,,001,2023-11-09_11h13.28.022,vowel_harmony,2023.2.3,Win32,60.08171113,225.8997,226.8994,,,,,,,,,,,,,,,,,,,,,,,,,,226.8994,227.6993,z,1,0.7874,,227.6993,227.6994,,0,91,91,240,1,241,hoga,,,,,4,harmonic,1.75,nw,z,,,,,,,
,,,,,,,,,,,,001,2023-11-09_11h13.28.022,vowel_harmony,2023.2.3,Win32,60.08171113,227.6996,228.6994,,,,,,,,,,,,,,,,,,,,,,,,,,228.6995,229.3494,z,1,0.6345,,229.3494,229.3494,,0,92,92,304,1,305,annö,,,,,4,notharmonic,1.95,nw,z,,,,,,,
,,,,,,,,,,,,001,2023-11-09_11h13.28.022,vowel_harmony,2023.2.3,Win32,60.08171113,229.3497,230.35,,,,,,,,,,,,,,,,,,,,,,,,,,230.35,231.4326,m,1,1.0736,,231.4326,231.4327,,0,93,93,8,1,9,güven,1433,65.1098,1300,0.1421,5,harmonic,1.35,word,m,,,,,,,
,,,,,,,,,,,,001,2023-11-09_11h13.28.022,vowel_harmony,2023.2.3,Win32,60.08171113,231.4328,232.4325,,,,,,,,,,,,,,,,,,,,,,,,,,232.4325,233.2326,m,1,0.7815,,233.2326,233.2327,,0,94,94,65,1,66,fikir,2552,115.9528,2413,0.2638,5,harmonic,1.9,word,m,,,,,,,
,,,,,,,,,,,,001,2023-11-09_11h13.28.022,vowel_harmony,2023.2.3,Win32,60.08171113,233.2329,234.2325,,,,,,,,,,,,,,,,,,,,,,,,,,234.2326,234.9824,m,1,0.7338,,234.9824,234.9825,,0,95,95,155,1,156,ilaç,1366,62.0656,1215,0.1328,4,notharmonic,1.75,word,m,,,,,,,
,,,,,,,,,,,,001,2023-11-09_11h13.28.022,vowel_harmony,2023.2.3,Win32,60.08171113,234.9827,235.9824,,,,,,,,,,,,,,,,,,,,,,,,,,235.9824,236.5658,m,1,0.5676,,236.5658,236.5659,,0,96,96,168,1,169,kilo,3389,153.9827,2646,0.2893,4,notharmonic,1.65,word,m,,,,,,,
,,,,,,,,,,,,001,2023-11-09_11h13.28.022,vowel_harmony,2023.2.3,Win32,60.08171113,236.5661,237.5657,,,,,,,,,,,,,,,,,,,,,,,,,,237.5658,238.3157,m,1,0.7458,,238.3157,238.3158,,0,97,97,99,1,100,ilave,3173,144.1685,2619,0.2863,5,notharmonic,1.85,word,m,,,,,,,
,,,,,,,,,,,,001,2023-11-09_11h13.28.022,vowel_harmony,2023.2.3,Win32,60.08171113,238.3159,239.3156,,,,,,,,,,,,,,,,,,,,,,,,,,239.3156,240.3324,m,1,1.0116,,240.3324,240.3324,,0,98,98,120,1,121,ihmal,1002,45.5269,977,0.1068,5,notharmonic,1.65,word,m,,,,,,,
,,,,,,,,,,,,001,2023-11-09_11h13.28.022,vowel_harmony,2023.2.3,Win32,60.08171113,240.3326,241.3322,,,,,,,,,,,,,,,,,,,,,,,,,,241.3322,241.7489,m,1,0.4106,,241.749,241.749,,0,99,99,11,1,12,umut,1988,90.3268,1818,0.1987,4,harmonic,1.55,word,m,,,,,,,
,,,,,,,,,,,,001,2023-11-09_11h13.28.022,vowel_harmony,2023.2.3,Win32,60.08171113,241.7492,242.749,,,,,,,,,,,,,,,,,,,,,,,,,,242.749,243.5156,z,1,0.7469,,243.5156,243.5156,,0,100,100,254,1,255,millek,,,,,6,harmonic,1.8,nw,z,,,,,,,
,,,,,,,,,,,,001,2023-11-09_11h13.28.022,vowel_harmony,2023.2.3,Win32,60.08171113,243.5158,244.5156,,,,,,,,,,,,,,,,,,,,,,,,,,244.5156,245.1823,z,1,0.6514,,245.1823,245.1823,,0,101,101,210,1,211,şevci,,,,,5,harmonic,1.75,nw,z,,,,,,,
,,,,,,,,,,,,001,2023-11-09_11h13.28.022,vowel_harmony,2023.2.3,Win32,60.08171113,245.1826,246.1821,,,,,,,,,,,,,,,,,,,,,,,,,,246.1821,246.9322,m,1,0.7453,,246.9323,246.9324,,0,102,102,34,1,35,hoca,1893,86.0104,1526,0.1668,4,harmonic,1.45,word,m,,,,,,,
,,,,,,,,,,,,001,2023-11-09_11h13.28.022,vowel_harmony,2023.2.3,Win32,60.08171113,246.9327,247.9321,,,,,,,,,,,,,,,,,,,,,,,,,,247.9321,248.7987,z,1,0.8506,,248.7987,248.7987,,0,103,103,263,1,264,duzur,,,,,5,harmonic,1.8,nw,z,,,,,,,
,,,,,,,,,,,,001,2023-11-09_11h13.28.022,vowel_harmony,2023.2.3,Win32,60.08171113,248.7988,249.7987,,,,,,,,,,,,,,,,,,,,,,,,,,249.7987,250.9153,z,1,1.112,,250.9153,250.9153,,0,104,104,266,1,267,düştön,,,,,6,harmonic,1.9,nw,z,,,,,,,
,,,,,,,,,,,,001,2023-11-09_11h13.28.022,vowel_harmony,2023.2.3,Win32,60.08171113,250.9156,251.9152,,,,,,,,,,,,,,,,,,,,,,,,,,251.9152,252.5486,m,1,0.627,,252.5487,252.5488,,0,105,105,6,1,7,hayal,4498,204.3713,4079,0.4459,5,harmonic,1.45,word,m,,,,,,,
,,,,,,,,,,,,001,2023-11-09_11h13.28.022,vowel_harmony,2023.2.3,Win32,60.08171113,252.5491,253.5486,,,,,,,,,,,,,,,,,,,,,,,,,,253.5486,254.1986,m,1,0.6415,,254.1986,254.1986,,0,106,106,23,1,24,kurum,986,44.7999,882,0.0964,5,harmonic,1.75,word,m,,,,,,,
,,,,,,,,,,,,001,2023-11-09_11h13.28.022,vowel_harmony,2023.2.3,Win32,60.08171113,254.1988,255.1985,,,,,,,,,,,,,,,,,,,,,,,,,,255.1985,256.6651,z,1,1.4555,,256.6652,256.6652,,0,107,107,233,1,234,devpi,,,,,5,harmonic,1.8,nw,z,,,,,,,
,,,,,,,,,,,,001,2023-11-09_11h13.28.022,vowel_harmony,2023.2.3,Win32,60.08171113,256.6655,257.665,,,,,,,,,,,,,,,,,,,,,,,,,,257.6651,258.5152,m,1,0.8305,,258.5153,258.5155,,0,108,108,46,1,47,takım,4370,198.5555,3726,0.4073,5,harmonic,1.7,word,m,,,,,,,
,,,,,,,,,,,,001,2023-11-09_11h13.28.022,vowel_harmony,2023.2.3,Win32,60.08171113,258.5157,259.5151,,,,,,,,,,,,,,,,,,,,,,,,,,259.5151,260.7817,z,1,1.2516,,260.7817,260.7817,,0,109,109,287,1,288,haköm,,,,,5,notharmonic,1.9,nw,z,,,,,,,
,,,,,,,,,,,,001,2023-11-09_11h13.28.022,vowel_harmony,2023.2.3,Win32,60.08171113,260.7819,261.7816,,,,,,,,,,,,,,,,,,,,,,,,,,261.7816,262.415,m,1,0.6249,,262.415,262.4151,,0,110,110,14,1,15,yaşam,4348,197.5559,3918,0.4283,5,harmonic,1.4,word,m,,,,,,,
,,,,,,,,,,,,001,2023-11-09_11h13.28.022,vowel_harmony,2023.2.3,Win32,60.08171113,262.4154,263.4149,,,,,,,,,,,,,,,,,,,,,,,,,,263.415,264.0483,m,1,0.6165,,264.0483,264.0483,,0,111,111,29,1,30,huzur,1911,86.8283,1799,0.1967,5,harmonic,1.8,word,m,,,,,,,
,,,,,,,,,,,,001,2023-11-09_11h13.28.022,vowel_harmony,2023.2.3,Win32,60.08171113,264.0485,265.0482,,,,,,,,,,,,,,,,,,,,,,,,,,265.0482,265.9315,z,1,0.8778,,265.9316,265.9316,,0,112,112,242,1,243,kahon,,,,,5,harmonic,1.85,nw,z,,,,,,,
,,,,,,,,,,,,001,2023-11-09_11h13.28.022,vowel_harmony,2023.2.3,Win32,60.08171113,265.9319,266.9315,,,,,,,,,,,,,,,,,,,,,,,,,,266.9315,267.8314,z,1,0.8909,,267.8315,267.8315,,0,113,113,268,1,269,haldum,,,,,6,harmonic,2,nw,z,,,,,,,
,,,,,,,,,,,,001,2023-11-09_11h13.28.022,vowel_harmony,2023.2.3,Win32,60.08171113,267.8318,268.8314,,,,,,,,,,,,,,,,,,,,,,,,,,268.8314,269.7148,m,1,0.8717,,269.7148,269.7148,,0,114,114,165,1,166,gazete,1402,63.7013,1270,0.1388,6,notharmonic,1.8,word,m,,,,,,,
,,,,,,,,,,,,001,2023-11-09_11h13.28.022,vowel_harmony,2023.2.3,Win32,60.08171113,269.7151,270.7147,,,,,,,,,,,,,,,,,,,,,,,,,,270.7147,271.5314,z,1,0.7971,,271.5315,271.5315,,0,115,115,243,1,244,korguf,,,,,6,harmonic,2,nw,z,,,,,,,
,,,,,,,,,,,,001,2023-11-09_11h13.28.022,vowel_harmony,2023.2.3,Win32,60.08171113,271.5317,272.5314,,,,,,,,,,,,,,,,,,,,,,,,,,272.5314,273.3147,m,1,0.7699,,273.3147,273.3147,,0,116,116,145,1,146,iddia,2430,110.4096,2295,0.2509,5,notharmonic,1.85,word,m,,,,,,,
,,,,,,,,,,,,001,2023-11-09_11h13.28.022,vowel_harmony,2023.2.3,Win32,60.08171113,273.3149,274.3147,,,,,,,,,,,,,,,,,,,,,,,,,,274.3149,274.9646,m,1,0.6436,,274.9646,274.9647,,0,117,117,56,1,57,sağlam,1818,82.6027,1720,0.188,6,harmonic,1.6,word,m,,,,,,,
,,,,,,,,,,,,001,2023-11-09_11h13.28.022,vowel_harmony,2023.2.3,Win32,60.08171113,274.965,275.9646,,,,,,,,,,,,,,,,,,,,,,,,,,275.9646,276.8311,z,1,0.8495,,276.8311,276.8311,,0,118,118,299,1,300,fihal,,,,,5,notharmonic,1.95,nw,z,,,,,,,
,,,,,,,,,,,,001,2023-11-09_11h13.28.022,vowel_harmony,2023.2.3,Win32,60.08171113,276.8314,277.831,,,,,,,,,,,,,,,,,,,,,,,,,,277.8311,278.4477,z,1,0.5998,,278.4477,278.4478,,0,119,119,317,1,318,mevul,,,,,5,notharmonic,1.95,nw,z,,,,,,,
,,,,,,,,,,,,001,2023-11-09_11h13.28.022,vowel_harmony,2023.2.3,Win32,60.08171113,278.448,279.4477,,,,,,,,,,,,,,,,,,,,,,,,,,279.4477,280.0979,m,1,0.6393,,280.0979,282.7811,space,0,120,120,68,1,69,ücret,734,33.35,634,0.0693,5,harmonic,1.85,word,m,2.6774,,,,,,
,,,,,,,,,,,,001,2023-11-09_11h13.28.022,vowel_harmony,2023.2.3,Win32,60.08171113,282.7886,283.781,,,,,,,,,,,,,,,,,,,,,,,,,,283.781,284.3643,m,1,0.5693,,284.3643,284.3644,,0,121,121,176,1,177,harika,4682,212.7315,4422,0.4834,6,notharmonic,1.9,word,m,,,,,,,
,,,,,,,,,,,,001,2023-11-09_11h13.28.022,vowel_harmony,2023.2.3,Win32,60.08171113,284.3646,285.3643,,,,,,,,,,,,,,,,,,,,,,,,,,285.3643,285.9476,z,1,0.5637,,285.9476,285.9477,,0,122,122,215,1,216,aydo,,,,,4,harmonic,1.9,nw,z,,,,,,,
,,,,,,,,,,,,001,2023-11-09_11h13.28.022,vowel_harmony,2023.2.3,Win32,60.08171113,285.948,286.9475,,,,,,,,,,,,,,,,,,,,,,,,,,286.9475,287.5808,z,1,0.6268,,287.5808,287.581,,0,123,123,337,1,338,bakem,,,,,5,notharmonic,1.7,nw,z,,,,,,,
,,,,,,,,,,,,001,2023-11-09_11h13.28.022,vowel_harmony,2023.2.3,Win32,60.08171113,287.5812,288.5808,,,,,,,,,,,,,,,,,,,,,,,,,,288.5808,289.1642,m,1,0.5778,,289.1642,289.1642,,0,124,124,74,1,75,başarı,1398,63.5196,1300,0.1421,6,harmonic,1.2,word,m,,,,,,,
,,,,,,,,,,,,001,2023-11-09_11h13.28.022,vowel_harmony,2023.2.3,Win32,60.08171113,289.1645,290.1641,,,,,,,,,,,,,,,,,,,,,,,,,,290.1641,290.8808,m,1,0.7065,,290.8808,290.8809,,0,125,125,82,1,83,aday,1028,46.7082,873,0.0954,4,harmonic,1.45,word,m,,,,,,,
,,,,,,,,,,,,001,2023-11-09_11h13.28.022,vowel_harmony,2023.2.3,Win32,60.08171113,290.8812,291.8807,,,,,,,,,,,,,,,,,,,,,,,,,,291.8807,292.6473,z,1,0.7498,,292.6474,292.6475,,0,126,126,183,1,184,orkın,,,,,5,harmonic,1.9,nw,z,,,,,,,
,,,,,,,,,,,,001,2023-11-09_11h13.28.022,vowel_harmony,2023.2.3,Win32,60.08171113,292.6477,293.6473,,,,,,,,,,,,,,,,,,,,,,,,,,293.6473,294.1474,m,1,0.4803,,294.1475,294.1476,,0,127,127,55,1,56,akıl,2208,100.3228,2004,0.2191,4,harmonic,1,word,m,,,,,,,
,,,,,,,,,,,,001,2023-11-09_11h13.28.022,vowel_harmony,2023.2.3,Win32,60.08171113,294.1479,295.1473,,,,,,,,,,,,,,,,,,,,,,,,,,295.1473,295.614,m,1,0.4593,,295.614,295.614,,0,128,128,152,1,153,tedavi,1865,84.7382,1597,0.1746,6,notharmonic,1.8,word,m,,,,,,,
,,,,,,,,,,,,001,2023-11-09_11h13.28.022,vowel_harmony,2023.2.3,Win32,60.08171113,295.6142,296.6139,,,,,,,,,,,,,,,,,,,,,,,,,,296.6139,297.3305,z,1,0.6979,,297.3305,297.3306,,0,129,129,198,1,199,yarbız,,,,,6,harmonic,1.95,nw,z,,,,,,,
,,,,,,,,,,,,001,2023-11-09_11h13.28.022,vowel_harmony,2023.2.3,Win32,60.08171113,297.3309,298.3305,,,,,,,,,,,,,,,,,,,,,,,,,,298.3305,298.9471,z,1,0.5972,,298.9471,298.9471,,0,130,130,206,1,207,bevek,,,,,5,harmonic,1.75,nw,z,,,,,,,
,,,,,,,,,,,,001,2023-11-09_11h13.28.022,vowel_harmony,2023.2.3,Win32,60.08171113,298.9475,299.9473,,,,,,,,,,,,,,,,,,,,,,,,,,299.9473,300.7138,z,1,0.7467,,300.7138,300.7138,,0,131,131,348,1,349,aife,,,,,4,notharmonic,1.75,nw,z,,,,,,,
,,,,,,,,,,,,001,2023-11-09_11h13.28.022,vowel_harmony,2023.2.3,Win32,60.08171113,300.7141,301.7138,,,,,,,,,,,,,,,,,,,,,,,,,,301.7138,302.3804,m,1,0.66,,302.3805,302.3805,,0,132,132,131,1,132,hakim,1677,76.1962,1559,0.1704,5,notharmonic,1,word,m,,,,,,,
,,,,,,,,,,,,001,2023-11-09_11h13.28.022,vowel_harmony,2023.2.3,Win32,60.08171113,302.3807,303.3803,,,,,,,,,,,,,,,,,,,,,,,,,,303.3803,303.897,m,0,0.5073,,303.897,303.897,,0,133,133,216,1,217,çeyret,,,,,6,harmonic,1.9,nw,z,,,,,,,
,,,,,,,,,,,,001,2023-11-09_11h13.28.022,vowel_harmony,2023.2.3,Win32,60.08171113,303.8972,304.897,,,,,,,,,,,,,,,,,,,,,,,,,,304.897,305.5303,z,1,0.6126,,305.5303,305.5304,,0,134,134,247,1,248,hafgın,,,,,6,harmonic,2,nw,z,,,,,,,
,,,,,,,,,,,,001,2023-11-09_11h13.28.022,vowel_harmony,2023.2.3,Win32,60.08171113,305.5306,306.5303,,,,,,,,,,,,,,,,,,,,,,,,,,306.5303,307.0469,m,1,0.508,,307.047,307.0471,,0,135,135,76,1,77,ilişki,1675,76.1054,1524,0.1666,6,harmonic,1.8,word,m,,,,,,,
,,,,,,,,,,,,001,2023-11-09_11h13.28.022,vowel_harmony,2023.2.3,Win32,60.08171113,307.0473,308.047,,,,,,,,,,,,,,,,,,,,,,,,,,308.047,308.7634,z,1,0.7024,,308.7635,308.7635,,0,136,136,209,1,210,sapor,,,,,5,harmonic,1.8,nw,z,,,,,,,
,,,,,,,,,,,,001,2023-11-09_11h13.28.022,vowel_harmony,2023.2.3,Win32,60.08171113,308.7638,309.7636,,,,,,,,,,,,,,,,,,,,,,,,,,309.7636,310.3468,m,1,0.5721,,310.3469,310.3469,,0,137,137,124,1,125,ilan,1579,71.7435,1499,0.1639,4,notharmonic,1,word,m,,,,,,,
,,,,,,,,,,,,001,2023-11-09_11h13.28.022,vowel_harmony,2023.2.3,Win32,60.08171113,310.3471,311.3468,,,,,,,,,,,,,,,,,,,,,,,,,,311.3469,312.1634,z,1,0.8032,,312.1634,312.1635,,0,138,138,303,1,304,fisor,,,,,5,notharmonic,1.9,nw,z,,,,,,,
,,,,,,,,,,,,001,2023-11-09_11h13.28.022,vowel_harmony,2023.2.3,Win32,60.08171113,312.1638,313.1634,,,,,,,,,,,,,,,,,,,,,,,,,,313.1635,314.0135,z,1,0.8361,,314.0135,314.0136,,0,139,139,357,1,358,işarek,,,,,6,notharmonic,1.95,nw,z,,,,,,,
,,,,,,,,,,,,001,2023-11-09_11h13.28.022,vowel_harmony,2023.2.3,Win32,60.08171113,314.0138,315.0134,,,,,,,,,,,,,,,,,,,,,,,,,,315.0134,315.7133,m,1,0.6798,,315.7133,315.7133,,0,140,140,3,1,4,minik,2916,132.4915,2594,0.2836,5,harmonic,1.6,word,m,,,,,,,
,,,,,,,,,,,,001,2023-11-09_11h13.28.022,vowel_harmony,2023.2.3,Win32,60.08171113,315.7136,316.7133,,,,,,,,,,,,,,,,,,,,,,,,,,316.7134,317.4632,z,1,0.7412,,317.4632,317.4633,,0,141,141,231,1,232,norgun,,,,,6,harmonic,1.75,nw,z,,,,,,,
,,,,,,,,,,,,001,2023-11-09_11h13.28.022,vowel_harmony,2023.2.3,Win32,60.08171113,317.4636,318.4631,,,,,,,,,,,,,,,,,,,,,,,,,,318.4631,319.1132,m,1,0.6307,,319.1133,319.1133,,0,142,142,41,1,42,zengin,2193,99.6412,2015,0.2203,6,harmonic,1.65,word,m,,,,,,,
,,,,,,,,,,,,001,2023-11-09_11h13.28.022,vowel_harmony,2023.2.3,Win32,60.08171113,319.1135,320.1132,,,,,,,,,,,,,,,,,,,,,,,,,,320.1132,320.7298,m,1,0.598,,320.7298,320.7298,,0,143,143,116,1,117,daire,621,28.2158,503,0.055,5,notharmonic,1,word,m,,,,,,,
,,,,,,,,,,,,001,2023-11-09_11h13.28.022,vowel_harmony,2023.2.3,Win32,60.08171113,320.7301,321.7297,,,,,,,,,,,,,,,,,,,,,,,,,,321.7297,322.3798,m,1,0.6447,,322.3798,322.3798,,0,144,144,169,1,170,hikaye,1555,70.653,1405,0.1536,6,notharmonic,1.8,word,m,,,,,,,
,,,,,,,,,,,,001,2023-11-09_11h13.28.022,vowel_harmony,2023.2.3,Win32,60.08171113,322.38,323.3797,,,,,,,,,,,,,,,,,,,,,,,,,,323.3797,324.713,m,1,1.3234,,324.7131,324.7131,,0,145,145,149,1,150,ceza,2611,118.6335,2169,0.2371,4,notharmonic,1.5,word,m,,,,,,,
,,,,,,,,,,,,001,2023-11-09_11h13.28.022,vowel_harmony,2023.2.3,Win32,60.08171113,324.7133,325.713,,,,,,,,,,,,,,,,,,,,,,,,,,325.713,327.1463,m,1,1.4139,,327.1463,327.1463,,0,146,146,48,1,49,teşvik,932,42.3464,867,0.0948,6,harmonic,1.8,word,m,,,,,,,
,,,,,,,,,,,,001,2023-11-09_11h13.28.022,vowel_harmony,2023.2.3,Win32,60.08171113,327.1465,328.1463,,,,,,,,,,,,,,,,,,,,,,,,,,328.1463,329.5129,z,1,1.356,,329.5129,329.5129,,0,147,147,340,1,341,minya,,,,,5,notharmonic,1.95,nw,z,,,,,,,
,,,,,,,,,,,,001,2023-11-09_11h13.28.022,vowel_harmony,2023.2.3,Win32,60.08171113,329.5132,330.5128,,,,,,,,,,,,,,,,,,,,,,,,,,330.5129,331.6127,m,1,1.0845,,331.6127,331.6127,,0,148,148,172,1,173,milyar,1496,67.9723,1078,0.1178,6,notharmonic,1.85,word,m,,,,,,,
,,,,,,,,,,,,001,2023-11-09_11h13.28.022,vowel_harmony,2023.2.3,Win32,60.08171113,331.613,332.6128,,,,,,,,,,,,,,,,,,,,,,,,,,332.6128,333.4794,m,1,0.8494,,333.4794,333.4795,,0,149,149,113,1,114,model,1200,54.5232,1082,0.1183,5,notharmonic,1.75,word,m,,,,,,,
,,,,,,,,,,,,001,2023-11-09_11h13.28.022,vowel_harmony,2023.2.3,Win32,60.08171113,333.4797,334.4794,,,,,,,,,,,,,,,,,,,,,,,,,,334.4794,335.796,m,1,1.3034,,335.796,335.7961,,0,150,150,84,1,85,ülke,3121,141.8059,2801,0.3062,4,harmonic,1.65,word,m,,,,,,,
,,,,,,,,,,,,001,2023-11-09_11h13.28.022,vowel_harmony,2023.2.3,Win32,60.08171113,335.7963,336.7959,,,,,,,,,,,,,,,,,,,,,,,,,,336.7959,337.7293,z,1,0.9225,,337.7293,337.7294,,0,151,151,352,1,353,yılden,,,,,6,notharmonic,1.8,nw,z,,,,,,,
,,,,,,,,,,,,001,2023-11-09_11h13.28.022,vowel_harmony,2023.2.3,Win32,60.08171113,337.7296,338.7294,,,,,,,,,,,,,,,,,,,,,,,,,,338.7294,339.8959,m,1,1.1555,,339.8959,339.8959,,0,152,152,128,1,129,tatil,2152,97.7783,1865,0.2039,5,notharmonic,1.7,word,m,,,,,,,
,,,,,,,,,,,,001,2023-11-09_11h13.28.022,vowel_harmony,2023.2.3,Win32,60.08171113,339.8961,340.8958,,,,,,,,,,,,,,,,,,,,,,,,,,340.8958,341.6792,z,1,0.7741,,341.6792,341.6793,,0,153,153,261,1,262,kardok,,,,,6,harmonic,1.95,nw,z,,,,,,,
,,,,,,,,,,,,001,2023-11-09_11h13.28.022,vowel_harmony,2023.2.3,Win32,60.08171113,341.6796,342.6792,,,,,,,,,,,,,,,,,,,,,,,,,,342.6793,343.6958,m,1,1.0083,,343.6959,343.6959,,0,154,154,151,1,152,ateş,2108,95.7792,1803,0.1971,4,notharmonic,1.65,word,m,,,,,,,
,,,,,,,,,,,,001,2023-11-09_11h13.28.022,vowel_harmony,2023.2.3,Win32,60.08171113,343.6961,344.6958,,,,,,,,,,,,,,,,,,,,,,,,,,344.6958,345.1457,m,1,0.4301,,345.1458,345.1458,,0,155,155,39,1,40,yaygın,1061,48.2076,1019,0.1114,6,harmonic,1.35,word,m,,,,,,,
,,,,,,,,,,,,001,2023-11-09_11h13.28.022,vowel_harmony,2023.2.3,Win32,60.08171113,345.1459,346.1457,,,,,,,,,,,,,,,,,,,,,,,,,,346.1457,346.9123,z,1,0.7578,,346.9123,346.9123,,0,156,156,212,1,213,ortat,,,,,5,harmonic,1.7,nw,z,,,,,,,
,,,,,,,,,,,,001,2023-11-09_11h13.28.022,vowel_harmony,2023.2.3,Win32,60.08171113,346.9126,347.9124,,,,,,,,,,,,,,,,,,,,,,,,,,347.9124,348.4624,m,1,0.5418,,348.4624,348.4624,,0,157,157,126,1,127,adet,4367,198.4192,3768,0.4119,4,notharmonic,1.4,word,m,,,,,,,
,,,,,,,,,,,,001,2023-11-09_11h13.28.022,vowel_harmony,2023.2.3,Win32,60.08171113,348.4626,349.4622,,,,,,,,,,,,,,,,,,,,,,,,,,349.4622,350.2456,z,1,0.7772,,350.2457,350.2457,,0,158,158,310,1,311,yandeş,,,,,6,notharmonic,1.95,nw,z,,,,,,,
,,,,,,,,,,,,001,2023-11-09_11h13.28.022,vowel_harmony,2023.2.3,Win32,60.08171113,350.246,351.2455,,,,,,,,,,,,,,,,,,,,,,,,,,351.2455,351.9289,m,0,0.6644,,351.9289,351.9289,,0,159,159,332,1,333,tahane,,,,,6,notharmonic,1.85,nw,z,,,,,,,
,,,,,,,,,,,,001,2023-11-09_11h13.28.022,vowel_harmony,2023.2.3,Win32,60.08171113,351.9291,352.9289,,,,,,,,,,,,,,,,,,,,,,,,,,352.9289,353.3955,m,1,0.4621,,353.3955,353.3956,,0,160,160,57,1,58,bölüm,1910,86.7828,1605,0.1755,5,harmonic,1.45,word,m,,,,,,,
,,,,,,,,,,,,001,2023-11-09_11h13.28.022,vowel_harmony,2023.2.3,Win32,60.08171113,353.3959,354.3954,,,,,,,,,,,,,,,,,,,,,,,,,,354.3954,354.8455,m,1,0.4346,,354.8455,354.8456,,0,161,161,158,1,159,klasik,1871,85.0108,1734,0.1896,6,notharmonic,2,word,m,,,,,,,
,,,,,,,,,,,,001,2023-11-09_11h13.28.022,vowel_harmony,2023.2.3,Win32,60.08171113,354.8458,355.8454,,,,,,,,,,,,,,,,,,,,,,,,,,355.8454,356.562,z,1,0.698,,356.562,356.562,,0,162,162,224,1,225,ertre,,,,,5,harmonic,1.95,nw,z,,,,,,,
,,,,,,,,,,,,001,2023-11-09_11h13.28.022,vowel_harmony,2023.2.3,Win32,60.08171113,356.5623,357.562,,,,,,,,,,,,,,,,,,,,,,,,,,357.562,358.3621,m,0,0.7879,,358.3621,358.3621,,0,163,163,321,1,322,makih,,,,,5,notharmonic,1.8,nw,z,,,,,,,
,,,,,,,,,,,,001,2023-11-09_11h13.28.022,vowel_harmony,2023.2.3,Win32,60.08171113,358.3623,359.3618,,,,,,,,,,,,,,,,,,,,,,,,,,359.3618,359.8786,m,1,0.5013,,359.8786,359.8787,,0,164,164,95,1,96,takip,4996,226.9984,4651,0.5084,5,notharmonic,1.55,word,m,,,,,,,
,,,,,,,,,,,,001,2023-11-09_11h13.28.022,vowel_harmony,2023.2.3,Win32,60.08171113,359.8788,360.8786,,,,,,,,,,,,,,,,,,,,,,,,,,360.8786,361.6952,z,1,0.808,,361.6953,361.696,,0,165,165,271,1,272,mimal,,,,,5,notharmonic,1.8,nw,z,,,,,,,
,,,,,,,,,,,,001,2023-11-09_11h13.28.022,vowel_harmony,2023.2.3,Win32,60.08171113,361.6962,362.6952,,,,,,,,,,,,,,,,,,,,,,,,,,362.6952,363.6285,z,1,0.9195,,363.6285,363.6285,,0,166,166,279,1,280,tadde,,,,,5,notharmonic,1.8,nw,z,,,,,,,
,,,,,,,,,,,,001,2023-11-09_11h13.28.022,vowel_harmony,2023.2.3,Win32,60.08171113,363.6288,364.6285,,,,,,,,,,,,,,,,,,,,,,,,,,364.6285,365.4284,m,1,0.785,,365.4284,365.4284,,0,167,167,24,1,25,yorgun,1153,52.3877,1108,0.1211,6,harmonic,1.55,word,m,,,,,,,
,,,,,,,,,,,,001,2023-11-09_11h13.28.022,vowel_harmony,2023.2.3,Win32,60.08171113,365.4286,366.4284,,,,,,,,,,,,,,,,,,,,,,,,,,366.4284,367.1783,z,1,0.7311,,367.1784,367.1784,,0,168,168,305,1,306,tamü,,,,,4,notharmonic,1.75,nw,z,,,,,,,
,,,,,,,,,,,,001,2023-11-09_11h13.28.022,vowel_harmony,2023.2.3,Win32,60.08171113,367.1787,368.1783,,,,,,,,,,,,,,,,,,,,,,,,,,368.1784,369.4617,z,1,1.2674,,369.4617,369.4617,,0,169,169,338,1,339,pardön,,,,,6,notharmonic,1.95,nw,z,,,,,,,
,,,,,,,,,,,,001,2023-11-09_11h13.28.022,vowel_harmony,2023.2.3,Win32,60.08171113,369.4619,370.4616,,,,,,,,,,,,,,,,,,,,,,,,,,370.4617,371.1781,m,1,0.7046,,371.1782,371.1783,,0,170,170,2,1,3,radyo,763,34.6677,636,0.0695,5,harmonic,1.85,word,m,,,,,,,
,,,,,,,,,,,,001,2023-11-09_11h13.28.022,vowel_harmony,2023.2.3,Win32,60.08171113,371.1784,372.1782,,,,,,,,,,,,,,,,,,,,,,,,,,372.1782,372.8782,m,1,0.6848,,372.8782,372.8783,,0,171,171,174,1,175,bugün,13879,630.6067,12842,1.4039,5,notharmonic,1.85,word,m,,,,,,,
,,,,,,,,,,,,001,2023-11-09_11h13.28.022,vowel_harmony,2023.2.3,Win32,60.08171113,372.8785,373.8781,,,,,,,,,,,,,,,,,,,,,,,,,,373.8782,374.5948,z,1,0.7036,,374.5948,374.5949,,0,172,172,301,1,302,mezak,,,,,5,notharmonic,1.8,nw,z,,,,,,,
,,,,,,,,,,,,001,2023-11-09_11h13.28.022,vowel_harmony,2023.2.3,Win32,60.08171113,374.5951,375.5948,,,,,,,,,,,,,,,,,,,,,,,,,,375.5948,376.2282,z,1,0.6198,,376.2282,376.2282,,0,173,173,191,1,192,doab,,,,,4,harmonic,2,nw,z,,,,,,,
,,,,,,,,,,,,001,2023-11-09_11h13.28.022,vowel_harmony,2023.2.3,Win32,60.08171113,376.2284,377.228,,,,,,,,,,,,,,,,,,,,,,,,,,377.228,378.0447,z,1,0.802,,378.0448,378.0448,,0,174,174,328,1,329,kirul,,,,,5,notharmonic,1.95,nw,z,,,,,,,
,,,,,,,,,,,,001,2023-11-09_11h13.28.022,vowel_harmony,2023.2.3,Win32,60.08171113,378.045,379.0447,,,,,,,,,,,,,,,,,,,,,,,,,,379.0447,379.8113,z,1,0.7537,,379.8113,379.8115,,0,175,175,356,1,357,mergun,,,,,6,notharmonic,1.95,nw,z,,,,,,,
,,,,,,,,,,,,001,2023-11-09_11h13.28.022,vowel_harmony,2023.2.3,Win32,60.08171113,379.8117,380.8113,,,,,,,,,,,,,,,,,,,,,,,,,,380.8113,382.5946,z,1,1.7638,,382.5946,382.5947,,0,176,176,235,1,236,oşup,,,,,4,harmonic,1.75,nw,z,,,,,,,
,,,,,,,,,,,,001,2023-11-09_11h13.28.022,vowel_harmony,2023.2.3,Win32,60.08171113,382.6009,383.5946,,,,,,,,,,,,,,,,,,,,,,,,,,383.5946,384.3945,m,1,0.779,,384.3945,384.3945,,0,177,177,160,1,161,hakem,603,27.3979,473,0.0517,5,notharmonic,1.3,word,m,,,,,,,
,,,,,,,,,,,,001,2023-11-09_11h13.28.022,vowel_harmony,2023.2.3,Win32,60.08171113,384.3947,385.3944,,,,,,,,,,,,,,,,,,,,,,,,,,385.3945,386.0444,z,1,0.6451,,386.0444,386.0445,,0,178,178,255,1,256,yokın,,,,,5,harmonic,1.85,nw,z,,,,,,,
,,,,,,,,,,,,001,2023-11-09_11h13.28.022,vowel_harmony,2023.2.3,Win32,60.08171113,386.0446,387.0445,,,,,,,,,,,,,,,,,,,,,,,,,,387.0446,387.961,m,1,0.8968,,387.961,387.9611,,0,179,179,80,1,81,merkez,1445,65.6551,1255,0.1372,6,harmonic,1.8,word,m,,,,,,,
,,,,,,,,,,,,001,2023-11-09_11h13.28.022,vowel_harmony,2023.2.3,Win32,60.08171113,387.9613,388.9611,,,,,,,,,,,,,,,,,,,,,,,,,,388.9611,389.661,z,1,0.6946,,389.661,389.6611,,0,180,180,199,1,200,movu,,,,,4,harmonic,1.9,nw,z,,,,,,,
,,,,,,,,,,,,001,2023-11-09_11h13.28.022,vowel_harmony,2023.2.3,Win32,60.08171113,389.6613,390.661,,,,,,,,,,,,,,,,,,,,,,,,,,390.6611,391.4611,m,1,0.7937,,391.4611,391.4612,,0,181,181,140,1,141,sahil,481,21.8547,443,0.0484,5,notharmonic,1.45,word,m,,,,,,,
,,,,,,,,,,,,001,2023-11-09_11h13.28.022,vowel_harmony,2023.2.3,Win32,60.08171113,391.4614,392.4609,,,,,,,,,,,,,,,,,,,,,,,,,,392.461,393.0109,m,1,0.5301,,393.0109,393.0109,,0,182,182,167,1,168,adalet,1611,73.1975,1388,0.1517,6,notharmonic,1.65,word,m,,,,,,,
,,,,,,,,,,,,001,2023-11-09_11h13.28.022,vowel_harmony,2023.2.3,Win32,60.08171113,393.0112,394.0108,,,,,,,,,,,,,,,,,,,,,,,,,,394.0108,394.7608,z,1,0.7393,,394.7608,394.7609,,0,183,183,248,1,249,şegim,,,,,5,harmonic,1.9,nw,z,,,,,,,
,,,,,,,,,,,,001,2023-11-09_11h13.28.022,vowel_harmony,2023.2.3,Win32,60.08171113,394.7611,395.7608,,,,,,,,,,,,,,,,,,,,,,,,,,395.7608,397.0107,m,1,1.2299,,397.0108,397.0108,,0,184,184,38,1,39,dönem,2820,128.1296,2437,0.2664,5,harmonic,1.4,word,m,,,,,,,
,,,,,,,,,,,,001,2023-11-09_11h13.28.022,vowel_harmony,2023.2.3,Win32,60.08171113,397.011,398.0107,,,,,,,,,,,,,,,,,,,,,,,,,,398.0107,399.6441,m,1,1.6194,,399.6441,399.6442,,0,185,185,121,1,122,mesaj,1604,72.8794,1386,0.1515,5,notharmonic,1.8,word,m,,,,,,,
,,,,,,,,,,,,001,2023-11-09_11h13.28.022,vowel_harmony,2023.2.3,Win32,60.08171113,399.6445,400.6439,,,,,,,,,,,,,,,,,,,,,,,,,,400.6439,401.2939,z,1,0.6424,,401.294,401.294,,0,186,186,275,1,276,tahçe,,,,,5,notharmonic,1.95,nw,z,,,,,,,
,,,,,,,,,,,,001,2023-11-09_11h13.28.022,vowel_harmony,2023.2.3,Win32,60.08171113,401.2942,402.294,,,,,,,,,,,,,,,,,,,,,,,,,,402.294,403.1272,z,1,0.8168,,403.1272,403.1272,,0,187,187,238,1,239,kocı,,,,,4,harmonic,1.95,nw,z,,,,,,,
,,,,,,,,,,,,001,2023-11-09_11h13.28.022,vowel_harmony,2023.2.3,Win32,60.08171113,403.1275,404.1272,,,,,,,,,,,,,,,,,,,,,,,,,,404.1272,405.4772,z,1,1.3427,,405.4772,405.4772,,0,188,188,211,1,212,yarum,,,,,5,harmonic,1.75,nw,z,,,,,,,
,,,,,,,,,,,,001,2023-11-09_11h13.28.022,vowel_harmony,2023.2.3,Win32,60.08171113,405.4775,406.4771,,,,,,,,,,,,,,,,,,,,,,,,,,406.4771,407.0104,m,1,0.5126,,407.0104,407.0106,,0,189,189,139,1,140,lira,1253,56.9314,947,0.1035,4,notharmonic,1.4,word,m,,,,,,,
,,,,,,,,,,,,001,2023-11-09_11h13.28.022,vowel_harmony,2023.2.3,Win32,60.08171113,407.0108,408.0104,,,,,,,,,,,,,,,,,,,,,,,,,,408.0105,408.7771,z,1,0.756,,408.7771,408.7772,,0,190,190,217,1,218,sanfız,,,,,6,harmonic,1.85,nw,z,,,,,,,
,,,,,,,,,,,,001,2023-11-09_11h13.28.022,vowel_harmony,2023.2.3,Win32,60.08171113,408.7774,409.7771,,,,,,,,,,,,,,,,,,,,,,,,,,409.7772,410.4437,m,1,0.6467,,410.4438,410.4438,,0,191,191,58,1,59,ayak,2143,97.3694,1931,0.2111,4,harmonic,1,word,m,,,,,,,
,,,,,,,,,,,,001,2023-11-09_11h13.28.022,vowel_harmony,2023.2.3,Win32,60.08171113,410.444,411.4436,,,,,,,,,,,,,,,,,,,,,,,,,,411.4436,412.077,m,1,0.627,,412.077,412.0771,,0,192,192,173,1,174,sade,1193,54.2052,1114,0.1218,4,notharmonic,1.55,word,m,,,,,,,
,,,,,,,,,,,,001,2023-11-09_11h13.28.022,vowel_harmony,2023.2.3,Win32,60.08171113,412.0773,413.0769,,,,,,,,,,,,,,,,,,,,,,,,,,413.077,413.6103,m,1,0.5139,,413.6103,413.6104,,0,193,193,4,1,5,metre,1156,52.5241,1015,0.111,5,harmonic,1.7,word,m,,,,,,,
,,,,,,,,,,,,001,2023-11-09_11h13.28.022,vowel_harmony,2023.2.3,Win32,60.08171113,413.6107,414.6103,,,,,,,,,,,,,,,,,,,,,,,,,,414.6103,415.1935,m,1,0.5721,,415.1936,415.1936,,0,194,194,107,1,108,merak,5806,263.8016,5524,0.6039,5,notharmonic,1.65,word,m,,,,,,,
,,,,,,,,,,,,001,2023-11-09_11h13.28.022,vowel_harmony,2023.2.3,Win32,60.08171113,415.1938,416.1934,,,,,,,,,,,,,,,,,,,,,,,,,,416.1934,416.8268,z,1,0.6209,,416.8268,416.8269,,0,195,195,205,1,206,kahay,,,,,5,harmonic,1.9,nw,z,,,,,,,
,,,,,,,,,,,,001,2023-11-09_11h13.28.022,vowel_harmony,2023.2.3,Win32,60.08171113,416.8271,417.8267,,,,,,,,,,,,,,,,,,,,,,,,,,417.8267,418.6268,z,1,0.7889,,418.6268,418.6268,,0,196,196,292,1,293,kinam,,,,,5,notharmonic,1.85,nw,z,,,,,,,
,,,,,,,,,,,,001,2023-11-09_11h13.28.022,vowel_harmony,2023.2.3,Win32,60.08171113,418.6271,419.6268,,,,,,,,,,,,,,,,,,,,,,,,,,419.6268,420.31,m,1,0.6758,,420.31,420.3101,,0,197,197,130,1,131,hamile,1075,48.8437,877,0.0959,6,notharmonic,1.5,word,m,,,,,,,
,,,,,,,,,,,,001,2023-11-09_11h13.28.022,vowel_harmony,2023.2.3,Win32,60.08171113,420.3104,421.31,,,,,,,,,,,,,,,,,,,,,,,,,,421.31,422.16,m,1,0.8333,,422.16,422.16,,0,198,198,25,1,26,rapor,703,31.9415,617,0.0675,5,harmonic,1.8,word,m,,,,,,,
,,,,,,,,,,,,001,2023-11-09_11h13.28.022,vowel_harmony,2023.2.3,Win32,60.08171113,422.1603,423.1601,,,,,,,,,,,,,,,,,,,,,,,,,,423.1601,423.81,z,1,0.6382,,423.81,423.81,,0,199,199,286,1,287,cedan,,,,,5,notharmonic,1.8,nw,z,,,,,,,
,,,,,,,,,,,,001,2023-11-09_11h13.28.022,vowel_harmony,2023.2.3,Win32,60.08171113,423.8102,424.8098,,,,,,,,,,,,,,,,,,,,,,,,,,424.8099,425.7098,m,1,0.8848,,425.7098,425.7099,,0,200,200,103,1,104,tane,5623,255.4868,5075,0.5548,4,notharmonic,1.3,word,m,,,,,,,
,,,,,,,,,,,,001,2023-11-09_11h13.28.022,vowel_harmony,2023.2.3,Win32,60.08171113,425.7101,426.71,,,,,,,,,,,,,,,,,,,,,,,,,,426.7101,427.5264,z,1,0.7993,,427.5264,427.5265,,0,201,201,354,1,355,taden,,,,,5,notharmonic,1.7,nw,z,,,,,,,
,,,,,,,,,,,,001,2023-11-09_11h13.28.022,vowel_harmony,2023.2.3,Win32,60.08171113,427.5267,428.5264,,,,,,,,,,,,,,,,,,,,,,,,,,428.5264,429.3931,m,1,0.8481,,429.3931,429.3931,,0,202,202,97,1,98,mevcut,3007,136.6262,2842,0.3107,6,notharmonic,1.95,word,m,,,,,,,
,,,,,,,,,,,,001,2023-11-09_11h13.28.022,vowel_harmony,2023.2.3,Win32,60.08171113,429.3934,430.393,,,,,,,,,,,,,,,,,,,,,,,,,,430.393,431.1597,z,1,0.749,,431.1597,431.1598,,0,203,203,220,1,221,denbi,,,,,5,harmonic,1.75,nw,z,,,,,,,
,,,,,,,,,,,,001,2023-11-09_11h13.28.022,vowel_harmony,2023.2.3,Win32,60.08171113,431.16,432.1597,,,,,,,,,,,,,,,,,,,,,,,,,,432.1597,432.7264,m,1,0.5601,,432.7264,432.7264,,0,204,204,127,1,128,şahane,1153,52.3877,1108,0.1211,6,notharmonic,1.8,word,m,,,,,,,
,,,,,,,,,,,,001,2023-11-09_11h13.28.022,vowel_harmony,2023.2.3,Win32,60.08171113,432.7267,433.7262,,,,,,,,,,,,,,,,,,,,,,,,,,433.7262,434.8595,m,1,1.129,,434.8596,434.8596,,0,205,205,66,1,67,sanık,768,34.8949,699,0.0764,5,harmonic,1.85,word,m,,,,,,,
,,,,,,,,,,,,001,2023-11-09_11h13.28.022,vowel_harmony,2023.2.3,Win32,60.08171113,434.8599,435.8596,,,,,,,,,,,,,,,,,,,,,,,,,,435.8596,436.7428,z,1,0.8739,,436.7428,436.7429,,0,206,206,335,1,336,lilo,,,,,4,notharmonic,1.8,nw,z,,,,,,,
,,,,,,,,,,,,001,2023-11-09_11h13.28.022,vowel_harmony,2023.2.3,Win32,60.08171113,436.743,437.743,,,,,,,,,,,,,,,,,,,,,,,,,,437.7431,438.1427,m,1,0.3894,,438.1428,438.1428,,0,207,207,171,1,172,reklam,1565,71.1074,1244,0.136,6,notharmonic,1.9,word,m,,,,,,,
,,,,,,,,,,,,001,2023-11-09_11h13.28.022,vowel_harmony,2023.2.3,Win32,60.08171113,438.1431,439.1427,,,,,,,,,,,,,,,,,,,,,,,,,,439.1427,439.7761,z,1,0.6159,,439.7762,439.7762,,0,208,208,295,1,296,haylin,,,,,6,notharmonic,1.8,nw,z,,,,,,,
,,,,,,,,,,,,001,2023-11-09_11h13.28.022,vowel_harmony,2023.2.3,Win32,60.08171113,439.7765,440.776,,,,,,,,,,,,,,,,,,,,,,,,,,440.776,441.5427,z,1,0.7598,,441.5427,441.5427,,0,209,209,232,1,233,kanur,,,,,5,harmonic,1.7,nw,z,,,,,,,
,,,,,,,,,,,,001,2023-11-09_11h13.28.022,vowel_harmony,2023.2.3,Win32,60.08171113,441.543,442.5427,,,,,,,,,,,,,,,,,,,,,,,,,,442.5427,443.2594,z,1,0.6959,,443.2594,443.2594,,0,210,210,256,1,257,yaruza,,,,,6,harmonic,1.9,nw,z,,,,,,,
,,,,,,,,,,,,001,2023-11-09_11h13.28.022,vowel_harmony,2023.2.3,Win32,60.08171113,443.2597,444.2593,,,,,,,,,,,,,,,,,,,,,,,,,,444.2593,445.0425,m,1,0.7719,,445.0425,445.0426,,0,211,211,78,1,79,ulusal,1551,70.4713,1355,0.1481,6,harmonic,1.75,word,m,,,,,,,
,,,,,,,,,,,,001,2023-11-09_11h13.28.022,vowel_harmony,2023.2.3,Win32,60.08171113,445.0428,446.0424,,,,,,,,,,,,,,,,,,,,,,,,,,446.0425,446.9925,z,1,0.9401,,446.9926,446.9926,,0,212,212,260,1,261,yarlam,,,,,6,harmonic,1.75,nw,z,,,,,,,
,,,,,,,,,,,,001,2023-11-09_11h13.28.022,vowel_harmony,2023.2.3,Win32,60.08171113,446.9928,447.9925,,,,,,,,,,,,,,,,,,,,,,,,,,447.9925,448.5759,m,1,0.5658,,448.576,448.5761,,0,213,213,81,1,82,üretim,1593,72.3796,1283,0.1403,6,harmonic,1.6,word,m,,,,,,,
,,,,,,,,,,,,001,2023-11-09_11h13.28.022,vowel_harmony,2023.2.3,Win32,60.08171113,448.5763,449.5759,,,,,,,,,,,,,,,,,,,,,,,,,,449.5759,450.4258,z,1,0.8303,,450.4258,450.4258,,0,214,214,336,1,337,diyam,,,,,5,notharmonic,1.85,nw,z,,,,,,,
,,,,,,,,,,,,001,2023-11-09_11h13.28.022,vowel_harmony,2023.2.3,Win32,60.08171113,450.4261,451.4258,,,,,,,,,,,,,,,,,,,,,,,,,,451.4258,452.5257,z,1,1.0849,,452.5257,452.5258,,0,215,215,189,1,190,düvre,,,,,5,harmonic,1.85,nw,z,,,,,,,
,,,,,,,,,,,,001,2023-11-09_11h13.28.022,vowel_harmony,2023.2.3,Win32,60.08171113,452.526,453.5257,,,,,,,,,,,,,,,,,,,,,,,,,,453.5257,454.4757,z,1,0.9363,,454.4757,454.4757,,0,216,216,316,1,317,misaf,,,,,5,notharmonic,1.85,nw,z,,,,,,,
,,,,,,,,,,,,001,2023-11-09_11h13.28.022,vowel_harmony,2023.2.3,Win32,60.08171113,454.4759,455.4756,,,,,,,,,,,,,,,,,,,,,,,,,,455.4756,456.2091,z,1,0.7153,,456.2092,456.2092,,0,217,217,277,1,278,balsin,,,,,6,notharmonic,1.85,nw,z,,,,,,,
,,,,,,,,,,,,001,2023-11-09_11h13.28.022,vowel_harmony,2023.2.3,Win32,60.08171113,456.2094,457.209,,,,,,,,,,,,,,,,,,,,,,,,,,457.209,457.9422,z,1,0.7248,,457.9422,457.9423,,0,218,218,331,1,332,ehun,,,,,4,notharmonic,1.95,nw,z,,,,,,,
,,,,,,,,,,,,001,2023-11-09_11h13.28.022,vowel_harmony,2023.2.3,Win32,60.08171113,457.9425,458.9422,,,,,,,,,,,,,,,,,,,,,,,,,,458.9422,459.7254,z,1,0.7681,,459.7255,459.7255,,0,219,219,289,1,290,karmen,,,,,6,notharmonic,1.75,nw,z,,,,,,,
,,,,,,,,,,,,001,2023-11-09_11h13.28.022,vowel_harmony,2023.2.3,Win32,60.08171113,459.7257,460.7254,,,,,,,,,,,,,,,,,,,,,,,,,,460.7254,461.2754,m,1,0.5363,,461.2754,461.2755,,0,220,220,156,1,157,medya,1784,81.0579,1495,0.1634,5,notharmonic,1.35,word,m,,,,,,,
,,,,,,,,,,,,001,2023-11-09_11h13.28.022,vowel_harmony,2023.2.3,Win32,60.08171113,461.2757,462.2754,,,,,,,,,,,,,,,,,,,,,,,,,,462.2754,462.7921,m,1,0.5067,,462.7921,462.7921,,0,221,221,137,1,138,parti,2613,118.7244,2059,0.2251,5,notharmonic,1.8,word,m,,,,,,,
,,,,,,,,,,,,001,2023-11-09_11h13.28.022,vowel_harmony,2023.2.3,Win32,60.08171113,462.7923,463.792,,,,,,,,,,,,,,,,,,,,,,,,,,463.7921,464.6586,z,1,0.8534,,464.6586,464.6587,,0,222,222,203,1,204,döves,,,,,5,harmonic,1.8,nw,z,,,,,,,
,,,,,,,,,,,,001,2023-11-09_11h13.28.022,vowel_harmony,2023.2.3,Win32,60.08171113,464.6589,465.6586,,,,,,,,,,,,,,,,,,,,,,,,,,465.6586,466.8086,z,1,1.1318,,466.8086,466.8088,,0,223,223,313,1,314,ikas,,,,,4,notharmonic,1.85,nw,z,,,,,,,
,,,,,,,,,,,,001,2023-11-09_11h13.28.022,vowel_harmony,2023.2.3,Win32,60.08171113,466.809,467.8086,,,,,,,,,,,,,,,,,,,,,,,,,,467.8086,468.4418,m,1,0.6209,,468.4418,468.4418,,0,224,224,75,1,76,roman,1499,68.1086,1281,0.14,5,harmonic,1.6,word,m,,,,,,,
,,,,,,,,,,,,001,2023-11-09_11h13.28.022,vowel_harmony,2023.2.3,Win32,60.08171113,468.442,469.4418,,,,,,,,,,,,,,,,,,,,,,,,,,469.4418,470.8419,z,1,1.3807,,470.8419,470.842,,0,225,225,358,1,359,yangin,,,,,6,notharmonic,1.9,nw,z,,,,,,,
,,,,,,,,,,,,001,2023-11-09_11h13.28.022,vowel_harmony,2023.2.3,Win32,60.08171113,470.8422,471.8417,,,,,,,,,,,,,,,,,,,,,,,,,,471.8417,472.5417,z,1,0.6846,,472.5418,472.5418,,0,226,226,180,1,181,ayaro,,,,,5,harmonic,1.8,nw,z,,,,,,,
,,,,,,,,,,,,001,2023-11-09_11h13.28.022,vowel_harmony,2023.2.3,Win32,60.08171113,472.5421,473.5417,,,,,,,,,,,,,,,,,,,,,,,,,,473.5417,474.2916,z,1,0.7301,,474.2916,474.2917,,0,227,227,334,1,335,işgan,,,,,5,notharmonic,1.95,nw,z,,,,,,,
,,,,,,,,,,,,001,2023-11-09_11h13.28.022,vowel_harmony,2023.2.3,Win32,60.08171113,474.2919,475.2919,,,,,,,,,,,,,,,,,,,,,,,,,,475.2919,475.8917,z,1,0.5745,,475.8917,475.8917,,0,228,228,314,1,315,seral,,,,,5,notharmonic,1.7,nw,z,,,,,,,
,,,,,,,,,,,,001,2023-11-09_11h13.28.022,vowel_harmony,2023.2.3,Win32,60.08171113,475.8919,476.8916,,,,,,,,,,,,,,,,,,,,,,,,,,476.8916,477.625,m,1,0.7151,,477.625,477.6251,,0,229,229,51,1,52,ilginç,2803,127.3572,2690,0.2941,6,harmonic,1.8,word,m,,,,,,,
,,,,,,,,,,,,001,2023-11-09_11h13.28.022,vowel_harmony,2023.2.3,Win32,60.08171113,477.6253,478.6249,,,,,,,,,,,,,,,,,,,,,,,,,,478.6249,479.1081,m,1,0.4775,,479.1082,479.1082,,0,230,230,108,1,109,tarih,2806,127.4935,2483,0.2714,5,notharmonic,1.55,word,m,,,,,,,
,,,,,,,,,,,,001,2023-11-09_11h13.28.022,vowel_harmony,2023.2.3,Win32,60.08171113,479.1084,480.1082,,,,,,,,,,,,,,,,,,,,,,,,,,480.1082,481.0748,z,1,0.9558,,481.0749,481.0749,,0,231,231,288,1,289,molit,,,,,5,notharmonic,1.95,nw,z,,,,,,,
,,,,,,,,,,,,001,2023-11-09_11h13.28.022,vowel_harmony,2023.2.3,Win32,60.08171113,481.0752,482.0748,,,,,,,,,,,,,,,,,,,,,,,,,,482.0748,482.7581,m,1,0.6744,,482.7582,482.7582,,0,232,232,133,1,134,taze,2268,103.0489,2062,0.2254,4,notharmonic,1.65,word,m,,,,,,,
,,,,,,,,,,,,001,2023-11-09_11h13.28.022,vowel_harmony,2023.2.3,Win32,60.08171113,482.7584,483.758,,,,,,,,,,,,,,,,,,,,,,,,,,483.758,485.1247,z,1,1.3615,,485.1247,485.1247,,0,233,233,207,1,208,örtre,,,,,5,harmonic,1.85,nw,z,,,,,,,
,,,,,,,,,,,,001,2023-11-09_11h13.28.022,vowel_harmony,2023.2.3,Win32,60.08171113,485.1251,486.1247,,,,,,,,,,,,,,,,,,,,,,,,,,486.1247,486.808,z,1,0.6648,,486.808,486.8081,,0,234,234,223,1,224,kakon,,,,,5,harmonic,1.85,nw,z,,,,,,,
,,,,,,,,,,,,001,2023-11-09_11h13.28.022,vowel_harmony,2023.2.3,Win32,60.08171113,486.8083,487.8079,,,,,,,,,,,,,,,,,,,,,,,,,,487.8079,488.5746,m,1,0.7511,,488.5747,488.5747,,0,235,235,85,1,86,geçmiş,4195,190.6042,4039,0.4415,6,harmonic,1.55,word,m,,,,,,,
,,,,,,,,,,,,001,2023-11-09_11h13.28.022,vowel_harmony,2023.2.3,Win32,60.08171113,488.5749,489.5747,,,,,,,,,,,,,,,,,,,,,,,,,,489.5747,490.8578,m,1,1.2708,,490.8578,490.8578,,0,236,236,144,1,145,garip,2567,116.6343,2355,0.2574,5,notharmonic,1.65,word,m,,,,,,,
,,,,,,,,,,,,001,2023-11-09_11h13.28.022,vowel_harmony,2023.2.3,Win32,60.08171113,490.8581,491.8579,,,,,,,,,,,,,,,,,,,,,,,,,,491.8579,492.3412,m,1,0.477,,492.3412,492.3413,,0,237,237,135,1,136,hafif,3355,152.4379,3101,0.339,5,notharmonic,1.75,word,m,,,,,,,
,,,,,,,,,,,,001,2023-11-09_11h13.28.022,vowel_harmony,2023.2.3,Win32,60.08171113,492.3415,493.3411,,,,,,,,,,,,,,,,,,,,,,,,,,493.3411,494.0412,m,1,0.6811,,494.0412,494.0412,,0,238,238,19,1,20,ödül,1063,48.2985,926,0.1012,4,harmonic,1.7,word,m,,,,,,,
,,,,,,,,,,,,001,2023-11-09_11h13.28.022,vowel_harmony,2023.2.3,Win32,60.08171113,494.0415,495.0409,,,,,,,,,,,,,,,,,,,,,,,,,,495.0409,496.5409,z,1,1.4855,,496.5409,496.541,,0,239,239,300,1,301,nilgi,,,,,5,notharmonic,1.85,nw,z,,,,,,,
,,,,,,,,,,,,001,2023-11-09_11h13.28.022,vowel_harmony,2023.2.3,Win32,60.08171113,496.5463,497.5409,,,,,,,,,,,,,,,,,,,,,,,,,,497.5409,498.1908,m,1,0.6328,,498.1909,500.6576,space,0,240,240,112,1,113,sezon,2315,105.1844,1917,0.2096,5,notharmonic,1.8,word,m,2.4502,,,,,,
,,,,,,,,,,,,001,2023-11-09_11h13.28.022,vowel_harmony,2023.2.3,Win32,60.08171113,500.663,501.6574,,,,,,,,,,,,,,,,,,,,,,,,,,501.6574,502.5242,z,1,0.8597,,502.5242,502.5244,,0,241,241,312,1,313,şahmin,,,,,6,notharmonic,1.8,nw,z,,,,,,,
,,,,,,,,,,,,001,2023-11-09_11h13.28.022,vowel_harmony,2023.2.3,Win32,60.08171113,502.5247,503.524,,,,,,,,,,,,,,,,,,,,,,,,,,503.5241,504.5074,z,1,0.9702,,504.5074,504.5075,,0,242,242,267,1,268,nokuma,,,,,6,harmonic,1.75,nw,z,,,,,,,
,,,,,,,,,,,,001,2023-11-09_11h13.28.022,vowel_harmony,2023.2.3,Win32,60.08171113,504.5077,505.5075,,,,,,,,,,,,,,,,,,,,,,,,,,505.5075,506.2073,m,1,0.6792,,506.2073,506.2074,,0,243,243,87,1,88,mümkün,6604,300.0596,6264,0.6848,6,harmonic,1.9,word,m,,,,,,,
,,,,,,,,,,,,001,2023-11-09_11h13.28.022,vowel_harmony,2023.2.3,Win32,60.08171113,506.2076,507.2073,,,,,,,,,,,,,,,,,,,,,,,,,,507.2074,507.7906,m,1,0.575,,507.7906,507.7907,,0,244,244,91,1,92,ifade,6177,280.6584,5726,0.626,5,notharmonic,1.7,word,m,,,,,,,
,,,,,,,,,,,,001,2023-11-09_11h13.28.022,vowel_harmony,2023.2.3,Win32,60.08171113,507.7909,508.7907,,,,,,,,,,,,,,,,,,,,,,,,,,508.7907,509.3072,m,1,0.504,,509.3073,509.3074,,0,245,245,142,1,143,siyasi,2909,132.1734,2445,0.2673,6,notharmonic,1.8,word,m,,,,,,,
,,,,,,,,,,,,001,2023-11-09_11h13.28.022,vowel_harmony,2023.2.3,Win32,60.08171113,509.3076,510.3072,,,,,,,,,,,,,,,,,,,,,,,,,,510.3072,511.1239,z,1,0.811,,511.124,511.124,,0,246,246,347,1,348,tekram,,,,,6,notharmonic,1.95,nw,z,,,,,,,
,,,,,,,,,,,,001,2023-11-09_11h13.28.022,vowel_harmony,2023.2.3,Win32,60.08171113,511.1242,512.1237,,,,,,,,,,,,,,,,,,,,,,,,,,512.1238,512.7071,m,1,0.5634,,512.7072,512.7072,,0,247,247,73,1,74,millet,1658,75.3329,1508,0.1649,6,harmonic,1.7,word,m,,,,,,,
,,,,,,,,,,,,001,2023-11-09_11h13.28.022,vowel_harmony,2023.2.3,Win32,60.08171113,512.7074,513.707,,,,,,,,,,,,,,,,,,,,,,,,,,513.7071,514.5237,z,1,0.8118,,514.5237,514.5238,,0,248,248,253,1,254,meslet,,,,,6,harmonic,1.85,nw,z,,,,,,,
,,,,,,,,,,,,001,2023-11-09_11h13.28.022,vowel_harmony,2023.2.3,Win32,60.08171113,514.5241,515.5237,,,,,,,,,,,,,,,,,,,,,,,,,,515.5237,516.0571,m,0,0.5221,,516.0571,516.0572,,0,249,249,346,1,347,kidan,,,,,5,notharmonic,1.8,nw,z,,,,,,,
,,,,,,,,,,,,001,2023-11-09_11h13.28.022,vowel_harmony,2023.2.3,Win32,60.08171113,516.0574,517.057,,,,,,,,,,,,,,,,,,,,,,,,,,517.057,517.7237,z,1,0.6622,,517.7237,517.7238,,0,250,250,188,1,189,tonık,,,,,5,harmonic,1.85,nw,z,,,,,,,
,,,,,,,,,,,,001,2023-11-09_11h13.28.022,vowel_harmony,2023.2.3,Win32,60.08171113,517.724,518.7237,,,,,,,,,,,,,,,,,,,,,,,,,,518.7237,519.3235,m,1,0.5862,,519.3236,519.3237,,0,251,251,106,1,107,esnaf,315,14.3124,284,0.031,5,notharmonic,1.55,word,m,,,,,,,
,,,,,,,,,,,,001,2023-11-09_11h13.28.022,vowel_harmony,2023.2.3,Win32,60.08171113,519.3239,520.3235,,,,,,,,,,,,,,,,,,,,,,,,,,520.3236,521.1236,z,1,0.788,,521.1236,521.1237,,0,252,252,202,1,203,güvin,,,,,5,harmonic,1.95,nw,z,,,,,,,
,,,,,,,,,,,,001,2023-11-09_11h13.28.022,vowel_harmony,2023.2.3,Win32,60.08171113,521.1239,522.1235,,,,,,,,,,,,,,,,,,,,,,,,,,522.1235,522.8402,z,1,0.7054,,522.8402,522.8403,,0,253,253,228,1,229,haytam,,,,,6,harmonic,1.75,nw,z,,,,,,,
,,,,,,,,,,,,001,2023-11-09_11h13.28.022,vowel_harmony,2023.2.3,Win32,60.08171113,522.8405,523.8401,,,,,,,,,,,,,,,,,,,,,,,,,,523.8401,524.3901,z,1,0.5432,,524.3902,524.3902,,0,254,254,226,1,227,tefem,,,,,5,harmonic,1.75,nw,z,,,,,,,
,,,,,,,,,,,,001,2023-11-09_11h13.28.022,vowel_harmony,2023.2.3,Win32,60.08171113,524.3904,525.39,,,,,,,,,,,,,,,,,,,,,,,,,,525.39,525.9734,m,1,0.5689,,525.9735,525.9735,,0,255,255,146,1,147,mavi,2206,100.2319,1934,0.2114,4,notharmonic,1.45,word,m,,,,,,,
,,,,,,,,,,,,001,2023-11-09_11h13.28.022,vowel_harmony,2023.2.3,Win32,60.08171113,525.9737,526.9733,,,,,,,,,,,,,,,,,,,,,,,,,,526.9733,527.69,z,1,0.6978,,527.69,527.6901,,0,256,256,245,1,246,bıyan,,,,,5,harmonic,1.7,nw,z,,,,,,,
,,,,,,,,,,,,001,2023-11-09_11h13.28.022,vowel_harmony,2023.2.3,Win32,60.08171113,527.6904,528.69,,,,,,,,,,,,,,,,,,,,,,,,,,528.69,529.3734,m,1,0.676,,529.3734,529.3735,,0,257,257,50,1,51,kanun,1198,54.4324,1010,0.1104,5,harmonic,1.6,word,m,,,,,,,
,,,,,,,,,,,,001,2023-11-09_11h13.28.022,vowel_harmony,2023.2.3,Win32,60.08171113,529.3737,530.3733,,,,,,,,,,,,,,,,,,,,,,,,,,530.3733,531.0899,z,1,0.7058,,531.0899,531.09,,0,258,258,327,1,328,parkeş,,,,,6,notharmonic,1.9,nw,z,,,,,,,
,,,,,,,,,,,,001,2023-11-09_11h13.28.022,vowel_harmony,2023.2.3,Win32,60.08171113,531.0901,532.09,,,,,,,,,,,,,,,,,,,,,,,,,,532.09,533.74,z,1,1.6287,,533.74,533.74,,0,259,259,349,1,350,harten,,,,,6,notharmonic,1.85,nw,z,,,,,,,
,,,,,,,,,,,,001,2023-11-09_11h13.28.022,vowel_harmony,2023.2.3,Win32,60.08171113,533.7402,534.7399,,,,,,,,,,,,,,,,,,,,,,,,,,534.7399,535.2732,m,1,0.5225,,535.2733,535.2734,,0,260,260,93,1,94,siyah,2944,133.7637,2527,0.2763,5,notharmonic,1.6,word,m,,,,,,,
,,,,,,,,,,,,001,2023-11-09_11h13.28.022,vowel_harmony,2023.2.3,Win32,60.08171113,535.2737,536.2732,,,,,,,,,,,,,,,,,,,,,,,,,,536.2732,537.0064,z,1,0.7248,,537.0064,537.0064,,0,261,261,284,1,285,deval,,,,,5,notharmonic,1.75,nw,z,,,,,,,
,,,,,,,,,,,,001,2023-11-09_11h13.28.022,vowel_harmony,2023.2.3,Win32,60.08171113,537.0067,538.0063,,,,,,,,,,,,,,,,,,,,,,,,,,538.0063,538.8064,m,1,0.7915,,538.8065,538.8066,,0,262,262,134,1,135,iptal,793,36.0308,725,0.0793,5,notharmonic,1.35,word,m,,,,,,,
,,,,,,,,,,,,001,2023-11-09_11h13.28.022,vowel_harmony,2023.2.3,Win32,60.08171113,538.8069,539.8063,,,,,,,,,,,,,,,,,,,,,,,,,,539.8063,540.4896,m,1,0.664,,540.4896,540.4898,,0,263,263,64,1,65,lise,888,40.3472,816,0.0892,4,harmonic,1.5,word,m,,,,,,,
,,,,,,,,,,,,001,2023-11-09_11h13.28.022,vowel_harmony,2023.2.3,Win32,60.08171113,540.49,541.4897,,,,,,,,,,,,,,,,,,,,,,,,,,541.4897,542.2064,z,1,0.7002,,542.2064,542.2064,,0,264,264,269,1,270,vekü,,,,,4,harmonic,2,nw,z,,,,,,,
,,,,,,,,,,,,001,2023-11-09_11h13.28.022,vowel_harmony,2023.2.3,Win32,60.08171113,542.2067,543.2062,,,,,,,,,,,,,,,,,,,,,,,,,,543.2062,543.9228,m,1,0.6974,,543.9228,543.9229,,0,265,265,47,1,48,kaza,740,33.6227,679,0.0742,4,harmonic,1.85,word,m,,,,,,,
,,,,,,,,,,,,001,2023-11-09_11h13.28.022,vowel_harmony,2023.2.3,Win32,60.08171113,543.9231,544.9229,,,,,,,,,,,,,,,,,,,,,,,,,,544.9229,545.5561,m,1,0.6277,,545.5561,545.5562,,0,266,266,13,1,14,nokta,2085,94.7341,1939,0.212,5,harmonic,1.5,word,m,,,,,,,
,,,,,,,,,,,,001,2023-11-09_11h13.28.022,vowel_harmony,2023.2.3,Win32,60.08171113,545.5565,546.5561,,,,,,,,,,,,,,,,,,,,,,,,,,546.5561,547.2226,z,1,0.6586,,547.2226,547.2227,,0,267,267,194,1,195,rayna,,,,,5,harmonic,1.7,nw,z,,,,,,,
,,,,,,,,,,,,001,2023-11-09_11h13.28.022,vowel_harmony,2023.2.3,Win32,60.08171113,547.223,548.2228,,,,,,,,,,,,,,,,,,,,,,,,,,548.2228,548.9393,m,1,0.7039,,548.9393,548.9394,,0,268,268,159,1,160,vakit,3476,157.9357,3298,0.3605,5,notharmonic,1.65,word,m,,,,,,,
,,,,,,,,,,,,001,2023-11-09_11h13.28.022,vowel_harmony,2023.2.3,Win32,60.08171113,548.9396,549.9394,,,,,,,,,,,,,,,,,,,,,,,,,,549.9394,550.6726,z,1,0.7244,,550.6726,550.6727,,0,269,269,280,1,281,adalek,,,,,6,notharmonic,1.85,nw,z,,,,,,,
,,,,,,,,,,,,001,2023-11-09_11h13.28.022,vowel_harmony,2023.2.3,Win32,60.08171113,550.6729,551.6727,,,,,,,,,,,,,,,,,,,,,,,,,,551.6727,552.4225,z,1,0.7339,,552.4226,552.4226,,0,270,270,350,1,351,resun,,,,,5,notharmonic,1.85,nw,z,,,,,,,
,,,,,,,,,,,,001,2023-11-09_11h13.28.022,vowel_harmony,2023.2.3,Win32,60.08171113,552.4229,553.4225,,,,,,,,,,,,,,,,,,,,,,,,,,553.4225,554.2892,z,1,0.8556,,554.2892,554.2893,,0,271,271,225,1,226,düvem,,,,,5,harmonic,1.7,nw,z,,,,,,,
,,,,,,,,,,,,001,2023-11-09_11h13.28.022,vowel_harmony,2023.2.3,Win32,60.08171113,554.2895,555.2891,,,,,,,,,,,,,,,,,,,,,,,,,,555.2891,556.2892,m,1,0.981,,556.2892,556.2893,,0,272,272,61,1,62,yıldız,1775,80.649,1532,0.1675,6,harmonic,1.6,word,m,,,,,,,
,,,,,,,,,,,,001,2023-11-09_11h13.28.022,vowel_harmony,2023.2.3,Win32,60.08171113,556.2894,557.2891,,,,,,,,,,,,,,,,,,,,,,,,,,557.2891,557.7724,m,1,0.4702,,557.7724,557.7725,,0,273,273,32,1,33,temel,4231,192.2399,3851,0.421,5,harmonic,1.55,word,m,,,,,,,
,,,,,,,,,,,,001,2023-11-09_11h13.28.022,vowel_harmony,2023.2.3,Win32,60.08171113,557.7727,558.7724,,,,,,,,,,,,,,,,,,,,,,,,,,558.7724,559.3557,m,1,0.5619,,559.3557,559.3558,,0,274,274,62,1,63,cümle,1911,86.8283,1765,0.193,5,harmonic,1.85,word,m,,,,,,,
,,,,,,,,,,,,001,2023-11-09_11h13.28.022,vowel_harmony,2023.2.3,Win32,60.08171113,559.3559,560.3559,,,,,,,,,,,,,,,,,,,,,,,,,,560.3559,560.9222,m,1,0.5553,,560.9223,560.9223,,0,275,275,123,1,124,haber,4559,207.1429,4151,0.4538,5,notharmonic,1.85,word,m,,,,,,,
,,,,,,,,,,,,001,2023-11-09_11h13.28.022,vowel_harmony,2023.2.3,Win32,60.08171113,560.9226,561.9223,,,,,,,,,,,,,,,,,,,,,,,,,,561.9223,562.8223,z,1,0.8912,,562.8223,562.8223,,0,276,276,257,1,258,zerü,,,,,4,harmonic,1.8,nw,z,,,,,,,
,,,,,,,,,,,,001,2023-11-09_11h13.28.022,vowel_harmony,2023.2.3,Win32,60.08171113,562.8226,563.8221,,,,,,,,,,,,,,,,,,,,,,,,,,563.8221,564.5222,z,1,0.6891,,564.5223,564.5224,,0,277,277,315,1,316,takep,,,,,5,notharmonic,1.85,nw,z,,,,,,,
,,,,,,,,,,,,001,2023-11-09_11h13.28.022,vowel_harmony,2023.2.3,Win32,60.08171113,564.5227,565.5221,,,,,,,,,,,,,,,,,,,,,,,,,,565.5222,566.1055,m,1,0.5714,,566.1056,566.1057,,0,278,278,129,1,130,tahmin,2353,106.911,2273,0.2485,6,notharmonic,1.6,word,m,,,,,,,
,,,,,,,,,,,,001,2023-11-09_11h13.28.022,vowel_harmony,2023.2.3,Win32,60.08171113,566.1059,567.1054,,,,,,,,,,,,,,,,,,,,,,,,,,567.1054,567.6055,z,0,0.494,,567.6055,567.6055,,0,279,279,77,1,78,ufak,3252,147.758,2980,0.3258,4,harmonic,1.5,word,m,,,,,,,
,,,,,,,,,,,,001,2023-11-09_11h13.28.022,vowel_harmony,2023.2.3,Win32,60.08171113,567.6057,568.6055,,,,,,,,,,,,,,,,,,,,,,,,,,568.6055,569.4053,z,1,0.785,,569.4054,569.4054,,0,280,280,200,1,201,duşın,,,,,5,harmonic,1.9,nw,z,,,,,,,
,,,,,,,,,,,,001,2023-11-09_11h13.28.022,vowel_harmony,2023.2.3,Win32,60.08171113,569.4057,570.4054,,,,,,,,,,,,,,,,,,,,,,,,,,570.4055,571.0719,m,1,0.6484,,571.0719,571.072,,0,281,281,157,1,158,aktif,1062,48.2531,986,0.1078,5,notharmonic,1.9,word,m,,,,,,,
,,,,,,,,,,,,001,2023-11-09_11h13.28.022,vowel_harmony,2023.2.3,Win32,60.08171113,571.0721,572.0719,,,,,,,,,,,,,,,,,,,,,,,,,,572.0719,572.6386,m,1,0.5499,,572.6387,572.6387,,0,282,282,12,1,13,konu,5400,245.3546,5110,0.5586,4,harmonic,1,word,m,,,,,,,
,,,,,,,,,,,,001,2023-11-09_11h13.28.022,vowel_harmony,2023.2.3,Win32,60.08171113,572.6389,573.6385,,,,,,,,,,,,,,,,,,,,,,,,,,573.6385,574.155,m,1,0.5115,,574.1551,574.1551,,0,283,283,54,1,55,yedek,825,37.4847,732,0.08,5,harmonic,1.65,word,m,,,,,,,
,,,,,,,,,,,,001,2023-11-09_11h13.28.022,vowel_harmony,2023.2.3,Win32,60.08171113,574.1554,575.1551,,,,,,,,,,,,,,,,,,,,,,,,,,575.1552,575.7386,m,1,0.564,,575.7386,575.7387,,0,284,284,45,1,46,bilgi,5981,271.7529,5353,0.5852,5,harmonic,1.5,word,m,,,,,,,
,,,,,,,,,,,,001,2023-11-09_11h13.28.022,vowel_harmony,2023.2.3,Win32,60.08171113,575.739,576.7386,,,,,,,,,,,,,,,,,,,,,,,,,,576.7386,577.4552,z,1,0.6995,,577.4552,577.4553,,0,285,285,258,1,259,karıha,,,,,6,harmonic,1.75,nw,z,,,,,,,
,,,,,,,,,,,,001,2023-11-09_11h13.28.022,vowel_harmony,2023.2.3,Win32,60.08171113,577.4556,578.455,,,,,,,,,,,,,,,,,,,,,,,,,,578.455,579.2218,z,1,0.7588,,579.2218,579.2218,,0,286,286,181,1,182,rapkı,,,,,5,harmonic,1.85,nw,z,,,,,,,
,,,,,,,,,,,,001,2023-11-09_11h13.28.022,vowel_harmony,2023.2.3,Win32,60.08171113,579.222,580.2217,,,,,,,,,,,,,,,,,,,,,,,,,,580.2217,580.8383,m,1,0.609,,580.8384,580.8384,,0,287,287,153,1,154,inşaat,432,19.6284,376,0.0411,6,notharmonic,1.6,word,m,,,,,,,
,,,,,,,,,,,,001,2023-11-09_11h13.28.022,vowel_harmony,2023.2.3,Win32,60.08171113,580.8386,581.8383,,,,,,,,,,,,,,,,,,,,,,,,,,581.8383,582.4217,m,0,0.5673,,582.4218,582.4219,,0,288,288,319,1,320,biho,,,,,4,notharmonic,2,nw,z,,,,,,,
,,,,,,,,,,,,001,2023-11-09_11h13.28.022,vowel_harmony,2023.2.3,Win32,60.08171113,582.4221,583.4217,,,,,,,,,,,,,,,,,,,,,,,,,,583.4217,583.9548,m,1,0.513,,583.955,583.955,,0,289,289,89,1,90,etki,1234,56.0681,1169,0.1278,4,harmonic,1.4,word,m,,,,,,,
,,,,,,,,,,,,001,2023-11-09_11h13.28.022,vowel_harmony,2023.2.3,Win32,60.08171113,583.9552,584.9548,,,,,,,,,,,,,,,,,,,,,,,,,,584.9548,585.4383,m,1,0.4665,,585.4383,585.4384,,0,290,290,92,1,93,sahne,1380,62.7017,1238,0.1353,5,notharmonic,1.65,word,m,,,,,,,
,,,,,,,,,,,,001,2023-11-09_11h13.28.022,vowel_harmony,2023.2.3,Win32,60.08171113,585.4387,586.4382,,,,,,,,,,,,,,,,,,,,,,,,,,586.4382,587.0714,m,1,0.6172,,587.0715,587.0716,,0,291,291,28,1,29,parlak,1142,51.888,1088,0.1189,6,harmonic,1.7,word,m,,,,,,,
,,,,,,,,,,,,001,2023-11-09_11h13.28.022,vowel_harmony,2023.2.3,Win32,60.08171113,587.0718,588.0714,,,,,,,,,,,,,,,,,,,,,,,,,,588.0714,588.6215,m,1,0.5354,,588.6215,588.6215,,0,292,292,0,1,1,sanat,3121,141.8059,2485,0.2717,5,harmonic,1.4,word,m,,,,,,,
,,,,,,,,,,,,001,2023-11-09_11h13.28.022,vowel_harmony,2023.2.3,Win32,60.08171113,588.6218,589.6214,,,,,,,,,,,,,,,,,,,,,,,,,,589.6214,590.5546,z,1,0.9132,,590.5546,590.5547,,0,293,293,218,1,219,tezöl,,,,,5,harmonic,2,nw,z,,,,,,,
,,,,,,,,,,,,001,2023-11-09_11h13.28.022,vowel_harmony,2023.2.3,Win32,60.08171113,590.5549,591.5546,,,,,,,,,,,,,,,,,,,,,,,,,,591.5547,592.1881,z,1,0.627,,592.1881,592.1882,,0,294,294,251,1,252,oştay,,,,,5,harmonic,1.95,nw,z,,,,,,,
,,,,,,,,,,,,001,2023-11-09_11h13.28.022,vowel_harmony,2023.2.3,Win32,60.08171113,592.1884,593.1878,,,,,,,,,,,,,,,,,,,,,,,,,,593.1878,593.6379,z,1,0.4345,,593.638,593.638,,0,295,295,272,1,273,daken,,,,,5,notharmonic,1.8,nw,z,,,,,,,
,,,,,,,,,,,,001,2023-11-09_11h13.28.022,vowel_harmony,2023.2.3,Win32,60.08171113,593.6383,594.6379,,,,,,,,,,,,,,,,,,,,,,,,,,594.6379,595.3046,z,1,0.6572,,595.3046,595.3047,,0,296,296,197,1,198,ranar,,,,,5,harmonic,1.75,nw,z,,,,,,,
,,,,,,,,,,,,001,2023-11-09_11h13.28.022,vowel_harmony,2023.2.3,Win32,60.08171113,595.3049,596.3046,,,,,,,,,,,,,,,,,,,,,,,,,,596.3046,596.8712,z,1,0.5585,,596.8712,596.8713,,0,297,297,190,1,191,reklen,,,,,6,harmonic,1.8,nw,z,,,,,,,
,,,,,,,,,,,,001,2023-11-09_11h13.28.022,vowel_harmony,2023.2.3,Win32,60.08171113,596.8716,597.8711,,,,,,,,,,,,,,,,,,,,,,,,,,597.8711,598.4878,z,1,0.6067,,598.4878,598.4879,,0,298,298,278,1,279,sekon,,,,,5,notharmonic,1.85,nw,z,,,,,,,
,,,,,,,,,,,,001,2023-11-09_11h13.28.022,vowel_harmony,2023.2.3,Win32,60.08171113,598.4881,599.4877,,,,,,,,,,,,,,,,,,,,,,,,,,599.4877,600.4546,z,1,0.9517,,600.4547,600.4547,,0,299,299,239,1,240,şekik,,,,,5,harmonic,1.7,nw,z,,,,,,,
,,,,,,,,,,,,001,2023-11-09_11h13.28.022,vowel_harmony,2023.2.3,Win32,60.08171113,600.4548,601.4544,,,,,,,,,,,,,,,,,,,,,,,,,,601.4544,602.2044,z,1,0.736,,602.2044,602.2044,,0,300,300,195,1,196,netüm,,,,,5,harmonic,1.95,nw,z,,,,,,,
,,,,,,,,,,,,001,2023-11-09_11h13.28.022,vowel_harmony,2023.2.3,Win32,60.08171113,602.2046,603.2043,,,,,,,,,,,,,,,,,,,,,,,,,,603.2043,604.721,m,1,1.4974,,604.721,604.7211,,0,301,301,60,1,61,doğu,2105,95.6429,1823,0.1993,4,harmonic,1.05,word,m,,,,,,,
,,,,,,,,,,,,001,2023-11-09_11h13.28.022,vowel_harmony,2023.2.3,Win32,60.08171113,604.7267,605.7209,,,,,,,,,,,,,,,,,,,,,,,,,,605.7209,606.2709,m,0,0.5407,,606.2709,606.271,,0,302,302,322,1,323,normin,,,,,6,notharmonic,1.95,nw,z,,,,,,,
,,,,,,,,,,,,001,2023-11-09_11h13.28.022,vowel_harmony,2023.2.3,Win32,60.08171113,606.2711,607.2708,,,,,,,,,,,,,,,,,,,,,,,,,,607.2708,607.8043,m,1,0.5207,,607.8043,607.8043,,0,303,303,5,1,6,bebek,3301,149.9843,2794,0.3054,5,harmonic,1.6,word,m,,,,,,,
,,,,,,,,,,,,001,2023-11-09_11h13.28.022,vowel_harmony,2023.2.3,Win32,60.08171113,607.8046,608.8043,,,,,,,,,,,,,,,,,,,,,,,,,,608.8043,609.5541,z,1,0.7358,,609.5542,609.5543,,0,304,304,344,1,345,barika,,,,,6,notharmonic,1.75,nw,z,,,,,,,
,,,,,,,,,,,,001,2023-11-09_11h13.28.022,vowel_harmony,2023.2.3,Win32,60.08171113,609.5545,610.554,,,,,,,,,,,,,,,,,,,,,,,,,,610.5541,611.1874,z,1,0.6138,,611.1874,611.1875,,0,305,305,252,1,253,anlgı,,,,,5,harmonic,1.9,nw,z,,,,,,,
,,,,,,,,,,,,001,2023-11-09_11h13.28.022,vowel_harmony,2023.2.3,Win32,60.08171113,611.1877,612.1873,,,,,,,,,,,,,,,,,,,,,,,,,,612.1873,612.804,z,1,0.6021,,612.8041,612.8042,,0,306,306,249,1,250,hurıt,,,,,5,harmonic,1.95,nw,z,,,,,,,
,,,,,,,,,,,,001,2023-11-09_11h13.28.022,vowel_harmony,2023.2.3,Win32,60.08171113,612.8044,613.8039,,,,,,,,,,,,,,,,,,,,,,,,,,613.8039,614.7705,z,1,0.9467,,614.7706,614.7707,,0,307,307,230,1,231,bikir,,,,,5,harmonic,1.75,nw,z,,,,,,,
,,,,,,,,,,,,001,2023-11-09_11h13.28.022,vowel_harmony,2023.2.3,Win32,60.08171113,614.7708,615.7706,,,,,,,,,,,,,,,,,,,,,,,,,,615.7706,616.8372,z,1,1.0505,,616.8373,616.8373,,0,308,308,294,1,295,mesap,,,,,5,notharmonic,1.8,nw,z,,,,,,,
,,,,,,,,,,,,001,2023-11-09_11h13.28.022,vowel_harmony,2023.2.3,Win32,60.08171113,616.8376,617.8372,,,,,,,,,,,,,,,,,,,,,,,,,,617.8373,618.6204,z,1,0.7758,,618.6204,618.6205,,0,309,309,318,1,319,yorgün,,,,,6,notharmonic,1.9,nw,z,,,,,,,
,,,,,,,,,,,,001,2023-11-09_11h13.28.022,vowel_harmony,2023.2.3,Win32,60.08171113,618.6208,619.6204,,,,,,,,,,,,,,,,,,,,,,,,,,619.6205,620.3038,z,1,0.6666,,620.3039,620.3039,,0,310,310,246,1,247,orkın,,,,,5,harmonic,1.9,nw,z,,,,,,,
,,,,,,,,,,,,001,2023-11-09_11h13.28.022,vowel_harmony,2023.2.3,Win32,60.08171113,620.3041,621.3038,,,,,,,,,,,,,,,,,,,,,,,,,,621.3038,621.8705,z,1,0.5503,,621.8705,621.8705,,0,311,311,244,1,245,kaof,,,,,4,harmonic,1.9,nw,z,,,,,,,
,,,,,,,,,,,,001,2023-11-09_11h13.28.022,vowel_harmony,2023.2.3,Win32,60.08171113,621.8707,622.8704,,,,,,,,,,,,,,,,,,,,,,,,,,622.8704,623.6037,m,1,0.7129,,623.6037,623.6038,,0,312,312,79,1,80,durum,6783,308.1926,6431,0.703,5,harmonic,1.7,word,m,,,,,,,
,,,,,,,,,,,,001,2023-11-09_11h13.28.022,vowel_harmony,2023.2.3,Win32,60.08171113,623.6039,624.6037,,,,,,,,,,,,,,,,,,,,,,,,,,624.6037,625.2036,z,1,0.5797,,625.2036,625.2036,,0,313,313,227,1,228,zekö,,,,,4,harmonic,1.9,nw,z,,,,,,,
,,,,,,,,,,,,001,2023-11-09_11h13.28.022,vowel_harmony,2023.2.3,Win32,60.08171113,625.2039,626.2035,,,,,,,,,,,,,,,,,,,,,,,,,,626.2036,626.7869,m,1,0.5624,,626.7869,626.787,,0,314,314,67,1,68,bayram,1948,88.5094,1648,0.1802,6,harmonic,1.85,word,m,,,,,,,
,,,,,,,,,,,,001,2023-11-09_11h13.28.022,vowel_harmony,2023.2.3,Win32,60.08171113,626.7872,627.7869,,,,,,,,,,,,,,,,,,,,,,,,,,627.7869,628.5868,m,1,0.7865,,628.5868,628.5869,,0,315,315,141,1,142,madde,3793,172.3389,3389,0.3705,5,notharmonic,1.7,word,m,,,,,,,
,,,,,,,,,,,,001,2023-11-09_11h13.28.022,vowel_harmony,2023.2.3,Win32,60.08171113,628.5871,629.5868,,,,,,,,,,,,,,,,,,,,,,,,,,629.5868,630.3368,z,1,0.7326,,630.3369,630.3369,,0,316,316,265,1,266,parula,,,,,6,harmonic,1.75,nw,z,,,,,,,
,,,,,,,,,,,,001,2023-11-09_11h13.28.022,vowel_harmony,2023.2.3,Win32,60.08171113,630.3371,631.3368,,,,,,,,,,,,,,,,,,,,,,,,,,631.3368,631.9368,z,1,0.589,,631.9368,631.9369,,0,317,317,282,1,283,taöz,,,,,4,notharmonic,1.9,nw,z,,,,,,,
,,,,,,,,,,,,001,2023-11-09_11h13.28.022,vowel_harmony,2023.2.3,Win32,60.08171113,631.9371,632.9368,,,,,,,,,,,,,,,,,,,,,,,,,,632.9368,633.5367,z,1,0.5903,,633.5368,633.5368,,0,318,318,219,1,220,barlum,,,,,6,harmonic,1.9,nw,z,,,,,,,
,,,,,,,,,,,,001,2023-11-09_11h13.28.022,vowel_harmony,2023.2.3,Win32,60.08171113,633.537,634.5367,,,,,,,,,,,,,,,,,,,,,,,,,,634.5367,635.22,z,1,0.677,,635.2201,635.2201,,0,319,319,237,1,238,taşal,,,,,5,harmonic,1.8,nw,z,,,,,,,
,,,,,,,,,,,,001,2023-11-09_11h13.28.022,vowel_harmony,2023.2.3,Win32,60.08171113,635.2203,636.22,,,,,,,,,,,,,,,,,,,,,,,,,,636.22,637.0367,m,1,0.8116,,637.0368,637.0368,,0,320,320,36,1,37,meslek,1082,49.1618,976,0.1067,6,harmonic,1.9,word,m,,,,,,,
,,,,,,,,,,,,001,2023-11-09_11h13.28.022,vowel_harmony,2023.2.3,Win32,60.08171113,637.0372,638.0367,,,,,,,,,,,,,,,,,,,,,,,,,,638.0367,638.6866,z,1,0.6329,,638.6866,638.6867,,0,321,321,343,1,344,tarne,,,,,5,notharmonic,1.85,nw,z,,,,,,,
,,,,,,,,,,,,001,2023-11-09_11h13.28.022,vowel_harmony,2023.2.3,Win32,60.08171113,638.6869,639.6866,,,,,,,,,,,,,,,,,,,,,,,,,,639.6866,640.3365,m,1,0.6408,,640.3365,640.3365,,0,322,322,170,1,171,basit,3385,153.801,3177,0.3473,5,notharmonic,1.65,word,m,,,,,,,
,,,,,,,,,,,,001,2023-11-09_11h13.28.022,vowel_harmony,2023.2.3,Win32,60.08171113,640.3368,641.3364,,,,,,,,,,,,,,,,,,,,,,,,,,641.3364,641.9697,m,1,0.6132,,641.9698,641.9698,,0,323,323,10,1,11,bardak,1728,78.5135,1569,0.1715,6,harmonic,1.6,word,m,,,,,,,
,,,,,,,,,,,,001,2023-11-09_11h13.28.022,vowel_harmony,2023.2.3,Win32,60.08171113,641.9701,642.9698,,,,,,,,,,,,,,,,,,,,,,,,,,642.9698,643.6196,z,1,0.6449,,643.6196,643.6197,,0,324,324,306,1,307,otet,,,,,4,notharmonic,1.95,nw,z,,,,,,,
,,,,,,,,,,,,001,2023-11-09_11h13.28.022,vowel_harmony,2023.2.3,Win32,60.08171113,643.6199,644.6197,,,,,,,,,,,,,,,,,,,,,,,,,,644.6197,645.2864,m,1,0.6584,,645.2864,645.2864,,0,325,325,21,1,22,duygu,1877,85.2834,1760,0.1924,5,harmonic,1.8,word,m,,,,,,,
,,,,,,,,,,,,001,2023-11-09_11h13.28.022,vowel_harmony,2023.2.3,Win32,60.08171113,645.2867,646.2864,,,,,,,,,,,,,,,,,,,,,,,,,,646.2864,648.2864,,0,,,648.2864,648.2865,,0,326,326,262,1,263,sauk,,,,,4,harmonic,1.85,nw,z,,,,,,,
,,,,,,,,,,,,001,2023-11-09_11h13.28.022,vowel_harmony,2023.2.3,Win32,60.08171113,648.2919,649.2862,,,,,,,,,,,,,,,,,,,,,,,,,,649.2862,649.8696,m,1,0.5754,,649.8696,649.8698,,0,327,327,49,1,50,şeker,4708,213.9128,4170,0.4559,5,harmonic,1.6,word,m,,,,,,,
,,,,,,,,,,,,001,2023-11-09_11h13.28.022,vowel_harmony,2023.2.3,Win32,60.08171113,649.8701,650.8694,,,,,,,,,,,,,,,,,,,,,,,,,,650.8694,651.6361,z,1,0.7531,,651.6361,651.6361,,0,328,328,222,1,223,gelü,,,,,4,harmonic,1.75,nw,z,,,,,,,
,,,,,,,,,,,,001,2023-11-09_11h13.28.022,vowel_harmony,2023.2.3,Win32,60.08171113,651.6364,652.6363,,,,,,,,,,,,,,,,,,,,,,,,,,652.6363,653.6028,z,1,0.9539,,653.6028,653.6029,,0,329,329,241,1,242,porlam,,,,,6,harmonic,2,nw,z,,,,,,,
,,,,,,,,,,,,001,2023-11-09_11h13.28.022,vowel_harmony,2023.2.3,Win32,60.08171113,653.6032,654.6027,,,,,,,,,,,,,,,,,,,,,,,,,,654.6028,655.386,z,1,0.7714,,655.3861,655.3861,,0,330,330,193,1,194,yokın,,,,,5,harmonic,1.85,nw,z,,,,,,,
,,,,,,,,,,,,001,2023-11-09_11h13.28.022,vowel_harmony,2023.2.3,Win32,60.08171113,655.3863,656.386,,,,,,,,,,,,,,,,,,,,,,,,,,656.386,657.4527,z,1,1.0602,,657.4527,657.4527,,0,331,331,283,1,284,fahe,,,,,4,notharmonic,1.95,nw,z,,,,,,,
,,,,,,,,,,,,001,2023-11-09_11h13.28.022,vowel_harmony,2023.2.3,Win32,60.08171113,657.453,658.4526,,,,,,,,,,,,,,,,,,,,,,,,,,658.4527,659.0526,z,1,0.5846,,659.0526,659.0527,,0,332,332,311,1,312,dedya,,,,,5,notharmonic,1.9,nw,z,,,,,,,
,,,,,,,,,,,,001,2023-11-09_11h13.28.022,vowel_harmony,2023.2.3,Win32,60.08171113,659.0529,660.0525,,,,,,,,,,,,,,,,,,,,,,,,,,660.0525,660.6525,z,1,0.5866,,660.6525,660.6527,,0,333,333,274,1,275,pisan,,,,,5,notharmonic,1.75,nw,z,,,,,,,
,,,,,,,,,,,,001,2023-11-09_11h13.28.022,vowel_harmony,2023.2.3,Win32,60.08171113,660.6528,661.6525,,,,,,,,,,,,,,,,,,,,,,,,,,661.6525,662.2358,m,1,0.5772,,662.2358,662.2359,,0,334,334,86,1,87,gerçek,8983,408.1519,8058,0.8809,6,harmonic,1.7,word,m,,,,,,,
,,,,,,,,,,,,001,2023-11-09_11h13.28.022,vowel_harmony,2023.2.3,Win32,60.08171113,662.2361,663.2359,,,,,,,,,,,,,,,,,,,,,,,,,,663.2359,663.6524,m,1,0.4007,,663.6525,663.6525,,0,335,335,33,1,34,moda,1381,62.7472,1231,0.1346,4,harmonic,1.55,word,m,,,,,,,
,,,,,,,,,,,,001,2023-11-09_11h13.28.022,vowel_harmony,2023.2.3,Win32,60.08171113,663.6528,664.6524,,,,,,,,,,,,,,,,,,,,,,,,,,664.6525,665.6858,m,1,1.0179,,665.6858,665.6858,,0,336,336,72,1,73,çorba,1674,76.0599,1513,0.1654,5,harmonic,1.75,word,m,,,,,,,
,,,,,,,,,,,,001,2023-11-09_11h13.28.022,vowel_harmony,2023.2.3,Win32,60.08171113,665.6861,666.6856,,,,,,,,,,,,,,,,,,,,,,,,,,666.6856,667.2522,m,1,0.5527,,667.2522,667.2523,,0,337,337,71,1,72,örnek,3463,157.345,3266,0.357,5,harmonic,1.85,word,m,,,,,,,
,,,,,,,,,,,,001,2023-11-09_11h13.28.022,vowel_harmony,2023.2.3,Win32,60.08171113,667.2525,668.2523,,,,,,,,,,,,,,,,,,,,,,,,,,668.2523,668.9689,z,1,0.6982,,668.9689,668.969,,0,338,338,264,1,265,vepü,,,,,4,harmonic,2,nw,z,,,,,,,
,,,,,,,,,,,,001,2023-11-09_11h13.28.022,vowel_harmony,2023.2.3,Win32,60.08171113,668.9691,669.969,,,,,,,,,,,,,,,,,,,,,,,,,,669.969,670.719,m,1,0.7413,,670.7191,670.7191,,0,339,339,69,1,70,forma,719,32.6685,597,0.0653,5,harmonic,1.8,word,m,,,,,,,
,,,,,,,,,,,,001,2023-11-09_11h13.28.022,vowel_harmony,2023.2.3,Win32,60.08171113,670.7194,671.7189,,,,,,,,,,,,,,,,,,,,,,,,,,671.7189,672.7522,m,1,1.0157,,672.7522,672.7522,,0,340,340,37,1,38,hayvan,2363,107.3653,1894,0.2071,6,harmonic,1.5,word,m,,,,,,,
,,,,,,,,,,,,001,2023-11-09_11h13.28.022,vowel_harmony,2023.2.3,Win32,60.08171113,672.7524,673.752,,,,,,,,,,,,,,,,,,,,,,,,,,673.7521,674.7521,z,1,0.9903,,674.7521,674.7522,,0,341,341,309,1,310,yorgen,,,,,6,notharmonic,1.9,nw,z,,,,,,,
,,,,,,,,,,,,001,2023-11-09_11h13.28.022,vowel_harmony,2023.2.3,Win32,60.08171113,674.7524,675.7521,,,,,,,,,,,,,,,,,,,,,,,,,,675.7521,676.3687,m,1,0.6071,,676.3688,676.3688,,0,342,342,42,1,43,ürün,2268,103.0489,1954,0.2136,4,harmonic,1.1,word,m,,,,,,,
,,,,,,,,,,,,001,2023-11-09_11h13.28.022,vowel_harmony,2023.2.3,Win32,60.08171113,676.3692,677.3688,,,,,,,,,,,,,,,,,,,,,,,,,,677.3688,678.1019,z,1,0.716,,678.102,678.1021,,0,343,343,330,1,331,vahçe,,,,,5,notharmonic,1.9,nw,z,,,,,,,
,,,,,,,,,,,,001,2023-11-09_11h13.28.022,vowel_harmony,2023.2.3,Win32,60.08171113,678.1022,679.102,,,,,,,,,,,,,,,,,,,,,,,,,,679.102,679.8019,z,1,0.6889,,679.8019,679.802,,0,344,344,326,1,327,ailo,,,,,4,notharmonic,1.75,nw,z,,,,,,,
,,,,,,,,,,,,001,2023-11-09_11h13.28.022,vowel_harmony,2023.2.3,Win32,60.08171113,679.8022,680.8019,,,,,,,,,,,,,,,,,,,,,,,,,,680.8019,681.602,m,1,0.779,,681.602,681.602,,0,345,345,161,1,162,komik,1617,73.4701,1506,0.1646,5,notharmonic,1.75,word,m,,,,,,,
,,,,,,,,,,,,001,2023-11-09_11h13.28.022,vowel_harmony,2023.2.3,Win32,60.08171113,681.6023,682.6019,,,,,,,,,,,,,,,,,,,,,,,,,,682.6019,683.2184,z,1,0.5962,,683.2184,683.2186,,0,346,346,196,1,197,bilön,,,,,5,harmonic,1.9,nw,z,,,,,,,
,,,,,,,,,,,,001,2023-11-09_11h13.28.022,vowel_harmony,2023.2.3,Win32,60.08171113,683.2188,684.2185,,,,,,,,,,,,,,,,,,,,,,,,,,684.2185,684.8351,z,1,0.6023,,684.8351,684.8352,,0,347,347,333,1,334,heyran,,,,,6,notharmonic,1.85,nw,z,,,,,,,
,,,,,,,,,,,,001,2023-11-09_11h13.28.022,vowel_harmony,2023.2.3,Win32,60.08171113,684.8354,685.8351,,,,,,,,,,,,,,,,,,,,,,,,,,685.8351,686.5185,z,1,0.6672,,686.5185,686.5186,,0,348,348,290,1,291,aipa,,,,,4,notharmonic,1.95,nw,z,,,,,,,
,,,,,,,,,,,,001,2023-11-09_11h13.28.022,vowel_harmony,2023.2.3,Win32,60.08171113,686.5188,687.5185,,,,,,,,,,,,,,,,,,,,,,,,,,687.5185,688.1684,m,1,0.6316,,688.1684,688.1685,,0,349,349,16,1,17,yavaş,5087,231.1331,2886,0.3155,5,harmonic,1.6,word,m,,,,,,,
,,,,,,,,,,,,001,2023-11-09_11h13.28.022,vowel_harmony,2023.2.3,Win32,60.08171113,688.1687,689.1683,,,,,,,,,,,,,,,,,,,,,,,,,,689.1683,689.9516,m,1,0.7751,,689.9516,689.9516,,0,350,350,94,1,95,final,876,39.802,778,0.0851,5,notharmonic,1,word,m,,,,,,,
,,,,,,,,,,,,001,2023-11-09_11h13.28.022,vowel_harmony,2023.2.3,Win32,60.08171113,689.9518,690.9517,,,,,,,,,,,,,,,,,,,,,,,,,,690.9517,691.7849,z,1,0.8144,,691.7849,691.785,,0,351,351,208,1,209,yayram,,,,,6,harmonic,1.85,nw,z,,,,,,,
,,,,,,,,,,,,001,2023-11-09_11h13.28.022,vowel_harmony,2023.2.3,Win32,60.08171113,691.7852,692.7848,,,,,,,,,,,,,,,,,,,,,,,,,,692.7848,693.3348,z,1,0.541,,693.3348,693.3349,,0,352,352,276,1,277,iptap,,,,,5,notharmonic,1.95,nw,z,,,,,,,
,,,,,,,,,,,,001,2023-11-09_11h13.28.022,vowel_harmony,2023.2.3,Win32,60.08171113,693.3351,694.3349,,,,,,,,,,,,,,,,,,,,,,,,,,694.3349,694.8682,z,1,0.5278,,694.8682,694.8684,,0,353,353,213,1,214,kaun,,,,,4,harmonic,1.7,nw,z,,,,,,,
,,,,,,,,,,,,001,2023-11-09_11h13.28.022,vowel_harmony,2023.2.3,Win32,60.08171113,694.8686,695.8682,,,,,,,,,,,,,,,,,,,,,,,,,,695.8682,696.5348,m,1,0.6501,,696.5348,696.5349,,0,354,354,88,1,89,yalnız,5891,267.6637,5440,0.5947,6,harmonic,1.6,word,m,,,,,,,
,,,,,,,,,,,,001,2023-11-09_11h13.28.022,vowel_harmony,2023.2.3,Win32,60.08171113,696.5351,697.5347,,,,,,,,,,,,,,,,,,,,,,,,,,697.5347,699.1513,z,1,1.5989,,699.1513,699.1515,,0,355,355,307,1,308,merbat,,,,,6,notharmonic,1.95,nw,z,,,,,,,
,,,,,,,,,,,,001,2023-11-09_11h13.28.022,vowel_harmony,2023.2.3,Win32,60.08171113,699.1517,700.1514,,,,,,,,,,,,,,,,,,,,,,,,,,700.1514,700.9345,m,1,0.766,,700.9345,700.9347,,0,356,356,150,1,151,sabit,1046,47.5261,915,0.1,5,notharmonic,1.75,word,m,,,,,,,
,,,,,,,,,,,,001,2023-11-09_11h13.28.022,vowel_harmony,2023.2.3,Win32,60.08171113,700.9348,701.9346,,,,,,,,,,,,,,,,,,,,,,,,,,701.9346,702.7846,z,1,0.84,,702.7846,702.7847,,0,357,357,250,1,251,kakuk,,,,,5,harmonic,1.9,nw,z,,,,,,,
,,,,,,,,,,,,001,2023-11-09_11h13.28.022,vowel_harmony,2023.2.3,Win32,60.08171113,702.7849,703.7845,,,,,,,,,,,,,,,,,,,,,,,,,,703.7845,704.5678,z,1,0.7648,,704.5679,704.5679,,0,358,358,353,1,354,ikno,,,,,4,notharmonic,1.95,nw,z,,,,,,,
,,,,,,,,,,,,001,2023-11-09_11h13.28.022,vowel_harmony,2023.2.3,Win32,60.08171113,704.5681,705.5677,,,,,,,,,,,,,,,,,,,,,,,,,,705.5677,706.1511,z,1,0.5749,,706.1511,706.1512,,0,359,359,291,1,292,mepan,,,,,5,notharmonic,1.75,nw,z,,,,,,,
,,,,,,,,,,,,001,2023-11-09_11h13.28.022,vowel_harmony,2023.2.3,Win32,60.08171113,,,,,,,,,,,,,,,,,,,,,,,,,,,,,,,,,,,,,,,,,,,,,,,,,,,,,,,706.1517,708.7684,space,2.5991,