Welcome_screen.started,Welcome_screen.stopped,key_respwelcome.keys,key_respwelcome.rt,key_respwelcome.duration,intro_x.thisRepN,intro_x.thisTrialN,intro_x.thisN,intro_x.thisIndex,intro_x.ran,Introduction,participant,session,date,expName,psychopyVersion,OS,frameRate,Fixation.started,Fixation.stopped,Studypractice.started,Studypractice.stopped,key_respstudy.keys,key_respstudy.corr,key_respstudy.rt,key_respstudy.duration,rt,corr,Feedback.started,Feedback.stopped,practice_loop.thisRepN,practice_loop.thisTrialN,practice_loop.thisN,practice_loop.thisIndex,practice_loop.ran,item_nr_p,target_p,isHarmonic_p,target_cond_p,CorrAns_p,Instraction.started,Instraction.stopped,key_respınstraction.keys,key_respınstraction.rt,key_respınstraction.duration,TestTrial.started,TestTrial.stopped,key_respTest.keys,key_respTest.corr,key_respTest.rt,key_respTest.duration,Pause.started,Pause.stopped,key_resp_xx.keys,test_loop.thisRepN,test_loop.thisTrialN,test_loop.thisN,test_loop.thisIndex,test_loop.ran,item_nr,target,BlogFreq_A1,BlogFreqpm_A1,BlogCD_A1,BlogCDPc_A1,WordLength_A1,isHarmonic_A1,old20,target_cond,CorrAns,key_resp_xx.rt,key_resp_xx.duration,Goodbye_screen.started,Goodbye_screen.stopped,key_respgoodbye.keys,key_respgoodbye.rt,key_respgoodbye.duration
0.012,2.4517,space,2.4002,,0,0,0,0,1,"Deneye hoş geldiniz,

Devam etmek için BOŞLUK tuşuna basınız.",,001,2023-11-09_13h36.23.977,vowel_harmony,2023.2.3,MacIntel,30.00120005,,,,,,,,,,,,,,,,,,,,,,,,,,,,,,,,,,,,,,,,,,,,,,,,,,,,,,,,,,,
2.4528,17.785,space,15.3145,,0,1,1,1,1,"Bu çalışma Valencia Üniversitesi kapsamında yürütülmektedir. Deneydeki göreviniz, ekrana çıkacak Türkçe sözcüklerin kelime olup olmadığını belirlemenizdir. Eğer sözcük gerçek bir kelime ise ""m"" tuşuna, değil ise ""z"" tuşuna basınız.   

Devam etmek için BOŞLUK tuşuna basınız.",,001,2023-11-09_13h36.23.977,vowel_harmony,2023.2.3,MacIntel,30.00120005,,,,,,,,,,,,,,,,,,,,,,,,,,,,,,,,,,,,,,,,,,,,,,,,,,,,,,,,,,,
17.7853,31.4501,space,13.6389,,0,2,2,2,1,"Her sözcük için en fazla iki saniyede cevap vermeniz beklenmektedir. Aksi takdirde deney bir sonraki sözcük ile devam eder. 
Bu çalışmada oldukça hızlı ve doğru cevaplama yapmanız beklenmektedir.

Devam etmek için BOŞLUK tuşuna basınız.",,001,2023-11-09_13h36.23.977,vowel_harmony,2023.2.3,MacIntel,30.00120005,,,,,,,,,,,,,,,,,,,,,,,,,,,,,,,,,,,,,,,,,,,,,,,,,,,,,,,,,,,
31.4506,41.3831,space,9.914,,0,3,3,3,1,"Çalışmaya başlamadan önce ufak bir pratik yer almaktadır.
Kelimedir: ""m""
Kelime değildir: ""z""

Pratik teste başlamak için BOŞLUK tuşuna basınız. ",,001,2023-11-09_13h36.23.977,vowel_harmony,2023.2.3,MacIntel,30.00120005,,,,,,,,,,,,,,,,,,,,,,,,,,,,,,,,,,,,,,,,,,,,,,,,,,,,,,,,,,,
,,,,,,,,,,,,001,2023-11-09_13h36.23.977,vowel_harmony,2023.2.3,MacIntel,30.00120005,41.3955,42.3846,42.3848,44.487,m,1,2.0568,,2.0568,1,44.4872,45.9876,0,0,0,3,1,4,ihlal,notharmonic,word,m,,,,,,,,,,,,,,,,,,,,,,,,,,,,,,,,,,,,,
,,,,,,,,,,,,001,2023-11-09_13h36.23.977,vowel_harmony,2023.2.3,MacIntel,30.00120005,45.9886,46.9844,46.9844,47.05,z,1,0.0498,,0.0498,1,47.0501,48.5527,0,1,1,8,1,9,tahip,notharmonic,nw,z,,,,,,,,,,,,,,,,,,,,,,,,,,,,,,,,,,,,,
,,,,,,,,,,,,001,2023-11-09_13h36.23.977,vowel_harmony,2023.2.3,MacIntel,30.00120005,48.5533,49.5531,49.5532,50.2173,m,1,0.6318,,0.6318,1,50.2173,51.7176,0,2,2,1,1,2,veri,harmonic,word,m,,,,,,,,,,,,,,,,,,,,,,,,,,,,,,,,,,,,,
,,,,,,,,,,,,001,2023-11-09_13h36.23.977,vowel_harmony,2023.2.3,MacIntel,30.00120005,51.7181,52.72,52.7201,53.3164,m,0,0.5815,,0.5815,0,53.3165,54.819,0,3,3,12,1,13,ihlot,notharmonic,nw,z,,,,,,,,,,,,,,,,,,,,,,,,,,,,,,,,,,,,,
,,,,,,,,,,,,001,2023-11-09_13h36.23.977,vowel_harmony,2023.2.3,MacIntel,30.00120005,54.8192,55.8194,55.8195,56.5861,z,1,0.7452,,0.7452,1,56.5862,58.0862,0,4,4,10,1,11,mahne,notharmonic,nw,z,,,,,,,,,,,,,,,,,,,,,,,,,,,,,,,,,,,,,
,,,,,,,,,,,,001,2023-11-09_13h36.23.977,vowel_harmony,2023.2.3,MacIntel,30.00120005,58.0868,59.0854,59.0855,59.4508,z,0,0.3405,,0.3405,0,59.4509,60.9532,0,5,5,7,1,8,oran,harmonic,word,m,,,,,,,,,,,,,,,,,,,,,,,,,,,,,,,,,,,,,
,,,,,,,,,,,,001,2023-11-09_13h36.23.977,vowel_harmony,2023.2.3,MacIntel,30.00120005,60.9537,61.9535,61.9536,62.3536,m,1,0.3602,,0.3602,1,62.3537,63.8538,0,6,6,5,1,6,bahçe,notharmonic,word,m,,,,,,,,,,,,,,,,,,,,,,,,,,,,,,,,,,,,,
,,,,,,,,,,,,001,2023-11-09_13h36.23.977,vowel_harmony,2023.2.3,MacIntel,30.00120005,63.8546,64.8538,64.8539,65.2168,m,0,0.3421,,0.3421,0,65.2169,66.7186,0,7,7,9,1,10,orat,harmonic,nw,z,,,,,,,,,,,,,,,,,,,,,,,,,,,,,,,,,,,,,
,,,,,,,,,,,,001,2023-11-09_13h36.23.977,vowel_harmony,2023.2.3,MacIntel,30.00120005,66.719,67.7185,67.7185,68.2544,m,0,0.514,,0.514,0,68.2545,69.7539,0,8,8,11,1,12,geki,harmonic,nw,z,,,,,,,,,,,,,,,,,,,,,,,,,,,,,,,,,,,,,
,,,,,,,,,,,,001,2023-11-09_13h36.23.977,vowel_harmony,2023.2.3,MacIntel,30.00120005,69.7545,70.7544,70.7545,71.3877,m,1,0.5912,,0.5912,1,71.3878,72.884,0,9,9,4,1,5,mimar,notharmonic,word,m,,,,,,,,,,,,,,,,,,,,,,,,,,,,,,,,,,,,,
,,,,,,,,,,,,001,2023-11-09_13h36.23.977,vowel_harmony,2023.2.3,MacIntel,30.00120005,72.8846,73.8867,73.8867,75.0543,z,1,1.1274,,1.1274,1,75.0544,76.5544,0,10,10,15,1,16,mımal,harmonic,nw,z,,,,,,,,,,,,,,,,,,,,,,,,,,,,,,,,,,,,,
,,,,,,,,,,,,001,2023-11-09_13h36.23.977,vowel_harmony,2023.2.3,MacIntel,30.00120005,76.5551,77.5516,77.5518,78.2199,m,1,0.6415,,0.6415,1,78.22,79.7185,0,11,11,0,1,1,ihale,notharmonic,word,m,,,,,,,,,,,,,,,,,,,,,,,,,,,,,,,,,,,,,
,,,,,,,,,,,,001,2023-11-09_13h36.23.977,vowel_harmony,2023.2.3,MacIntel,30.00120005,79.719,80.7189,80.7189,81.4526,z,1,0.7134,,0.7134,1,81.4527,82.9516,0,12,12,14,1,15,pimer,harmonic,nw,z,,,,,,,,,,,,,,,,,,,,,,,,,,,,,,,,,,,,,
,,,,,,,,,,,,001,2023-11-09_13h36.23.977,vowel_harmony,2023.2.3,MacIntel,30.00120005,82.9522,83.9546,83.9548,84.519,m,1,0.5444,,0.5444,1,84.519,86.0214,0,13,13,2,1,3,memur,notharmonic,word,m,,,,,,,,,,,,,,,,,,,,,,,,,,,,,,,,,,,,,
,,,,,,,,,,,,001,2023-11-09_13h36.23.977,vowel_harmony,2023.2.3,MacIntel,30.00120005,86.022,87.0186,87.0188,87.6536,m,1,0.6186,,0.6186,1,87.6538,89.1531,0,14,14,6,1,7,pilot,notharmonic,word,m,,,,,,,,,,,,,,,,,,,,,,,,,,,,,,,,,,,,,
,,,,,,,,,,,,001,2023-11-09_13h36.23.977,vowel_harmony,2023.2.3,MacIntel,30.00120005,89.1536,90.1554,90.1555,90.8547,z,1,0.6765,,0.6765,1,90.8547,92.3534,0,15,15,13,1,14,pilar,notharmonic,nw,z,,,,,,,,,,,,,,,,,,,,,,,,,,,,,,,,,,,,,
,,,,,,,,,,,,001,2023-11-09_13h36.23.977,vowel_harmony,2023.2.3,MacIntel,30.00120005,,,,,,,,,,,,,,,,,,,,,,,92.3556,98.5528,space,6.1779,,,,,,,,,,,,,,,,,,,,,,,,,,,,,,,,,
,,,,,,,,,,,,001,2023-11-09_13h36.23.977,vowel_harmony,2023.2.3,MacIntel,30.00120005,98.5974,99.5865,,,,,,,,,,,,,,,,,,,,,,,,,,99.5869,100.1873,z,1,0.5566,,100.1875,100.1891,,0,0,0,353,1,354,ikno,,,,,4,notharmonic,1.95,nw,z,,,,,,,
,,,,,,,,,,,,001,2023-11-09_13h36.23.977,vowel_harmony,2023.2.3,MacIntel,30.00120005,100.1898,101.1892,,,,,,,,,,,,,,,,,,,,,,,,,,101.1893,101.8872,m,1,0.6803,,101.8873,101.8873,,0,1,1,137,1,138,parti,2613,118.7244,2059,0.2251,5,notharmonic,1.8,word,m,,,,,,,
,,,,,,,,,,,,001,2023-11-09_13h36.23.977,vowel_harmony,2023.2.3,MacIntel,30.00120005,101.8876,102.887,,,,,,,,,,,,,,,,,,,,,,,,,,102.887,103.4883,m,1,0.5609,,103.4884,103.4884,,0,2,2,167,1,168,adalet,1611,73.1975,1388,0.1517,6,notharmonic,1.65,word,m,,,,,,,
,,,,,,,,,,,,001,2023-11-09_13h36.23.977,vowel_harmony,2023.2.3,MacIntel,30.00120005,103.4888,104.4874,,,,,,,,,,,,,,,,,,,,,,,,,,104.4874,105.0871,z,1,0.5797,,105.0872,105.0872,,0,3,3,260,1,261,yarlam,,,,,6,harmonic,1.75,nw,z,,,,,,,
,,,,,,,,,,,,001,2023-11-09_13h36.23.977,vowel_harmony,2023.2.3,MacIntel,30.00120005,105.0875,106.0867,,,,,,,,,,,,,,,,,,,,,,,,,,106.0867,106.69,z,1,0.5671,,106.6901,106.6902,,0,4,4,236,1,237,toklam,,,,,6,harmonic,1.85,nw,z,,,,,,,
,,,,,,,,,,,,001,2023-11-09_13h36.23.977,vowel_harmony,2023.2.3,MacIntel,30.00120005,106.6906,107.6867,,,,,,,,,,,,,,,,,,,,,,,,,,107.6868,108.3202,z,1,0.6162,,108.3202,108.3203,,0,5,5,252,1,253,anlgı,,,,,5,harmonic,1.9,nw,z,,,,,,,
,,,,,,,,,,,,001,2023-11-09_13h36.23.977,vowel_harmony,2023.2.3,MacIntel,30.00120005,108.3207,109.3218,,,,,,,,,,,,,,,,,,,,,,,,,,109.3219,109.8195,m,1,0.4835,,109.8196,109.8197,,0,6,6,73,1,74,millet,1658,75.3329,1508,0.1649,6,harmonic,1.7,word,m,,,,,,,
,,,,,,,,,,,,001,2023-11-09_13h36.23.977,vowel_harmony,2023.2.3,MacIntel,30.00120005,109.8202,110.8213,,,,,,,,,,,,,,,,,,,,,,,,,,110.8214,111.555,m,1,0.6977,,111.5551,111.5551,,0,7,7,105,1,106,sahip,10887,494.6621,9847,1.0765,5,notharmonic,1.25,word,m,,,,,,,
,,,,,,,,,,,,001,2023-11-09_13h36.23.977,vowel_harmony,2023.2.3,MacIntel,30.00120005,111.5553,112.5536,,,,,,,,,,,,,,,,,,,,,,,,,,112.5537,113.2216,m,1,0.6469,,113.2216,113.2218,,0,8,8,4,1,5,metre,1156,52.5241,1015,0.111,5,harmonic,1.7,word,m,,,,,,,
,,,,,,,,,,,,001,2023-11-09_13h36.23.977,vowel_harmony,2023.2.3,MacIntel,30.00120005,113.2221,114.2226,,,,,,,,,,,,,,,,,,,,,,,,,,114.2227,114.8522,m,1,0.6104,,114.8522,114.8523,,0,9,9,178,1,179,dikkat,6230,283.0665,5888,0.6437,6,notharmonic,2.05,word,m,,,,,,,
,,,,,,,,,,,,001,2023-11-09_13h36.23.977,vowel_harmony,2023.2.3,MacIntel,30.00120005,114.8526,115.8535,,,,,,,,,,,,,,,,,,,,,,,,,,115.8536,116.4901,z,1,0.623,,116.4902,116.4903,,0,10,10,279,1,280,tadde,,,,,5,notharmonic,1.8,nw,z,,,,,,,
,,,,,,,,,,,,001,2023-11-09_13h36.23.977,vowel_harmony,2023.2.3,MacIntel,30.00120005,116.4907,117.4885,,,,,,,,,,,,,,,,,,,,,,,,,,117.4885,118.021,z,1,0.5095,,118.0211,118.0211,,0,11,11,235,1,236,oşup,,,,,4,harmonic,1.75,nw,z,,,,,,,
,,,,,,,,,,,,001,2023-11-09_13h36.23.977,vowel_harmony,2023.2.3,MacIntel,30.00120005,118.0214,119.0226,,,,,,,,,,,,,,,,,,,,,,,,,,119.0226,119.5538,m,1,0.513,,119.5538,119.5538,,0,12,12,96,1,97,dahil,3189,144.8955,3060,0.3345,5,notharmonic,1.7,word,m,,,,,,,
,,,,,,,,,,,,001,2023-11-09_13h36.23.977,vowel_harmony,2023.2.3,MacIntel,30.00120005,119.5541,120.5536,,,,,,,,,,,,,,,,,,,,,,,,,,120.5536,121.1861,m,1,0.6148,,121.1863,121.1863,,0,13,13,162,1,163,hariç,1267,57.5675,1233,0.1348,5,notharmonic,1.75,word,m,,,,,,,
,,,,,,,,,,,,001,2023-11-09_13h36.23.977,vowel_harmony,2023.2.3,MacIntel,30.00120005,121.1866,122.1883,,,,,,,,,,,,,,,,,,,,,,,,,,122.1883,122.757,z,1,0.5364,,122.7571,122.7571,,0,14,14,242,1,243,kahon,,,,,5,harmonic,1.85,nw,z,,,,,,,
,,,,,,,,,,,,001,2023-11-09_13h36.23.977,vowel_harmony,2023.2.3,MacIntel,30.00120005,122.7575,123.7535,,,,,,,,,,,,,,,,,,,,,,,,,,123.7535,124.42,z,1,0.647,,124.4201,124.4201,,0,15,15,267,1,268,nokuma,,,,,6,harmonic,1.75,nw,z,,,,,,,
,,,,,,,,,,,,001,2023-11-09_13h36.23.977,vowel_harmony,2023.2.3,MacIntel,30.00120005,124.4204,125.4202,,,,,,,,,,,,,,,,,,,,,,,,,,125.4203,125.9548,m,1,0.5162,,125.9548,125.9549,,0,16,16,147,1,148,işaret,1888,85.7832,1787,0.1954,6,notharmonic,1,word,m,,,,,,,
,,,,,,,,,,,,001,2023-11-09_13h36.23.977,vowel_harmony,2023.2.3,MacIntel,30.00120005,125.9551,126.9558,,,,,,,,,,,,,,,,,,,,,,,,,,126.9559,127.4883,m,1,0.5137,,127.4884,127.4884,,0,17,17,32,1,33,temel,4231,192.2399,3851,0.421,5,harmonic,1.55,word,m,,,,,,,
,,,,,,,,,,,,001,2023-11-09_13h36.23.977,vowel_harmony,2023.2.3,MacIntel,30.00120005,127.4887,128.489,,,,,,,,,,,,,,,,,,,,,,,,,,128.4891,129.1546,z,0,0.6475,,129.1546,129.1547,,0,18,18,48,1,49,teşvik,932,42.3464,867,0.0948,6,harmonic,1.8,word,m,,,,,,,
,,,,,,,,,,,,001,2023-11-09_13h36.23.977,vowel_harmony,2023.2.3,MacIntel,30.00120005,129.1549,130.1578,,,,,,,,,,,,,,,,,,,,,,,,,,130.1578,130.7574,m,1,0.5594,,130.7574,130.7576,,0,19,19,35,1,36,hava,4975,226.0443,4398,0.4808,4,harmonic,1,word,m,,,,,,,
,,,,,,,,,,,,001,2023-11-09_13h36.23.977,vowel_harmony,2023.2.3,MacIntel,30.00120005,130.7579,131.7573,,,,,,,,,,,,,,,,,,,,,,,,,,131.7573,132.3539,z,1,0.5829,,132.354,132.354,,0,20,20,264,1,265,vepü,,,,,4,harmonic,2,nw,z,,,,,,,
,,,,,,,,,,,,001,2023-11-09_13h36.23.977,vowel_harmony,2023.2.3,MacIntel,30.00120005,132.3545,133.3538,,,,,,,,,,,,,,,,,,,,,,,,,,133.3538,133.9899,z,1,0.6004,,133.99,133.9902,,0,21,21,186,1,187,habık,,,,,5,harmonic,1.9,nw,z,,,,,,,
,,,,,,,,,,,,001,2023-11-09_13h36.23.977,vowel_harmony,2023.2.3,MacIntel,30.00120005,133.9905,134.9886,,,,,,,,,,,,,,,,,,,,,,,,,,134.9886,135.4533,m,1,0.4438,,135.4534,135.4535,,0,22,22,165,1,166,gazete,1402,63.7013,1270,0.1388,6,notharmonic,1.8,word,m,,,,,,,
,,,,,,,,,,,,001,2023-11-09_13h36.23.977,vowel_harmony,2023.2.3,MacIntel,30.00120005,135.4538,136.4548,,,,,,,,,,,,,,,,,,,,,,,,,,136.4548,137.1897,m,1,0.6949,,137.1897,137.1897,,0,23,23,131,1,132,hakim,1677,76.1962,1559,0.1704,5,notharmonic,1,word,m,,,,,,,
,,,,,,,,,,,,001,2023-11-09_13h36.23.977,vowel_harmony,2023.2.3,MacIntel,30.00120005,137.1902,138.1878,,,,,,,,,,,,,,,,,,,,,,,,,,138.1879,138.7902,m,1,0.5803,,138.7902,138.7903,,0,24,24,23,1,24,kurum,986,44.7999,882,0.0964,5,harmonic,1.75,word,m,,,,,,,
,,,,,,,,,,,,001,2023-11-09_13h36.23.977,vowel_harmony,2023.2.3,MacIntel,30.00120005,138.7906,139.7877,,,,,,,,,,,,,,,,,,,,,,,,,,139.7878,140.3245,z,1,0.5037,,140.3246,140.3247,,0,25,25,191,1,192,doab,,,,,4,harmonic,2,nw,z,,,,,,,
,,,,,,,,,,,,001,2023-11-09_13h36.23.977,vowel_harmony,2023.2.3,MacIntel,30.00120005,140.3251,141.3228,,,,,,,,,,,,,,,,,,,,,,,,,,141.3228,141.8909,z,1,0.5289,,141.8909,141.891,,0,26,26,188,1,189,tonık,,,,,5,harmonic,1.85,nw,z,,,,,,,
,,,,,,,,,,,,001,2023-11-09_13h36.23.977,vowel_harmony,2023.2.3,MacIntel,30.00120005,141.8914,142.8878,,,,,,,,,,,,,,,,,,,,,,,,,,142.8878,143.4564,m,1,0.5283,,143.4564,143.4564,,0,27,27,99,1,100,ilave,3173,144.1685,2619,0.2863,5,notharmonic,1.85,word,m,,,,,,,
,,,,,,,,,,,,001,2023-11-09_13h36.23.977,vowel_harmony,2023.2.3,MacIntel,30.00120005,143.4569,144.4563,,,,,,,,,,,,,,,,,,,,,,,,,,144.4564,144.9559,z,0,0.4785,,144.956,144.9561,,0,28,28,42,1,43,ürün,2268,103.0489,1954,0.2136,4,harmonic,1.1,word,m,,,,,,,
,,,,,,,,,,,,001,2023-11-09_13h36.23.977,vowel_harmony,2023.2.3,MacIntel,30.00120005,144.9563,145.9572,,,,,,,,,,,,,,,,,,,,,,,,,,145.9572,146.5225,m,1,0.5499,,146.5226,146.5227,,0,29,29,70,1,71,yarın,3440,156.3,3222,0.3522,5,harmonic,1.85,word,m,,,,,,,
,,,,,,,,,,,,001,2023-11-09_13h36.23.977,vowel_harmony,2023.2.3,MacIntel,30.00120005,146.5231,147.5236,,,,,,,,,,,,,,,,,,,,,,,,,,147.5236,148.0245,m,1,0.4779,,148.0246,148.0247,,0,30,30,104,1,105,cevap,5232,237.7213,4822,0.5271,5,notharmonic,1.85,word,m,,,,,,,
,,,,,,,,,,,,001,2023-11-09_13h36.23.977,vowel_harmony,2023.2.3,MacIntel,30.00120005,148.0249,149.0214,,,,,,,,,,,,,,,,,,,,,,,,,,149.0215,149.6541,z,1,0.5967,,149.6542,149.6542,,0,31,31,334,1,335,işgan,,,,,5,notharmonic,1.95,nw,z,,,,,,,
,,,,,,,,,,,,001,2023-11-09_13h36.23.977,vowel_harmony,2023.2.3,MacIntel,30.00120005,149.6545,150.6553,,,,,,,,,,,,,,,,,,,,,,,,,,150.6554,151.2217,z,1,0.5512,,151.2217,151.2218,,0,32,32,247,1,248,hafgın,,,,,6,harmonic,2,nw,z,,,,,,,
,,,,,,,,,,,,001,2023-11-09_13h36.23.977,vowel_harmony,2023.2.3,MacIntel,30.00120005,151.2223,152.2221,,,,,,,,,,,,,,,,,,,,,,,,,,152.2221,152.757,m,0,0.5214,,152.757,152.7571,,0,33,33,266,1,267,düştön,,,,,6,harmonic,1.9,nw,z,,,,,,,
,,,,,,,,,,,,001,2023-11-09_13h36.23.977,vowel_harmony,2023.2.3,MacIntel,30.00120005,152.7574,153.7566,,,,,,,,,,,,,,,,,,,,,,,,,,153.7566,154.3578,z,1,0.5663,,154.3578,154.3579,,0,34,34,356,1,357,mergun,,,,,6,notharmonic,1.95,nw,z,,,,,,,
,,,,,,,,,,,,001,2023-11-09_13h36.23.977,vowel_harmony,2023.2.3,MacIntel,30.00120005,154.3583,155.357,,,,,,,,,,,,,,,,,,,,,,,,,,155.3572,155.8213,m,1,0.4283,,155.8213,155.8215,,0,35,35,173,1,174,sade,1193,54.2052,1114,0.1218,4,notharmonic,1.55,word,m,,,,,,,
,,,,,,,,,,,,001,2023-11-09_13h36.23.977,vowel_harmony,2023.2.3,MacIntel,30.00120005,155.8219,156.8251,,,,,,,,,,,,,,,,,,,,,,,,,,156.8251,157.3923,m,1,0.5258,,157.3924,157.3925,,0,36,36,103,1,104,tane,5623,255.4868,5075,0.5548,4,notharmonic,1.3,word,m,,,,,,,
,,,,,,,,,,,,001,2023-11-09_13h36.23.977,vowel_harmony,2023.2.3,MacIntel,30.00120005,157.3929,158.39,,,,,,,,,,,,,,,,,,,,,,,,,,158.3901,158.991,m,1,0.5846,,158.991,158.9911,,0,37,37,93,1,94,siyah,2944,133.7637,2527,0.2763,5,notharmonic,1.6,word,m,,,,,,,
,,,,,,,,,,,,001,2023-11-09_13h36.23.977,vowel_harmony,2023.2.3,MacIntel,30.00120005,158.9914,159.9911,,,,,,,,,,,,,,,,,,,,,,,,,,159.9912,160.4885,z,1,0.4784,,160.4885,160.4886,,0,38,38,201,1,202,ergiy,,,,,5,harmonic,1.85,nw,z,,,,,,,
,,,,,,,,,,,,001,2023-11-09_13h36.23.977,vowel_harmony,2023.2.3,MacIntel,30.00120005,160.489,161.4887,,,,,,,,,,,,,,,,,,,,,,,,,,161.4887,161.9932,z,0,0.4644,,161.9933,161.9933,,0,39,39,62,1,63,cümle,1911,86.8283,1765,0.193,5,harmonic,1.85,word,m,,,,,,,
,,,,,,,,,,,,001,2023-11-09_13h36.23.977,vowel_harmony,2023.2.3,MacIntel,30.00120005,161.9938,162.9906,,,,,,,,,,,,,,,,,,,,,,,,,,162.9906,163.4244,z,0,0.3943,,163.4244,163.4245,,0,40,40,128,1,129,tatil,2152,97.7783,1865,0.2039,5,notharmonic,1.7,word,m,,,,,,,
,,,,,,,,,,,,001,2023-11-09_13h36.23.977,vowel_harmony,2023.2.3,MacIntel,30.00120005,163.4249,164.4243,,,,,,,,,,,,,,,,,,,,,,,,,,164.4244,164.8557,m,0,0.4126,,164.8558,164.8558,,0,41,41,275,1,276,tahçe,,,,,5,notharmonic,1.95,nw,z,,,,,,,
,,,,,,,,,,,,001,2023-11-09_13h36.23.977,vowel_harmony,2023.2.3,MacIntel,30.00120005,164.8562,165.8555,,,,,,,,,,,,,,,,,,,,,,,,,,165.8556,166.392,m,1,0.5127,,166.392,166.392,,0,42,42,108,1,109,tarih,2806,127.4935,2483,0.2714,5,notharmonic,1.55,word,m,,,,,,,
,,,,,,,,,,,,001,2023-11-09_13h36.23.977,vowel_harmony,2023.2.3,MacIntel,30.00120005,166.3924,167.3921,,,,,,,,,,,,,,,,,,,,,,,,,,167.3922,167.9585,m,1,0.5362,,167.9586,167.9587,,0,43,43,155,1,156,ilaç,1366,62.0656,1215,0.1328,4,notharmonic,1.75,word,m,,,,,,,
,,,,,,,,,,,,001,2023-11-09_13h36.23.977,vowel_harmony,2023.2.3,MacIntel,30.00120005,167.959,168.9572,,,,,,,,,,,,,,,,,,,,,,,,,,168.9572,169.5918,m,0,0.5932,,169.5919,169.592,,0,44,44,347,1,348,tekram,,,,,6,notharmonic,1.95,nw,z,,,,,,,
,,,,,,,,,,,,001,2023-11-09_13h36.23.977,vowel_harmony,2023.2.3,MacIntel,30.00120005,169.5925,170.5896,,,,,,,,,,,,,,,,,,,,,,,,,,170.5897,171.1235,z,1,0.508,,171.1236,171.1236,,0,45,45,309,1,310,yorgen,,,,,6,notharmonic,1.9,nw,z,,,,,,,
,,,,,,,,,,,,001,2023-11-09_13h36.23.977,vowel_harmony,2023.2.3,MacIntel,30.00120005,171.124,172.1251,,,,,,,,,,,,,,,,,,,,,,,,,,172.1251,172.6235,z,1,0.4736,,172.6235,172.6236,,0,46,46,226,1,227,tefem,,,,,5,harmonic,1.75,nw,z,,,,,,,
,,,,,,,,,,,,001,2023-11-09_13h36.23.977,vowel_harmony,2023.2.3,MacIntel,30.00120005,172.6238,173.6227,,,,,,,,,,,,,,,,,,,,,,,,,,173.6227,174.1553,m,0,0.5141,,174.1554,174.1555,,0,47,47,211,1,212,yarum,,,,,5,harmonic,1.75,nw,z,,,,,,,
,,,,,,,,,,,,001,2023-11-09_13h36.23.977,vowel_harmony,2023.2.3,MacIntel,30.00120005,174.1558,175.1568,,,,,,,,,,,,,,,,,,,,,,,,,,175.1568,175.7594,z,1,0.5609,,175.7594,175.7594,,0,48,48,323,1,324,devak,,,,,5,notharmonic,1.75,nw,z,,,,,,,
,,,,,,,,,,,,001,2023-11-09_13h36.23.977,vowel_harmony,2023.2.3,MacIntel,30.00120005,175.7597,176.7584,,,,,,,,,,,,,,,,,,,,,,,,,,176.7585,177.2912,m,1,0.5151,,177.2913,177.2914,,0,49,49,90,1,91,tarif,2834,128.7657,2611,0.2854,5,notharmonic,1.5,word,m,,,,,,,
,,,,,,,,,,,,001,2023-11-09_13h36.23.977,vowel_harmony,2023.2.3,MacIntel,30.00120005,177.2917,178.2916,,,,,,,,,,,,,,,,,,,,,,,,,,178.2916,178.858,z,1,0.5437,,178.858,178.8581,,0,50,50,259,1,260,hayuk,,,,,5,harmonic,1.95,nw,z,,,,,,,
,,,,,,,,,,,,001,2023-11-09_13h36.23.977,vowel_harmony,2023.2.3,MacIntel,30.00120005,178.8584,179.8594,,,,,,,,,,,,,,,,,,,,,,,,,,179.8595,180.3932,z,1,0.503,,180.3933,180.3934,,0,51,51,332,1,333,tahane,,,,,6,notharmonic,1.85,nw,z,,,,,,,
,,,,,,,,,,,,001,2023-11-09_13h36.23.977,vowel_harmony,2023.2.3,MacIntel,30.00120005,180.3937,181.3903,,,,,,,,,,,,,,,,,,,,,,,,,,181.3903,181.8893,z,0,0.4803,,181.8893,181.8894,,0,52,52,39,1,40,yaygın,1061,48.2076,1019,0.1114,6,harmonic,1.35,word,m,,,,,,,
,,,,,,,,,,,,001,2023-11-09_13h36.23.977,vowel_harmony,2023.2.3,MacIntel,30.00120005,181.8896,182.8896,,,,,,,,,,,,,,,,,,,,,,,,,,182.8897,183.3556,z,1,0.4464,,183.3557,183.3557,,0,53,53,268,1,269,haldum,,,,,6,harmonic,2,nw,z,,,,,,,
,,,,,,,,,,,,001,2023-11-09_13h36.23.977,vowel_harmony,2023.2.3,MacIntel,30.00120005,183.3559,184.3571,,,,,,,,,,,,,,,,,,,,,,,,,,184.3572,184.7586,z,1,0.384,,184.7587,184.7587,,0,54,54,287,1,288,haköm,,,,,5,notharmonic,1.9,nw,z,,,,,,,
,,,,,,,,,,,,001,2023-11-09_13h36.23.977,vowel_harmony,2023.2.3,MacIntel,30.00120005,184.759,185.7577,,,,,,,,,,,,,,,,,,,,,,,,,,185.7578,186.2894,z,1,0.5124,,186.2894,186.2894,,0,55,55,352,1,353,yılden,,,,,6,notharmonic,1.8,nw,z,,,,,,,
,,,,,,,,,,,,001,2023-11-09_13h36.23.977,vowel_harmony,2023.2.3,MacIntel,30.00120005,186.2897,187.2918,,,,,,,,,,,,,,,,,,,,,,,,,,187.2918,187.7902,z,1,0.4761,,187.7902,187.7903,,0,56,56,280,1,281,adalek,,,,,6,notharmonic,1.85,nw,z,,,,,,,
,,,,,,,,,,,,001,2023-11-09_13h36.23.977,vowel_harmony,2023.2.3,MacIntel,30.00120005,187.7906,188.7916,,,,,,,,,,,,,,,,,,,,,,,,,,188.7916,189.3267,z,1,0.4929,,189.3268,189.3268,,0,57,57,277,1,278,balsin,,,,,6,notharmonic,1.85,nw,z,,,,,,,
,,,,,,,,,,,,001,2023-11-09_13h36.23.977,vowel_harmony,2023.2.3,MacIntel,30.00120005,189.3273,190.3031,,,,,,,,,,,,,,,,,,,,,,,,,,190.3031,190.793,m,1,0.4718,,190.7931,190.7931,,0,58,58,84,1,85,ülke,3121,141.8059,2801,0.3062,4,harmonic,1.65,word,m,,,,,,,
,,,,,,,,,,,,001,2023-11-09_13h36.23.977,vowel_harmony,2023.2.3,MacIntel,30.00120005,190.7934,191.7923,,,,,,,,,,,,,,,,,,,,,,,,,,191.7923,192.2919,z,1,0.471,,192.2919,192.292,,0,59,59,265,1,266,parula,,,,,6,harmonic,1.75,nw,z,,,,,,,
,,,,,,,,,,,,001,2023-11-09_13h36.23.977,vowel_harmony,2023.2.3,MacIntel,30.00120005,192.2923,193.2929,,,,,,,,,,,,,,,,,,,,,,,,,,193.2929,193.7598,m,1,0.4319,,193.7599,193.76,,0,60,60,171,1,172,reklam,1565,71.1074,1244,0.136,6,notharmonic,1.9,word,m,,,,,,,
,,,,,,,,,,,,001,2023-11-09_13h36.23.977,vowel_harmony,2023.2.3,MacIntel,30.00120005,193.7604,194.7565,,,,,,,,,,,,,,,,,,,,,,,,,,194.7565,195.2914,m,1,0.5054,,195.2915,195.2915,,0,61,61,89,1,90,etki,1234,56.0681,1169,0.1278,4,harmonic,1.4,word,m,,,,,,,
,,,,,,,,,,,,001,2023-11-09_13h36.23.977,vowel_harmony,2023.2.3,MacIntel,30.00120005,195.2919,196.2903,,,,,,,,,,,,,,,,,,,,,,,,,,196.2904,196.7612,z,1,0.4352,,196.7613,196.7613,,0,62,62,250,1,251,kakuk,,,,,5,harmonic,1.9,nw,z,,,,,,,
,,,,,,,,,,,,001,2023-11-09_13h36.23.977,vowel_harmony,2023.2.3,MacIntel,30.00120005,196.7617,197.7606,,,,,,,,,,,,,,,,,,,,,,,,,,197.7607,198.293,z,1,0.4915,,198.2931,198.2932,,0,63,63,330,1,331,vahçe,,,,,5,notharmonic,1.9,nw,z,,,,,,,
,,,,,,,,,,,,001,2023-11-09_13h36.23.977,vowel_harmony,2023.2.3,MacIntel,30.00120005,198.2936,199.2915,,,,,,,,,,,,,,,,,,,,,,,,,,199.2916,199.7609,m,1,0.4316,,199.761,199.7611,,0,64,64,0,1,1,sanat,3121,141.8059,2485,0.2717,5,harmonic,1.4,word,m,,,,,,,
,,,,,,,,,,,,001,2023-11-09_13h36.23.977,vowel_harmony,2023.2.3,MacIntel,30.00120005,199.7616,200.7582,,,,,,,,,,,,,,,,,,,,,,,,,,200.7582,201.2939,z,1,0.4948,,201.294,201.2941,,0,65,65,245,1,246,bıyan,,,,,5,harmonic,1.7,nw,z,,,,,,,
,,,,,,,,,,,,001,2023-11-09_13h36.23.977,vowel_harmony,2023.2.3,MacIntel,30.00120005,201.2946,202.2902,,,,,,,,,,,,,,,,,,,,,,,,,,202.2904,202.7239,z,1,0.4155,,202.724,202.7241,,0,66,66,343,1,344,tarne,,,,,5,notharmonic,1.85,nw,z,,,,,,,
,,,,,,,,,,,,001,2023-11-09_13h36.23.977,vowel_harmony,2023.2.3,MacIntel,30.00120005,202.7245,203.7235,,,,,,,,,,,,,,,,,,,,,,,,,,203.7235,204.2251,m,0,0.4804,,204.2252,204.2252,,0,67,67,303,1,304,fisor,,,,,5,notharmonic,1.9,nw,z,,,,,,,
,,,,,,,,,,,,001,2023-11-09_13h36.23.977,vowel_harmony,2023.2.3,MacIntel,30.00120005,204.2254,205.2243,,,,,,,,,,,,,,,,,,,,,,,,,,205.2243,205.6933,z,1,0.431,,205.6934,205.6935,,0,68,68,253,1,254,meslet,,,,,6,harmonic,1.85,nw,z,,,,,,,
,,,,,,,,,,,,001,2023-11-09_13h36.23.977,vowel_harmony,2023.2.3,MacIntel,30.00120005,205.6939,206.6915,,,,,,,,,,,,,,,,,,,,,,,,,,206.6915,207.1925,z,1,0.4671,,207.1925,207.1927,,0,69,69,350,1,351,resun,,,,,5,notharmonic,1.85,nw,z,,,,,,,
,,,,,,,,,,,,001,2023-11-09_13h36.23.977,vowel_harmony,2023.2.3,MacIntel,30.00120005,207.1929,208.1919,,,,,,,,,,,,,,,,,,,,,,,,,,208.192,208.6597,z,0,0.4383,,208.6598,208.6598,,0,70,70,106,1,107,esnaf,315,14.3124,284,0.031,5,notharmonic,1.55,word,m,,,,,,,
,,,,,,,,,,,,001,2023-11-09_13h36.23.977,vowel_harmony,2023.2.3,MacIntel,30.00120005,208.6602,209.6593,,,,,,,,,,,,,,,,,,,,,,,,,,209.6593,210.3271,m,1,0.6461,,210.3272,210.3273,,0,71,71,120,1,121,ihmal,1002,45.5269,977,0.1068,5,notharmonic,1.65,word,m,,,,,,,
,,,,,,,,,,,,001,2023-11-09_13h36.23.977,vowel_harmony,2023.2.3,MacIntel,30.00120005,210.3276,211.3241,,,,,,,,,,,,,,,,,,,,,,,,,,211.3242,211.8267,z,1,0.4859,,211.8267,211.8268,,0,72,72,300,1,301,nilgi,,,,,5,notharmonic,1.85,nw,z,,,,,,,
,,,,,,,,,,,,001,2023-11-09_13h36.23.977,vowel_harmony,2023.2.3,MacIntel,30.00120005,211.8271,212.8269,,,,,,,,,,,,,,,,,,,,,,,,,,212.827,213.4276,z,1,0.5612,,213.4276,213.4277,,0,73,73,258,1,259,karıha,,,,,6,harmonic,1.75,nw,z,,,,,,,
,,,,,,,,,,,,001,2023-11-09_13h36.23.977,vowel_harmony,2023.2.3,MacIntel,30.00120005,213.4281,214.4271,,,,,,,,,,,,,,,,,,,,,,,,,,214.4271,214.9268,m,1,0.4608,,214.9269,214.927,,0,74,74,56,1,57,sağlam,1818,82.6027,1720,0.188,6,harmonic,1.6,word,m,,,,,,,
,,,,,,,,,,,,001,2023-11-09_13h36.23.977,vowel_harmony,2023.2.3,MacIntel,30.00120005,214.9274,215.9267,,,,,,,,,,,,,,,,,,,,,,,,,,215.9268,216.3942,z,1,0.4348,,216.3942,216.3942,,0,75,75,269,1,270,vekü,,,,,4,harmonic,2,nw,z,,,,,,,
,,,,,,,,,,,,001,2023-11-09_13h36.23.977,vowel_harmony,2023.2.3,MacIntel,30.00120005,216.3945,217.3918,,,,,,,,,,,,,,,,,,,,,,,,,,217.3918,217.859,z,1,0.4482,,217.859,217.8591,,0,76,76,233,1,234,devpi,,,,,5,harmonic,1.8,nw,z,,,,,,,
,,,,,,,,,,,,001,2023-11-09_13h36.23.977,vowel_harmony,2023.2.3,MacIntel,30.00120005,217.8594,218.8588,,,,,,,,,,,,,,,,,,,,,,,,,,218.8588,219.2595,z,0,0.3733,,219.2596,219.2596,,0,77,77,117,1,118,nasip,1069,48.5711,1042,0.1139,5,notharmonic,1.8,word,m,,,,,,,
,,,,,,,,,,,,001,2023-11-09_13h36.23.977,vowel_harmony,2023.2.3,MacIntel,30.00120005,219.2599,220.2598,,,,,,,,,,,,,,,,,,,,,,,,,,220.2599,220.7275,z,1,0.4291,,220.7276,220.7277,,0,78,78,205,1,206,kahay,,,,,5,harmonic,1.9,nw,z,,,,,,,
,,,,,,,,,,,,001,2023-11-09_13h36.23.977,vowel_harmony,2023.2.3,MacIntel,30.00120005,220.728,221.725,,,,,,,,,,,,,,,,,,,,,,,,,,221.7251,222.2286,m,1,0.4647,,222.2287,222.2288,,0,79,79,157,1,158,aktif,1062,48.2531,986,0.1078,5,notharmonic,1.9,word,m,,,,,,,
,,,,,,,,,,,,001,2023-11-09_13h36.23.977,vowel_harmony,2023.2.3,MacIntel,30.00120005,222.2292,223.2265,,,,,,,,,,,,,,,,,,,,,,,,,,223.2265,223.6923,z,1,0.446,,223.6923,223.6923,,0,80,80,278,1,279,sekon,,,,,5,notharmonic,1.85,nw,z,,,,,,,
,,,,,,,,,,,,001,2023-11-09_13h36.23.977,vowel_harmony,2023.2.3,MacIntel,30.00120005,223.6927,224.6932,,,,,,,,,,,,,,,,,,,,,,,,,,224.6932,225.1237,m,0,0.4127,,225.1237,225.1238,,0,81,81,344,1,345,barika,,,,,6,notharmonic,1.75,nw,z,,,,,,,
,,,,,,,,,,,,001,2023-11-09_13h36.23.977,vowel_harmony,2023.2.3,MacIntel,30.00120005,225.124,226.1258,,,,,,,,,,,,,,,,,,,,,,,,,,226.1259,226.6263,z,0,0.4752,,226.6263,226.6263,,0,82,82,12,1,13,konu,5400,245.3546,5110,0.5586,4,harmonic,1,word,m,,,,,,,
,,,,,,,,,,,,001,2023-11-09_13h36.23.977,vowel_harmony,2023.2.3,MacIntel,30.00120005,226.6266,227.6256,,,,,,,,,,,,,,,,,,,,,,,,,,227.6257,228.1919,m,1,0.5347,,228.192,228.192,,0,83,83,127,1,128,şahane,1153,52.3877,1108,0.1211,6,notharmonic,1.8,word,m,,,,,,,
,,,,,,,,,,,,001,2023-11-09_13h36.23.977,vowel_harmony,2023.2.3,MacIntel,30.00120005,228.1923,229.192,,,,,,,,,,,,,,,,,,,,,,,,,,229.1921,229.6914,m,1,0.4639,,229.6914,229.6915,,0,84,84,68,1,69,ücret,734,33.35,634,0.0693,5,harmonic,1.85,word,m,,,,,,,
,,,,,,,,,,,,001,2023-11-09_13h36.23.977,vowel_harmony,2023.2.3,MacIntel,30.00120005,229.6919,230.6918,,,,,,,,,,,,,,,,,,,,,,,,,,230.6918,231.2587,m,1,0.5472,,231.2588,231.2588,,0,85,85,7,1,8,hizmet,3023,137.3531,2689,0.294,6,harmonic,1.75,word,m,,,,,,,
,,,,,,,,,,,,001,2023-11-09_13h36.23.977,vowel_harmony,2023.2.3,MacIntel,30.00120005,231.2597,232.2592,,,,,,,,,,,,,,,,,,,,,,,,,,232.2592,232.7936,z,1,0.5078,,232.7937,232.7938,,0,86,86,295,1,296,haylin,,,,,6,notharmonic,1.8,nw,z,,,,,,,
,,,,,,,,,,,,001,2023-11-09_13h36.23.977,vowel_harmony,2023.2.3,MacIntel,30.00120005,232.7941,233.7921,,,,,,,,,,,,,,,,,,,,,,,,,,233.7922,234.4908,m,1,0.6741,,234.4909,234.4909,,0,87,87,112,1,113,sezon,2315,105.1844,1917,0.2096,5,notharmonic,1.8,word,m,,,,,,,
,,,,,,,,,,,,001,2023-11-09_13h36.23.977,vowel_harmony,2023.2.3,MacIntel,30.00120005,234.4912,235.4922,,,,,,,,,,,,,,,,,,,,,,,,,,235.4924,235.9259,z,1,0.4158,,235.926,235.926,,0,88,88,272,1,273,daken,,,,,5,notharmonic,1.8,nw,z,,,,,,,
,,,,,,,,,,,,001,2023-11-09_13h36.23.977,vowel_harmony,2023.2.3,MacIntel,30.00120005,235.9263,236.9279,,,,,,,,,,,,,,,,,,,,,,,,,,236.9279,237.4282,m,1,0.4785,,237.4282,237.4282,,0,89,89,78,1,79,ulusal,1551,70.4713,1355,0.1481,6,harmonic,1.75,word,m,,,,,,,
,,,,,,,,,,,,001,2023-11-09_13h36.23.977,vowel_harmony,2023.2.3,MacIntel,30.00120005,237.4285,238.4257,,,,,,,,,,,,,,,,,,,,,,,,,,238.4258,238.96,m,1,0.5201,,238.96,238.9601,,0,90,90,164,1,165,sinema,1575,71.5618,1304,0.1426,6,notharmonic,1.8,word,m,,,,,,,
,,,,,,,,,,,,001,2023-11-09_13h36.23.977,vowel_harmony,2023.2.3,MacIntel,30.00120005,238.9605,239.9599,,,,,,,,,,,,,,,,,,,,,,,,,,239.96,240.5281,m,1,0.5409,,240.5281,240.5281,,0,91,91,92,1,93,sahne,1380,62.7017,1238,0.1353,5,notharmonic,1.65,word,m,,,,,,,
,,,,,,,,,,,,001,2023-11-09_13h36.23.977,vowel_harmony,2023.2.3,MacIntel,30.00120005,240.5285,241.5257,,,,,,,,,,,,,,,,,,,,,,,,,,241.5258,242.0932,m,1,0.5468,,242.0932,242.0933,,0,92,92,11,1,12,umut,1988,90.3268,1818,0.1987,4,harmonic,1.55,word,m,,,,,,,
,,,,,,,,,,,,001,2023-11-09_13h36.23.977,vowel_harmony,2023.2.3,MacIntel,30.00120005,242.0935,243.0924,,,,,,,,,,,,,,,,,,,,,,,,,,243.0924,243.6261,m,1,0.5039,,243.6262,243.6263,,0,93,93,71,1,72,örnek,3463,157.345,3266,0.357,5,harmonic,1.85,word,m,,,,,,,
,,,,,,,,,,,,001,2023-11-09_13h36.23.977,vowel_harmony,2023.2.3,MacIntel,30.00120005,243.6265,244.6275,,,,,,,,,,,,,,,,,,,,,,,,,,244.6276,245.2626,m,1,0.5957,,245.2626,245.2627,,0,94,94,134,1,135,iptal,793,36.0308,725,0.0793,5,notharmonic,1.35,word,m,,,,,,,
,,,,,,,,,,,,001,2023-11-09_13h36.23.977,vowel_harmony,2023.2.3,MacIntel,30.00120005,245.263,246.2618,,,,,,,,,,,,,,,,,,,,,,,,,,246.2619,246.7624,z,1,0.4606,,246.7624,246.7625,,0,95,95,320,1,321,finak,,,,,5,notharmonic,1.85,nw,z,,,,,,,
,,,,,,,,,,,,001,2023-11-09_13h36.23.977,vowel_harmony,2023.2.3,MacIntel,30.00120005,246.763,247.7608,,,,,,,,,,,,,,,,,,,,,,,,,,247.7608,248.2935,m,1,0.5138,,248.2936,248.2936,,0,96,96,170,1,171,basit,3385,153.801,3177,0.3473,5,notharmonic,1.65,word,m,,,,,,,
,,,,,,,,,,,,001,2023-11-09_13h36.23.977,vowel_harmony,2023.2.3,MacIntel,30.00120005,248.2939,249.2927,,,,,,,,,,,,,,,,,,,,,,,,,,249.2927,249.7948,m,1,0.4895,,249.7948,249.7949,,0,97,97,76,1,77,ilişki,1675,76.1054,1524,0.1666,6,harmonic,1.8,word,m,,,,,,,
,,,,,,,,,,,,001,2023-11-09_13h36.23.977,vowel_harmony,2023.2.3,MacIntel,30.00120005,249.7953,250.7954,,,,,,,,,,,,,,,,,,,,,,,,,,250.7955,251.2615,z,1,0.4469,,251.2616,251.2617,,0,98,98,246,1,247,orkın,,,,,5,harmonic,1.9,nw,z,,,,,,,
,,,,,,,,,,,,001,2023-11-09_13h36.23.977,vowel_harmony,2023.2.3,MacIntel,30.00120005,251.262,252.2637,,,,,,,,,,,,,,,,,,,,,,,,,,252.2637,252.7297,z,0,0.4295,,252.7297,252.7298,,0,99,99,119,1,120,kulüp,649,29.488,467,0.0511,5,notharmonic,1.4,word,m,,,,,,,
,,,,,,,,,,,,001,2023-11-09_13h36.23.977,vowel_harmony,2023.2.3,MacIntel,30.00120005,252.7303,253.7268,,,,,,,,,,,,,,,,,,,,,,,,,,253.7269,254.1926,m,1,0.4526,,254.1926,254.1927,,0,100,100,95,1,96,takip,4996,226.9984,4651,0.5084,5,notharmonic,1.55,word,m,,,,,,,
,,,,,,,,,,,,001,2023-11-09_13h36.23.977,vowel_harmony,2023.2.3,MacIntel,30.00120005,254.1931,255.1923,,,,,,,,,,,,,,,,,,,,,,,,,,255.1924,255.7603,z,0,0.5317,,255.7604,255.7605,,0,101,101,64,1,65,lise,888,40.3472,816,0.0892,4,harmonic,1.5,word,m,,,,,,,
,,,,,,,,,,,,001,2023-11-09_13h36.23.977,vowel_harmony,2023.2.3,MacIntel,30.00120005,255.761,256.7634,,,,,,,,,,,,,,,,,,,,,,,,,,256.7635,257.3926,z,1,0.5914,,257.3926,257.3928,,0,102,102,321,1,322,makih,,,,,5,notharmonic,1.8,nw,z,,,,,,,
,,,,,,,,,,,,001,2023-11-09_13h36.23.977,vowel_harmony,2023.2.3,MacIntel,30.00120005,257.3932,258.3946,,,,,,,,,,,,,,,,,,,,,,,,,,258.3946,258.827,m,0,0.3974,,258.827,258.8271,,0,103,103,273,1,274,nimal,,,,,5,notharmonic,1.9,nw,z,,,,,,,
,,,,,,,,,,,,001,2023-11-09_13h36.23.977,vowel_harmony,2023.2.3,MacIntel,30.00120005,258.8276,259.8284,,,,,,,,,,,,,,,,,,,,,,,,,,259.8285,260.193,z,0,0.3478,,260.1931,260.1932,,0,104,104,55,1,56,akıl,2208,100.3228,2004,0.2191,4,harmonic,1,word,m,,,,,,,
,,,,,,,,,,,,001,2023-11-09_13h36.23.977,vowel_harmony,2023.2.3,MacIntel,30.00120005,260.1936,261.193,,,,,,,,,,,,,,,,,,,,,,,,,,261.1931,261.6935,m,1,0.4778,,261.6935,261.6935,,0,105,105,75,1,76,roman,1499,68.1086,1281,0.14,5,harmonic,1.6,word,m,,,,,,,
,,,,,,,,,,,,001,2023-11-09_13h36.23.977,vowel_harmony,2023.2.3,MacIntel,30.00120005,261.6939,262.6942,,,,,,,,,,,,,,,,,,,,,,,,,,262.6943,263.3597,z,1,0.6519,,263.3598,263.3598,,0,106,106,200,1,201,duşın,,,,,5,harmonic,1.9,nw,z,,,,,,,
,,,,,,,,,,,,001,2023-11-09_13h36.23.977,vowel_harmony,2023.2.3,MacIntel,30.00120005,263.3603,264.3598,,,,,,,,,,,,,,,,,,,,,,,,,,264.3598,264.795,m,1,0.3936,,264.7951,264.7951,,0,107,107,14,1,15,yaşam,4348,197.5559,3918,0.4283,5,harmonic,1.4,word,m,,,,,,,
,,,,,,,,,,,,001,2023-11-09_13h36.23.977,vowel_harmony,2023.2.3,MacIntel,30.00120005,264.7957,265.7942,,,,,,,,,,,,,,,,,,,,,,,,,,265.7943,266.3281,z,1,0.5159,,266.3282,266.3283,,0,108,108,185,1,186,örtin,,,,,5,harmonic,1.9,nw,z,,,,,,,
,,,,,,,,,,,,001,2023-11-09_13h36.23.977,vowel_harmony,2023.2.3,MacIntel,30.00120005,266.3286,267.3276,,,,,,,,,,,,,,,,,,,,,,,,,,267.3276,267.7979,m,1,0.4603,,267.7979,267.7979,,0,109,109,41,1,42,zengin,2193,99.6412,2015,0.2203,6,harmonic,1.65,word,m,,,,,,,
,,,,,,,,,,,,001,2023-11-09_13h36.23.977,vowel_harmony,2023.2.3,MacIntel,30.00120005,267.7984,268.7958,,,,,,,,,,,,,,,,,,,,,,,,,,268.7958,269.2962,z,1,0.4637,,269.2964,269.2964,,0,110,110,227,1,228,zekö,,,,,4,harmonic,1.9,nw,z,,,,,,,
,,,,,,,,,,,,001,2023-11-09_13h36.23.977,vowel_harmony,2023.2.3,MacIntel,30.00120005,269.2969,270.2949,,,,,,,,,,,,,,,,,,,,,,,,,,270.295,270.7608,z,1,0.4501,,270.7609,270.7609,,0,111,111,288,1,289,molit,,,,,5,notharmonic,1.95,nw,z,,,,,,,
,,,,,,,,,,,,001,2023-11-09_13h36.23.977,vowel_harmony,2023.2.3,MacIntel,30.00120005,270.7612,271.7631,,,,,,,,,,,,,,,,,,,,,,,,,,271.7631,272.2936,z,1,0.5117,,272.2936,272.2936,,0,112,112,207,1,208,örtre,,,,,5,harmonic,1.85,nw,z,,,,,,,
,,,,,,,,,,,,001,2023-11-09_13h36.23.977,vowel_harmony,2023.2.3,MacIntel,30.00120005,272.2939,273.2957,,,,,,,,,,,,,,,,,,,,,,,,,,273.2957,273.7637,m,1,0.4274,,273.7638,273.7638,,0,113,113,91,1,92,ifade,6177,280.6584,5726,0.626,5,notharmonic,1.7,word,m,,,,,,,
,,,,,,,,,,,,001,2023-11-09_13h36.23.977,vowel_harmony,2023.2.3,MacIntel,30.00120005,273.7643,274.7601,,,,,,,,,,,,,,,,,,,,,,,,,,274.7602,275.2937,m,1,0.5171,,275.2937,275.2938,,0,114,114,79,1,80,durum,6783,308.1926,6431,0.703,5,harmonic,1.7,word,m,,,,,,,
,,,,,,,,,,,,001,2023-11-09_13h36.23.977,vowel_harmony,2023.2.3,MacIntel,30.00120005,275.2941,276.2947,,,,,,,,,,,,,,,,,,,,,,,,,,276.2947,276.8318,z,1,0.4952,,276.8319,276.832,,0,115,115,297,1,298,sapet,,,,,5,notharmonic,1.85,nw,z,,,,,,,
,,,,,,,,,,,,001,2023-11-09_13h36.23.977,vowel_harmony,2023.2.3,MacIntel,30.00120005,276.8324,277.8278,,,,,,,,,,,,,,,,,,,,,,,,,,277.8278,278.2296,z,1,0.3805,,278.2296,278.2297,,0,116,116,318,1,319,yorgün,,,,,6,notharmonic,1.9,nw,z,,,,,,,
,,,,,,,,,,,,001,2023-11-09_13h36.23.977,vowel_harmony,2023.2.3,MacIntel,30.00120005,278.23,279.229,,,,,,,,,,,,,,,,,,,,,,,,,,279.2291,279.7301,m,1,0.484,,279.7301,279.7302,,0,117,117,29,1,30,huzur,1911,86.8283,1799,0.1967,5,harmonic,1.8,word,m,,,,,,,
,,,,,,,,,,,,001,2023-11-09_13h36.23.977,vowel_harmony,2023.2.3,MacIntel,30.00120005,279.7305,280.7301,,,,,,,,,,,,,,,,,,,,,,,,,,280.7302,281.2636,z,1,0.4931,,281.2637,281.2639,,0,118,118,345,1,346,bardeş,,,,,6,notharmonic,1.95,nw,z,,,,,,,
,,,,,,,,,,,,001,2023-11-09_13h36.23.977,vowel_harmony,2023.2.3,MacIntel,30.00120005,281.2643,282.2623,,,,,,,,,,,,,,,,,,,,,,,,,,282.2624,282.6967,z,0,0.3934,,282.6967,282.6968,,0,119,119,125,1,126,ikna,1276,57.9764,1173,0.1282,4,notharmonic,1.85,word,m,,,,,,,
,,,,,,,,,,,,001,2023-11-09_13h36.23.977,vowel_harmony,2023.2.3,MacIntel,30.00120005,282.6971,283.6942,,,,,,,,,,,,,,,,,,,,,,,,,,283.6942,284.2302,m,1,0.5249,,284.2302,313.2659,space,0,120,120,118,1,119,meşhur,1092,49.6161,1057,0.1156,6,notharmonic,1.9,word,m,28.9963,,,,,,
,,,,,,,,,,,,001,2023-11-09_13h36.23.977,vowel_harmony,2023.2.3,MacIntel,30.00120005,313.2665,314.2619,,,,,,,,,,,,,,,,,,,,,,,,,,314.2619,314.7307,m,1,0.4547,,314.7307,314.7308,,0,121,121,74,1,75,başarı,1398,63.5196,1300,0.1421,6,harmonic,1.2,word,m,,,,,,,
,,,,,,,,,,,,001,2023-11-09_13h36.23.977,vowel_harmony,2023.2.3,MacIntel,30.00120005,314.7311,315.7286,,,,,,,,,,,,,,,,,,,,,,,,,,315.7287,316.2629,m,0,0.5178,,316.263,316.263,,0,122,122,313,1,314,ikas,,,,,4,notharmonic,1.85,nw,z,,,,,,,
,,,,,,,,,,,,001,2023-11-09_13h36.23.977,vowel_harmony,2023.2.3,MacIntel,30.00120005,316.2634,317.2631,,,,,,,,,,,,,,,,,,,,,,,,,,317.2632,317.7664,m,1,0.4695,,317.7665,317.7667,,0,123,123,80,1,81,merkez,1445,65.6551,1255,0.1372,6,harmonic,1.8,word,m,,,,,,,
,,,,,,,,,,,,001,2023-11-09_13h36.23.977,vowel_harmony,2023.2.3,MacIntel,30.00120005,317.767,318.7627,,,,,,,,,,,,,,,,,,,,,,,,,,318.7628,319.1643,z,1,0.3722,,319.1643,319.1644,,0,124,124,274,1,275,pisan,,,,,5,notharmonic,1.75,nw,z,,,,,,,
,,,,,,,,,,,,001,2023-11-09_13h36.23.977,vowel_harmony,2023.2.3,MacIntel,30.00120005,319.1646,320.1662,,,,,,,,,,,,,,,,,,,,,,,,,,320.1662,320.6308,m,1,0.4255,,320.6309,320.631,,0,125,125,146,1,147,mavi,2206,100.2319,1934,0.2114,4,notharmonic,1.45,word,m,,,,,,,
,,,,,,,,,,,,001,2023-11-09_13h36.23.977,vowel_harmony,2023.2.3,MacIntel,30.00120005,320.6314,321.6317,,,,,,,,,,,,,,,,,,,,,,,,,,321.6317,322.2289,z,1,0.57,,322.229,322.2291,,0,126,126,237,1,238,taşal,,,,,5,harmonic,1.8,nw,z,,,,,,,
,,,,,,,,,,,,001,2023-11-09_13h36.23.977,vowel_harmony,2023.2.3,MacIntel,30.00120005,322.2293,323.2299,,,,,,,,,,,,,,,,,,,,,,,,,,323.2299,323.7654,z,1,0.5189,,323.7654,323.7654,,0,127,127,206,1,207,bevek,,,,,5,harmonic,1.75,nw,z,,,,,,,
,,,,,,,,,,,,001,2023-11-09_13h36.23.977,vowel_harmony,2023.2.3,MacIntel,30.00120005,323.7658,324.7665,,,,,,,,,,,,,,,,,,,,,,,,,,324.7666,325.2665,z,1,0.4589,,325.2666,325.2666,,0,128,128,335,1,336,lilo,,,,,4,notharmonic,1.8,nw,z,,,,,,,
,,,,,,,,,,,,001,2023-11-09_13h36.23.977,vowel_harmony,2023.2.3,MacIntel,30.00120005,325.2671,326.2633,,,,,,,,,,,,,,,,,,,,,,,,,,326.2634,326.6633,z,1,0.3865,,326.6634,326.6635,,0,129,129,190,1,191,reklen,,,,,6,harmonic,1.8,nw,z,,,,,,,
,,,,,,,,,,,,001,2023-11-09_13h36.23.977,vowel_harmony,2023.2.3,MacIntel,30.00120005,326.6639,327.6636,,,,,,,,,,,,,,,,,,,,,,,,,,327.6637,328.1306,z,1,0.4562,,328.1306,328.1307,,0,130,130,354,1,355,taden,,,,,5,notharmonic,1.7,nw,z,,,,,,,
,,,,,,,,,,,,001,2023-11-09_13h36.23.977,vowel_harmony,2023.2.3,MacIntel,30.00120005,328.1311,329.131,,,,,,,,,,,,,,,,,,,,,,,,,,329.1311,329.5628,m,1,0.4127,,329.5628,329.5629,,0,131,131,18,1,19,normal,4154,188.7413,3788,0.4141,6,harmonic,1.75,word,m,,,,,,,
,,,,,,,,,,,,001,2023-11-09_13h36.23.977,vowel_harmony,2023.2.3,MacIntel,30.00120005,329.5633,330.5628,,,,,,,,,,,,,,,,,,,,,,,,,,330.5628,331.0629,z,0,0.4873,,331.0629,331.063,,0,132,132,25,1,26,rapor,703,31.9415,617,0.0675,5,harmonic,1.8,word,m,,,,,,,
,,,,,,,,,,,,001,2023-11-09_13h36.23.977,vowel_harmony,2023.2.3,MacIntel,30.00120005,331.0634,332.063,,,,,,,,,,,,,,,,,,,,,,,,,,332.0631,332.5291,m,1,0.4321,,332.5292,332.5293,,0,133,133,143,1,144,kitap,8359,379.7998,6786,0.7418,5,notharmonic,1.9,word,m,,,,,,,
,,,,,,,,,,,,001,2023-11-09_13h36.23.977,vowel_harmony,2023.2.3,MacIntel,30.00120005,332.5296,333.5313,,,,,,,,,,,,,,,,,,,,,,,,,,333.5314,334.0317,z,1,0.479,,334.0318,334.0318,,0,134,134,310,1,311,yandeş,,,,,6,notharmonic,1.95,nw,z,,,,,,,
,,,,,,,,,,,,001,2023-11-09_13h36.23.977,vowel_harmony,2023.2.3,MacIntel,30.00120005,334.0321,335.0291,,,,,,,,,,,,,,,,,,,,,,,,,,335.0292,335.5295,m,1,0.4665,,335.5295,335.5297,,0,135,135,10,1,11,bardak,1728,78.5135,1569,0.1715,6,harmonic,1.6,word,m,,,,,,,
,,,,,,,,,,,,001,2023-11-09_13h36.23.977,vowel_harmony,2023.2.3,MacIntel,30.00120005,335.5301,336.5316,,,,,,,,,,,,,,,,,,,,,,,,,,336.5316,336.968,z,1,0.3937,,336.968,336.9681,,0,136,136,217,1,218,sanfız,,,,,6,harmonic,1.85,nw,z,,,,,,,
,,,,,,,,,,,,001,2023-11-09_13h36.23.977,vowel_harmony,2023.2.3,MacIntel,30.00120005,336.9686,337.9668,,,,,,,,,,,,,,,,,,,,,,,,,,337.9668,338.3665,m,1,0.366,,338.3666,338.3667,,0,137,137,45,1,46,bilgi,5981,271.7529,5353,0.5852,5,harmonic,1.5,word,m,,,,,,,
,,,,,,,,,,,,001,2023-11-09_13h36.23.977,vowel_harmony,2023.2.3,MacIntel,30.00120005,338.3671,339.3635,,,,,,,,,,,,,,,,,,,,,,,,,,339.3636,339.8633,z,1,0.4812,,339.8633,339.8634,,0,138,138,290,1,291,aipa,,,,,4,notharmonic,1.95,nw,z,,,,,,,
,,,,,,,,,,,,001,2023-11-09_13h36.23.977,vowel_harmony,2023.2.3,MacIntel,30.00120005,339.8638,340.8491,,,,,,,,,,,,,,,,,,,,,,,,,,340.8491,341.3495,m,1,0.4684,,341.3495,341.3495,,0,139,139,132,1,133,modern,2326,105.6842,2031,0.222,6,notharmonic,1.85,word,m,,,,,,,
,,,,,,,,,,,,001,2023-11-09_13h36.23.977,vowel_harmony,2023.2.3,MacIntel,30.00120005,341.3499,342.3474,,,,,,,,,,,,,,,,,,,,,,,,,,342.3475,342.8473,m,1,0.4821,,342.8475,342.8475,,0,140,140,43,1,44,geniş,3380,153.5738,3185,0.3482,5,harmonic,1.35,word,m,,,,,,,
,,,,,,,,,,,,001,2023-11-09_13h36.23.977,vowel_harmony,2023.2.3,MacIntel,30.00120005,342.8477,343.8509,,,,,,,,,,,,,,,,,,,,,,,,,,343.851,344.3147,m,0,0.4318,,344.3147,344.3149,,0,141,141,257,1,258,zerü,,,,,4,harmonic,1.8,nw,z,,,,,,,
,,,,,,,,,,,,001,2023-11-09_13h36.23.977,vowel_harmony,2023.2.3,MacIntel,30.00120005,344.3152,345.3152,,,,,,,,,,,,,,,,,,,,,,,,,,345.3153,345.8499,z,1,0.4911,,345.85,345.8501,,0,142,142,231,1,232,norgun,,,,,6,harmonic,1.75,nw,z,,,,,,,
,,,,,,,,,,,,001,2023-11-09_13h36.23.977,vowel_harmony,2023.2.3,MacIntel,30.00120005,345.8505,346.8513,,,,,,,,,,,,,,,,,,,,,,,,,,346.8513,347.2467,z,0,0.367,,347.2468,347.2468,,0,143,143,123,1,124,haber,4559,207.1429,4151,0.4538,5,notharmonic,1.85,word,m,,,,,,,
,,,,,,,,,,,,001,2023-11-09_13h36.23.977,vowel_harmony,2023.2.3,MacIntel,30.00120005,347.2471,348.2498,,,,,,,,,,,,,,,,,,,,,,,,,,348.2499,348.748,m,1,0.4651,,348.7481,348.7481,,0,144,144,51,1,52,ilginç,2803,127.3572,2690,0.2941,6,harmonic,1.8,word,m,,,,,,,
,,,,,,,,,,,,001,2023-11-09_13h36.23.977,vowel_harmony,2023.2.3,MacIntel,30.00120005,348.7483,349.7472,,,,,,,,,,,,,,,,,,,,,,,,,,349.7473,350.2812,m,1,0.5147,,350.2813,350.2813,,0,145,145,115,1,116,saniye,1088,49.4344,984,0.1076,6,notharmonic,1.35,word,m,,,,,,,
,,,,,,,,,,,,001,2023-11-09_13h36.23.977,vowel_harmony,2023.2.3,MacIntel,30.00120005,350.2815,351.2827,,,,,,,,,,,,,,,,,,,,,,,,,,351.2827,351.7843,m,1,0.4812,,351.7843,351.7844,,0,146,146,24,1,25,yorgun,1153,52.3877,1108,0.1211,6,harmonic,1.55,word,m,,,,,,,
,,,,,,,,,,,,001,2023-11-09_13h36.23.977,vowel_harmony,2023.2.3,MacIntel,30.00120005,351.7847,352.7807,,,,,,,,,,,,,,,,,,,,,,,,,,352.7807,353.349,z,1,0.528,,353.3491,353.3491,,0,147,147,218,1,219,tezöl,,,,,5,harmonic,2,nw,z,,,,,,,
,,,,,,,,,,,,001,2023-11-09_13h36.23.977,vowel_harmony,2023.2.3,MacIntel,30.00120005,353.3496,354.3477,,,,,,,,,,,,,,,,,,,,,,,,,,354.3478,354.8465,m,1,0.4827,,354.8466,354.8466,,0,148,148,65,1,66,fikir,2552,115.9528,2413,0.2638,5,harmonic,1.9,word,m,,,,,,,
,,,,,,,,,,,,001,2023-11-09_13h36.23.977,vowel_harmony,2023.2.3,MacIntel,30.00120005,354.8469,355.8479,,,,,,,,,,,,,,,,,,,,,,,,,,355.848,356.3845,z,0,0.4978,,356.3846,356.3846,,0,149,149,2,1,3,radyo,763,34.6677,636,0.0695,5,harmonic,1.85,word,m,,,,,,,
,,,,,,,,,,,,001,2023-11-09_13h36.23.977,vowel_harmony,2023.2.3,MacIntel,30.00120005,356.385,357.3836,,,,,,,,,,,,,,,,,,,,,,,,,,357.3837,357.8821,z,1,0.4782,,357.8821,357.8822,,0,150,150,215,1,216,aydo,,,,,4,harmonic,1.9,nw,z,,,,,,,
,,,,,,,,,,,,001,2023-11-09_13h36.23.977,vowel_harmony,2023.2.3,MacIntel,30.00120005,357.8825,358.8821,,,,,,,,,,,,,,,,,,,,,,,,,,358.8823,359.4489,z,1,0.5545,,359.449,359.4491,,0,151,151,229,1,230,tonam,,,,,5,harmonic,1.8,nw,z,,,,,,,
,,,,,,,,,,,,001,2023-11-09_13h36.23.977,vowel_harmony,2023.2.3,MacIntel,30.00120005,359.4494,360.4476,,,,,,,,,,,,,,,,,,,,,,,,,,360.4477,360.9471,z,1,0.4822,,360.9472,360.9473,,0,152,152,358,1,359,yangin,,,,,6,notharmonic,1.9,nw,z,,,,,,,
,,,,,,,,,,,,001,2023-11-09_13h36.23.977,vowel_harmony,2023.2.3,MacIntel,30.00120005,360.9477,361.9513,,,,,,,,,,,,,,,,,,,,,,,,,,361.9513,362.4158,z,1,0.4355,,362.4159,362.416,,0,153,153,333,1,334,heyran,,,,,6,notharmonic,1.85,nw,z,,,,,,,
,,,,,,,,,,,,001,2023-11-09_13h36.23.977,vowel_harmony,2023.2.3,MacIntel,30.00120005,362.4162,363.4161,,,,,,,,,,,,,,,,,,,,,,,,,,363.4162,363.8514,m,1,0.3922,,363.8515,363.8516,,0,154,154,151,1,152,ateş,2108,95.7792,1803,0.1971,4,notharmonic,1.65,word,m,,,,,,,
,,,,,,,,,,,,001,2023-11-09_13h36.23.977,vowel_harmony,2023.2.3,MacIntel,30.00120005,363.852,364.8502,,,,,,,,,,,,,,,,,,,,,,,,,,364.8503,365.3819,z,1,0.5037,,365.382,365.3821,,0,155,155,291,1,292,mepan,,,,,5,notharmonic,1.75,nw,z,,,,,,,
,,,,,,,,,,,,001,2023-11-09_13h36.23.977,vowel_harmony,2023.2.3,MacIntel,30.00120005,365.3824,366.3809,,,,,,,,,,,,,,,,,,,,,,,,,,366.3809,366.8164,m,1,0.4175,,366.8165,366.8166,,0,156,156,28,1,29,parlak,1142,51.888,1088,0.1189,6,harmonic,1.7,word,m,,,,,,,
,,,,,,,,,,,,001,2023-11-09_13h36.23.977,vowel_harmony,2023.2.3,MacIntel,30.00120005,366.8169,367.8154,,,,,,,,,,,,,,,,,,,,,,,,,,367.8155,368.2486,z,0,0.4002,,368.2486,368.2487,,0,157,157,98,1,99,paket,1532,69.608,1392,0.1522,5,notharmonic,1.55,word,m,,,,,,,
,,,,,,,,,,,,001,2023-11-09_13h36.23.977,vowel_harmony,2023.2.3,MacIntel,30.00120005,368.2491,369.2501,,,,,,,,,,,,,,,,,,,,,,,,,,369.2502,369.7521,m,1,0.4658,,369.7522,369.7523,,0,158,158,172,1,173,milyar,1496,67.9723,1078,0.1178,6,notharmonic,1.85,word,m,,,,,,,
,,,,,,,,,,,,001,2023-11-09_13h36.23.977,vowel_harmony,2023.2.3,MacIntel,30.00120005,369.7528,370.7483,,,,,,,,,,,,,,,,,,,,,,,,,,370.7483,371.2175,m,1,0.4305,,371.2176,371.2178,,0,159,159,16,1,17,yavaş,5087,231.1331,2886,0.3155,5,harmonic,1.6,word,m,,,,,,,
,,,,,,,,,,,,001,2023-11-09_13h36.23.977,vowel_harmony,2023.2.3,MacIntel,30.00120005,371.2182,372.2183,,,,,,,,,,,,,,,,,,,,,,,,,,372.2183,372.7167,m,1,0.4782,,372.7167,372.7168,,0,160,160,110,1,111,rüya,1062,48.2531,937,0.1024,4,notharmonic,1.75,word,m,,,,,,,
,,,,,,,,,,,,001,2023-11-09_13h36.23.977,vowel_harmony,2023.2.3,MacIntel,30.00120005,372.7171,373.7146,,,,,,,,,,,,,,,,,,,,,,,,,,373.7146,374.2495,z,1,0.5152,,374.2496,374.2496,,0,161,161,198,1,199,yarbız,,,,,6,harmonic,1.95,nw,z,,,,,,,
,,,,,,,,,,,,001,2023-11-09_13h36.23.977,vowel_harmony,2023.2.3,MacIntel,30.00120005,374.2499,375.2492,,,,,,,,,,,,,,,,,,,,,,,,,,375.2493,375.7167,m,1,0.4463,,375.7167,375.7168,,0,162,162,59,1,60,köpek,1044,47.4352,901,0.0985,5,harmonic,1.75,word,m,,,,,,,
,,,,,,,,,,,,001,2023-11-09_13h36.23.977,vowel_harmony,2023.2.3,MacIntel,30.00120005,375.7171,376.7177,,,,,,,,,,,,,,,,,,,,,,,,,,376.7178,377.2197,z,1,0.46,,377.2198,377.2199,,0,163,163,240,1,241,hoga,,,,,4,harmonic,1.75,nw,z,,,,,,,
,,,,,,,,,,,,001,2023-11-09_13h36.23.977,vowel_harmony,2023.2.3,MacIntel,30.00120005,377.2204,378.2179,,,,,,,,,,,,,,,,,,,,,,,,,,378.218,378.6812,m,0,0.4451,,378.6812,378.6814,,0,164,164,340,1,341,minya,,,,,5,notharmonic,1.95,nw,z,,,,,,,
,,,,,,,,,,,,001,2023-11-09_13h36.23.977,vowel_harmony,2023.2.3,MacIntel,30.00120005,378.6815,379.6863,,,,,,,,,,,,,,,,,,,,,,,,,,379.6863,380.2165,z,0,0.4905,,380.2166,380.2167,,0,165,165,88,1,89,yalnız,5891,267.6637,5440,0.5947,6,harmonic,1.6,word,m,,,,,,,
,,,,,,,,,,,,001,2023-11-09_13h36.23.977,vowel_harmony,2023.2.3,MacIntel,30.00120005,380.2172,381.2182,,,,,,,,,,,,,,,,,,,,,,,,,,381.2183,381.7492,m,0,0.5139,,381.7493,381.7494,,0,166,166,243,1,244,korguf,,,,,6,harmonic,2,nw,z,,,,,,,
,,,,,,,,,,,,001,2023-11-09_13h36.23.977,vowel_harmony,2023.2.3,MacIntel,30.00120005,381.7497,382.7527,,,,,,,,,,,,,,,,,,,,,,,,,,382.7528,383.283,z,1,0.4933,,383.2831,383.2831,,0,167,167,304,1,305,annö,,,,,4,notharmonic,1.95,nw,z,,,,,,,
,,,,,,,,,,,,001,2023-11-09_13h36.23.977,vowel_harmony,2023.2.3,MacIntel,30.00120005,383.2836,384.2824,,,,,,,,,,,,,,,,,,,,,,,,,,384.2825,384.681,z,1,0.3822,,384.681,384.681,,0,168,168,346,1,347,kidan,,,,,5,notharmonic,1.8,nw,z,,,,,,,
,,,,,,,,,,,,001,2023-11-09_13h36.23.977,vowel_harmony,2023.2.3,MacIntel,30.00120005,384.6813,385.6823,,,,,,,,,,,,,,,,,,,,,,,,,,385.6823,386.1148,m,1,0.4144,,386.1149,386.115,,0,169,169,37,1,38,hayvan,2363,107.3653,1894,0.2071,6,harmonic,1.5,word,m,,,,,,,
,,,,,,,,,,,,001,2023-11-09_13h36.23.977,vowel_harmony,2023.2.3,MacIntel,30.00120005,386.1152,387.1161,,,,,,,,,,,,,,,,,,,,,,,,,,387.1163,387.5833,m,1,0.4503,,387.5833,387.5834,,0,170,170,86,1,87,gerçek,8983,408.1519,8058,0.8809,6,harmonic,1.7,word,m,,,,,,,
,,,,,,,,,,,,001,2023-11-09_13h36.23.977,vowel_harmony,2023.2.3,MacIntel,30.00120005,387.5837,388.5826,,,,,,,,,,,,,,,,,,,,,,,,,,388.5827,389.1193,z,1,0.4968,,389.1193,389.1194,,0,171,171,299,1,300,fihal,,,,,5,notharmonic,1.95,nw,z,,,,,,,
,,,,,,,,,,,,001,2023-11-09_13h36.23.977,vowel_harmony,2023.2.3,MacIntel,30.00120005,389.1198,390.1175,,,,,,,,,,,,,,,,,,,,,,,,,,390.1175,390.5488,m,0,0.4136,,390.5488,390.5488,,0,172,172,325,1,326,garit,,,,,5,notharmonic,1.85,nw,z,,,,,,,
,,,,,,,,,,,,001,2023-11-09_13h36.23.977,vowel_harmony,2023.2.3,MacIntel,30.00120005,390.5491,391.5527,,,,,,,,,,,,,,,,,,,,,,,,,,391.5528,392.049,z,1,0.4699,,392.0491,392.0492,,0,173,173,183,1,184,orkın,,,,,5,harmonic,1.9,nw,z,,,,,,,
,,,,,,,,,,,,001,2023-11-09_13h36.23.977,vowel_harmony,2023.2.3,MacIntel,30.00120005,392.0495,393.0513,,,,,,,,,,,,,,,,,,,,,,,,,,393.0514,393.4858,z,1,0.3978,,393.4859,393.486,,0,174,174,284,1,285,deval,,,,,5,notharmonic,1.75,nw,z,,,,,,,
,,,,,,,,,,,,001,2023-11-09_13h36.23.977,vowel_harmony,2023.2.3,MacIntel,30.00120005,393.4864,394.4851,,,,,,,,,,,,,,,,,,,,,,,,,,394.4852,395.0174,z,1,0.5144,,395.0174,395.0174,,0,175,175,187,1,188,remrin,,,,,6,harmonic,1.9,nw,z,,,,,,,
,,,,,,,,,,,,001,2023-11-09_13h36.23.977,vowel_harmony,2023.2.3,MacIntel,30.00120005,395.0178,396.0179,,,,,,,,,,,,,,,,,,,,,,,,,,396.018,396.5184,z,1,0.4789,,396.5184,396.5185,,0,176,176,262,1,263,sauk,,,,,4,harmonic,1.85,nw,z,,,,,,,
,,,,,,,,,,,,001,2023-11-09_13h36.23.977,vowel_harmony,2023.2.3,MacIntel,30.00120005,396.5187,397.5174,,,,,,,,,,,,,,,,,,,,,,,,,,397.5175,397.9524,m,1,0.404,,397.9524,397.9525,,0,177,177,142,1,143,siyasi,2909,132.1734,2445,0.2673,6,notharmonic,1.8,word,m,,,,,,,
,,,,,,,,,,,,001,2023-11-09_13h36.23.977,vowel_harmony,2023.2.3,MacIntel,30.00120005,397.9528,398.9495,,,,,,,,,,,,,,,,,,,,,,,,,,398.9495,399.4191,m,1,0.449,,399.4191,399.4191,,0,178,178,124,1,125,ilan,1579,71.7435,1499,0.1639,4,notharmonic,1,word,m,,,,,,,
,,,,,,,,,,,,001,2023-11-09_13h36.23.977,vowel_harmony,2023.2.3,MacIntel,30.00120005,399.4194,400.4193,,,,,,,,,,,,,,,,,,,,,,,,,,400.4194,400.9184,m,1,0.4871,,400.9185,400.9186,,0,179,179,179,1,180,dakika,5891,267.6637,5207,0.5692,6,notharmonic,1.75,word,m,,,,,,,
,,,,,,,,,,,,001,2023-11-09_13h36.23.977,vowel_harmony,2023.2.3,MacIntel,30.00120005,400.9189,401.9202,,,,,,,,,,,,,,,,,,,,,,,,,,401.9203,402.4501,m,1,0.4984,,402.4501,402.4502,,0,180,180,135,1,136,hafif,3355,152.4379,3101,0.339,5,notharmonic,1.75,word,m,,,,,,,
,,,,,,,,,,,,001,2023-11-09_13h36.23.977,vowel_harmony,2023.2.3,MacIntel,30.00120005,402.4506,403.4492,,,,,,,,,,,,,,,,,,,,,,,,,,403.4493,403.9189,z,1,0.429,,403.919,403.9191,,0,181,181,316,1,317,misaf,,,,,5,notharmonic,1.85,nw,z,,,,,,,
,,,,,,,,,,,,001,2023-11-09_13h36.23.977,vowel_harmony,2023.2.3,MacIntel,30.00120005,403.9195,404.9164,,,,,,,,,,,,,,,,,,,,,,,,,,404.9165,405.4166,m,1,0.4793,,405.4166,405.4166,,0,182,182,53,1,54,gelir,7578,344.3143,7014,0.7668,5,harmonic,1.4,word,m,,,,,,,
,,,,,,,,,,,,001,2023-11-09_13h36.23.977,vowel_harmony,2023.2.3,MacIntel,30.00120005,405.4169,406.4187,,,,,,,,,,,,,,,,,,,,,,,,,,406.4189,406.8495,z,1,0.4132,,406.8495,406.8496,,0,183,183,329,1,330,taif,,,,,4,notharmonic,1.8,nw,z,,,,,,,
,,,,,,,,,,,,001,2023-11-09_13h36.23.977,vowel_harmony,2023.2.3,MacIntel,30.00120005,406.8499,407.8501,,,,,,,,,,,,,,,,,,,,,,,,,,407.8501,408.3179,z,0,0.4477,,408.3179,408.318,,0,184,184,82,1,83,aday,1028,46.7082,873,0.0954,4,harmonic,1.45,word,m,,,,,,,
,,,,,,,,,,,,001,2023-11-09_13h36.23.977,vowel_harmony,2023.2.3,MacIntel,30.00120005,408.3183,409.3163,,,,,,,,,,,,,,,,,,,,,,,,,,409.3164,409.752,z,0,0.3927,,409.7521,409.7522,,0,185,185,31,1,32,fazla,18293,831.1614,16694,1.825,5,harmonic,1,word,m,,,,,,,
,,,,,,,,,,,,001,2023-11-09_13h36.23.977,vowel_harmony,2023.2.3,MacIntel,30.00120005,409.7528,410.7514,,,,,,,,,,,,,,,,,,,,,,,,,,410.7515,411.2203,m,0,0.4293,,411.2204,411.2205,,0,186,186,248,1,249,şegim,,,,,5,harmonic,1.9,nw,z,,,,,,,
,,,,,,,,,,,,001,2023-11-09_13h36.23.977,vowel_harmony,2023.2.3,MacIntel,30.00120005,411.221,412.2179,,,,,,,,,,,,,,,,,,,,,,,,,,412.2179,412.8536,z,1,0.5956,,412.8537,412.8538,,0,187,187,305,1,306,tamü,,,,,4,notharmonic,1.75,nw,z,,,,,,,
,,,,,,,,,,,,001,2023-11-09_13h36.23.977,vowel_harmony,2023.2.3,MacIntel,30.00120005,412.8542,413.8538,,,,,,,,,,,,,,,,,,,,,,,,,,413.8539,414.2867,z,1,0.3914,,414.2868,414.2869,,0,188,188,249,1,250,hurıt,,,,,5,harmonic,1.95,nw,z,,,,,,,
,,,,,,,,,,,,001,2023-11-09_13h36.23.977,vowel_harmony,2023.2.3,MacIntel,30.00120005,414.2874,415.2861,,,,,,,,,,,,,,,,,,,,,,,,,,415.2862,415.7536,m,1,0.43,,415.7537,415.7537,,0,189,189,19,1,20,ödül,1063,48.2985,926,0.1012,4,harmonic,1.7,word,m,,,,,,,
,,,,,,,,,,,,001,2023-11-09_13h36.23.977,vowel_harmony,2023.2.3,MacIntel,30.00120005,415.7541,416.7541,,,,,,,,,,,,,,,,,,,,,,,,,,416.7541,417.183,m,1,0.403,,417.1831,417.1831,,0,190,190,177,1,178,tekrar,10788,490.1639,9352,1.0224,6,notharmonic,1.85,word,m,,,,,,,
,,,,,,,,,,,,001,2023-11-09_13h36.23.977,vowel_harmony,2023.2.3,MacIntel,30.00120005,417.1834,418.1836,,,,,,,,,,,,,,,,,,,,,,,,,,418.1837,418.6863,z,1,0.4799,,418.6863,418.6864,,0,191,191,338,1,339,pardön,,,,,6,notharmonic,1.95,nw,z,,,,,,,
,,,,,,,,,,,,001,2023-11-09_13h36.23.977,vowel_harmony,2023.2.3,MacIntel,30.00120005,418.6867,419.6834,,,,,,,,,,,,,,,,,,,,,,,,,,419.6834,420.1174,z,1,0.4161,,420.1174,420.1175,,0,192,192,342,1,343,kulön,,,,,5,notharmonic,1.9,nw,z,,,,,,,
,,,,,,,,,,,,001,2023-11-09_13h36.23.977,vowel_harmony,2023.2.3,MacIntel,30.00120005,420.1178,421.118,,,,,,,,,,,,,,,,,,,,,,,,,,421.118,421.5181,z,0,0.3816,,421.5182,421.5183,,0,193,193,174,1,175,bugün,13879,630.6067,12842,1.4039,5,notharmonic,1.85,word,m,,,,,,,
,,,,,,,,,,,,001,2023-11-09_13h36.23.977,vowel_harmony,2023.2.3,MacIntel,30.00120005,421.5186,422.5189,,,,,,,,,,,,,,,,,,,,,,,,,,422.5189,422.9866,m,1,0.4276,,422.9868,422.9868,,0,194,194,17,1,18,yakın,7990,363.0339,7595,0.8303,5,harmonic,1.8,word,m,,,,,,,
,,,,,,,,,,,,001,2023-11-09_13h36.23.977,vowel_harmony,2023.2.3,MacIntel,30.00120005,422.9872,423.9836,,,,,,,,,,,,,,,,,,,,,,,,,,423.9836,424.4527,m,1,0.4485,,424.4527,424.4528,,0,195,195,21,1,22,duygu,1877,85.2834,1760,0.1924,5,harmonic,1.8,word,m,,,,,,,
,,,,,,,,,,,,001,2023-11-09_13h36.23.977,vowel_harmony,2023.2.3,MacIntel,30.00120005,424.4531,425.4503,,,,,,,,,,,,,,,,,,,,,,,,,,425.4504,426.0161,z,1,0.5476,,426.0162,426.0162,,0,196,196,327,1,328,parkeş,,,,,6,notharmonic,1.9,nw,z,,,,,,,
,,,,,,,,,,,,001,2023-11-09_13h36.23.977,vowel_harmony,2023.2.3,MacIntel,30.00120005,426.0166,427.0213,,,,,,,,,,,,,,,,,,,,,,,,,,427.0213,427.4187,m,0,0.3835,,427.4187,427.4189,,0,197,197,221,1,222,yaypın,,,,,6,harmonic,1.75,nw,z,,,,,,,
,,,,,,,,,,,,001,2023-11-09_13h36.23.977,vowel_harmony,2023.2.3,MacIntel,30.00120005,427.4193,428.4213,,,,,,,,,,,,,,,,,,,,,,,,,,428.4213,429.0209,m,1,0.5618,,429.0209,429.0211,,0,198,198,38,1,39,dönem,2820,128.1296,2437,0.2664,5,harmonic,1.4,word,m,,,,,,,
,,,,,,,,,,,,001,2023-11-09_13h36.23.977,vowel_harmony,2023.2.3,MacIntel,30.00120005,429.0215,430.0177,,,,,,,,,,,,,,,,,,,,,,,,,,430.0178,430.4874,z,0,0.4313,,430.4875,430.4877,,0,199,199,100,1,101,düşman,1065,48.3894,962,0.1052,6,notharmonic,1.85,word,m,,,,,,,
,,,,,,,,,,,,001,2023-11-09_13h36.23.977,vowel_harmony,2023.2.3,MacIntel,30.00120005,430.4881,431.4866,,,,,,,,,,,,,,,,,,,,,,,,,,431.4867,432.0214,z,1,0.4966,,432.0214,432.0216,,0,200,200,228,1,229,haytam,,,,,6,harmonic,1.75,nw,z,,,,,,,
,,,,,,,,,,,,001,2023-11-09_13h36.23.977,vowel_harmony,2023.2.3,MacIntel,30.00120005,432.0219,433.0183,,,,,,,,,,,,,,,,,,,,,,,,,,433.0183,433.3873,z,0,0.3325,,433.3874,433.3875,,0,201,201,15,1,16,hayat,7922,359.9443,7314,0.7996,5,harmonic,1.9,word,m,,,,,,,
,,,,,,,,,,,,001,2023-11-09_13h36.23.977,vowel_harmony,2023.2.3,MacIntel,30.00120005,433.3879,434.3844,,,,,,,,,,,,,,,,,,,,,,,,,,434.3844,434.9201,z,1,0.507,,434.9202,434.9203,,0,202,202,271,1,272,mimal,,,,,5,notharmonic,1.8,nw,z,,,,,,,
,,,,,,,,,,,,001,2023-11-09_13h36.23.977,vowel_harmony,2023.2.3,MacIntel,30.00120005,434.9206,435.9195,,,,,,,,,,,,,,,,,,,,,,,,,,435.9195,436.35,m,0,0.4051,,436.3501,436.3501,,0,203,203,254,1,255,millek,,,,,6,harmonic,1.8,nw,z,,,,,,,
,,,,,,,,,,,,001,2023-11-09_13h36.23.977,vowel_harmony,2023.2.3,MacIntel,30.00120005,436.3504,437.3517,,,,,,,,,,,,,,,,,,,,,,,,,,437.3518,437.822,m,1,0.4473,,437.8221,437.8221,,0,204,204,139,1,140,lira,1253,56.9314,947,0.1035,4,notharmonic,1.4,word,m,,,,,,,
,,,,,,,,,,,,001,2023-11-09_13h36.23.977,vowel_harmony,2023.2.3,MacIntel,30.00120005,437.8224,438.818,,,,,,,,,,,,,,,,,,,,,,,,,,438.818,439.3205,m,1,0.4808,,439.3205,439.3205,,0,205,205,148,1,149,selam,1868,84.8745,1764,0.1928,5,notharmonic,1.35,word,m,,,,,,,
,,,,,,,,,,,,001,2023-11-09_13h36.23.977,vowel_harmony,2023.2.3,MacIntel,30.00120005,439.3208,440.3195,,,,,,,,,,,,,,,,,,,,,,,,,,440.3196,440.7873,z,1,0.455,,440.7874,440.7875,,0,206,206,189,1,190,düvre,,,,,5,harmonic,1.85,nw,z,,,,,,,
,,,,,,,,,,,,001,2023-11-09_13h36.23.977,vowel_harmony,2023.2.3,MacIntel,30.00120005,440.7879,441.7866,,,,,,,,,,,,,,,,,,,,,,,,,,441.7867,442.1882,z,1,0.3644,,442.1883,442.1884,,0,207,207,322,1,323,normin,,,,,6,notharmonic,1.95,nw,z,,,,,,,
,,,,,,,,,,,,001,2023-11-09_13h36.23.977,vowel_harmony,2023.2.3,MacIntel,30.00120005,442.1887,443.1856,,,,,,,,,,,,,,,,,,,,,,,,,,443.1857,443.7215,m,1,0.494,,443.7215,443.7217,,0,208,208,101,1,102,imza,1358,61.7021,1253,0.137,4,notharmonic,1.65,word,m,,,,,,,
,,,,,,,,,,,,001,2023-11-09_13h36.23.977,vowel_harmony,2023.2.3,MacIntel,30.00120005,443.7221,444.7186,,,,,,,,,,,,,,,,,,,,,,,,,,444.7186,445.2881,m,1,0.5393,,445.2882,445.2882,,0,209,209,13,1,14,nokta,2085,94.7341,1939,0.212,5,harmonic,1.5,word,m,,,,,,,
,,,,,,,,,,,,001,2023-11-09_13h36.23.977,vowel_harmony,2023.2.3,MacIntel,30.00120005,445.2885,446.2851,,,,,,,,,,,,,,,,,,,,,,,,,,446.2852,446.8214,z,1,0.4997,,446.8215,446.8216,,0,210,210,317,1,318,mevul,,,,,5,notharmonic,1.95,nw,z,,,,,,,
,,,,,,,,,,,,001,2023-11-09_13h36.23.977,vowel_harmony,2023.2.3,MacIntel,30.00120005,446.8219,447.8195,,,,,,,,,,,,,,,,,,,,,,,,,,447.8196,448.3214,z,1,0.467,,448.3214,448.3215,,0,211,211,232,1,233,kanur,,,,,5,harmonic,1.7,nw,z,,,,,,,
,,,,,,,,,,,,001,2023-11-09_13h36.23.977,vowel_harmony,2023.2.3,MacIntel,30.00120005,448.322,449.318,,,,,,,,,,,,,,,,,,,,,,,,,,449.3181,449.6882,z,1,0.3277,,449.6882,449.6883,,0,212,212,311,1,312,dedya,,,,,5,notharmonic,1.9,nw,z,,,,,,,
,,,,,,,,,,,,001,2023-11-09_13h36.23.977,vowel_harmony,2023.2.3,MacIntel,30.00120005,449.6887,450.6854,,,,,,,,,,,,,,,,,,,,,,,,,,450.6854,451.1873,z,1,0.4807,,451.1873,451.1874,,0,213,213,194,1,195,rayna,,,,,5,harmonic,1.7,nw,z,,,,,,,
,,,,,,,,,,,,001,2023-11-09_13h36.23.977,vowel_harmony,2023.2.3,MacIntel,30.00120005,451.1877,452.188,,,,,,,,,,,,,,,,,,,,,,,,,,452.1881,452.6556,z,1,0.4286,,452.6557,452.6558,,0,214,214,349,1,350,harten,,,,,6,notharmonic,1.85,nw,z,,,,,,,
,,,,,,,,,,,,001,2023-11-09_13h36.23.977,vowel_harmony,2023.2.3,MacIntel,30.00120005,452.6561,453.6536,,,,,,,,,,,,,,,,,,,,,,,,,,453.6536,454.0214,z,1,0.3518,,454.0214,454.0215,,0,215,215,336,1,337,diyam,,,,,5,notharmonic,1.85,nw,z,,,,,,,
,,,,,,,,,,,,001,2023-11-09_13h36.23.977,vowel_harmony,2023.2.3,MacIntel,30.00120005,454.0219,455.0195,,,,,,,,,,,,,,,,,,,,,,,,,,455.0196,455.4544,m,1,0.4166,,455.4545,455.4545,,0,216,216,176,1,177,harika,4682,212.7315,4422,0.4834,6,notharmonic,1.9,word,m,,,,,,,
,,,,,,,,,,,,001,2023-11-09_13h36.23.977,vowel_harmony,2023.2.3,MacIntel,30.00120005,455.4548,456.4519,,,,,,,,,,,,,,,,,,,,,,,,,,456.452,456.8531,z,1,0.3864,,456.8532,456.8533,,0,217,217,255,1,256,yokın,,,,,5,harmonic,1.85,nw,z,,,,,,,
,,,,,,,,,,,,001,2023-11-09_13h36.23.977,vowel_harmony,2023.2.3,MacIntel,30.00120005,456.8536,457.8557,,,,,,,,,,,,,,,,,,,,,,,,,,457.8558,458.2201,z,0,0.3354,,458.2201,458.2201,,0,218,218,94,1,95,final,876,39.802,778,0.0851,5,notharmonic,1,word,m,,,,,,,
,,,,,,,,,,,,001,2023-11-09_13h36.23.977,vowel_harmony,2023.2.3,MacIntel,30.00120005,458.2205,459.2185,,,,,,,,,,,,,,,,,,,,,,,,,,459.2186,459.7889,m,1,0.5306,,459.7889,459.7891,,0,219,219,154,1,155,sakin,1855,84.2838,1635,0.1787,5,notharmonic,1.05,word,m,,,,,,,
,,,,,,,,,,,,001,2023-11-09_13h36.23.977,vowel_harmony,2023.2.3,MacIntel,30.00120005,459.7895,460.7872,,,,,,,,,,,,,,,,,,,,,,,,,,460.7873,461.2535,m,1,0.4558,,461.2536,461.2537,,0,220,220,1,1,2,erkek,6188,281.1582,5195,0.5679,5,harmonic,1.65,word,m,,,,,,,
,,,,,,,,,,,,001,2023-11-09_13h36.23.977,vowel_harmony,2023.2.3,MacIntel,30.00120005,461.2541,462.2519,,,,,,,,,,,,,,,,,,,,,,,,,,462.252,462.7204,z,1,0.4315,,462.7205,462.7205,,0,221,221,234,1,235,düzöt,,,,,5,harmonic,2.05,nw,z,,,,,,,
,,,,,,,,,,,,001,2023-11-09_13h36.23.977,vowel_harmony,2023.2.3,MacIntel,30.00120005,462.721,463.7207,,,,,,,,,,,,,,,,,,,,,,,,,,463.7207,464.1196,m,1,0.3779,,464.1196,464.1198,,0,222,222,138,1,139,kardeş,1270,57.7038,1174,0.1283,6,notharmonic,1.9,word,m,,,,,,,
,,,,,,,,,,,,001,2023-11-09_13h36.23.977,vowel_harmony,2023.2.3,MacIntel,30.00120005,464.1201,465.1224,,,,,,,,,,,,,,,,,,,,,,,,,,465.1225,465.5895,z,1,0.4243,,465.5896,465.5898,,0,223,223,328,1,329,kirul,,,,,5,notharmonic,1.95,nw,z,,,,,,,
,,,,,,,,,,,,001,2023-11-09_13h36.23.977,vowel_harmony,2023.2.3,MacIntel,30.00120005,465.5902,466.5854,,,,,,,,,,,,,,,,,,,,,,,,,,466.5856,467.0863,z,1,0.4852,,467.0864,467.0865,,0,224,224,251,1,252,oştay,,,,,5,harmonic,1.95,nw,z,,,,,,,
,,,,,,,,,,,,001,2023-11-09_13h36.23.977,vowel_harmony,2023.2.3,MacIntel,30.00120005,467.087,468.0867,,,,,,,,,,,,,,,,,,,,,,,,,,468.0869,468.555,m,1,0.4274,,468.555,468.5552,,0,225,225,54,1,55,yedek,825,37.4847,732,0.08,5,harmonic,1.65,word,m,,,,,,,
,,,,,,,,,,,,001,2023-11-09_13h36.23.977,vowel_harmony,2023.2.3,MacIntel,30.00120005,468.5556,469.555,,,,,,,,,,,,,,,,,,,,,,,,,,469.5551,470.0567,z,1,0.4655,,470.0567,470.0568,,0,226,226,213,1,214,kaun,,,,,4,harmonic,1.7,nw,z,,,,,,,
,,,,,,,,,,,,001,2023-11-09_13h36.23.977,vowel_harmony,2023.2.3,MacIntel,30.00120005,470.0573,471.0535,,,,,,,,,,,,,,,,,,,,,,,,,,471.0535,471.4876,z,0,0.399,,471.4876,471.4877,,0,227,227,161,1,162,komik,1617,73.4701,1506,0.1646,5,notharmonic,1.75,word,m,,,,,,,
,,,,,,,,,,,,001,2023-11-09_13h36.23.977,vowel_harmony,2023.2.3,MacIntel,30.00120005,471.4882,472.4878,,,,,,,,,,,,,,,,,,,,,,,,,,472.4878,472.8873,z,0,0.3828,,472.8873,472.8873,,0,228,228,116,1,117,daire,621,28.2158,503,0.055,5,notharmonic,1,word,m,,,,,,,
,,,,,,,,,,,,001,2023-11-09_13h36.23.977,vowel_harmony,2023.2.3,MacIntel,30.00120005,472.8877,473.8863,,,,,,,,,,,,,,,,,,,,,,,,,,473.8863,474.3869,m,1,0.4816,,474.387,474.387,,0,229,229,97,1,98,mevcut,3007,136.6262,2842,0.3107,6,notharmonic,1.95,word,m,,,,,,,
,,,,,,,,,,,,001,2023-11-09_13h36.23.977,vowel_harmony,2023.2.3,MacIntel,30.00120005,474.3872,475.3863,,,,,,,,,,,,,,,,,,,,,,,,,,475.3864,475.9207,m,1,0.4969,,475.9208,475.9208,,0,230,230,61,1,62,yıldız,1775,80.649,1532,0.1675,6,harmonic,1.6,word,m,,,,,,,
,,,,,,,,,,,,001,2023-11-09_13h36.23.977,vowel_harmony,2023.2.3,MacIntel,30.00120005,475.9213,476.9206,,,,,,,,,,,,,,,,,,,,,,,,,,476.9207,477.4562,m,1,0.5151,,477.4562,477.4563,,0,231,231,153,1,154,inşaat,432,19.6284,376,0.0411,6,notharmonic,1.6,word,m,,,,,,,
,,,,,,,,,,,,001,2023-11-09_13h36.23.977,vowel_harmony,2023.2.3,MacIntel,30.00120005,477.4566,478.4539,,,,,,,,,,,,,,,,,,,,,,,,,,478.4539,478.8878,z,1,0.4146,,478.8878,478.8878,,0,232,232,192,1,193,vecö,,,,,4,harmonic,1.95,nw,z,,,,,,,
,,,,,,,,,,,,001,2023-11-09_13h36.23.977,vowel_harmony,2023.2.3,MacIntel,30.00120005,478.8883,479.8872,,,,,,,,,,,,,,,,,,,,,,,,,,479.8873,480.4234,m,1,0.4942,,480.4234,480.4236,,0,233,233,47,1,48,kaza,740,33.6227,679,0.0742,4,harmonic,1.85,word,m,,,,,,,
,,,,,,,,,,,,001,2023-11-09_13h36.23.977,vowel_harmony,2023.2.3,MacIntel,30.00120005,480.4241,481.4203,,,,,,,,,,,,,,,,,,,,,,,,,,481.4203,481.9554,m,1,0.4998,,481.9556,481.9556,,0,234,234,57,1,58,bölüm,1910,86.7828,1605,0.1755,5,harmonic,1.45,word,m,,,,,,,
,,,,,,,,,,,,001,2023-11-09_13h36.23.977,vowel_harmony,2023.2.3,MacIntel,30.00120005,481.956,482.954,,,,,,,,,,,,,,,,,,,,,,,,,,482.954,483.3892,m,0,0.404,,483.3893,483.3894,,0,235,235,359,1,360,kardez,,,,,6,notharmonic,1.95,nw,z,,,,,,,
,,,,,,,,,,,,001,2023-11-09_13h36.23.977,vowel_harmony,2023.2.3,MacIntel,30.00120005,483.3897,484.39,,,,,,,,,,,,,,,,,,,,,,,,,,484.39,484.8863,m,1,0.478,,484.8864,484.8864,,0,236,236,141,1,142,madde,3793,172.3389,3389,0.3705,5,notharmonic,1.7,word,m,,,,,,,
,,,,,,,,,,,,001,2023-11-09_13h36.23.977,vowel_harmony,2023.2.3,MacIntel,30.00120005,484.8867,485.8897,,,,,,,,,,,,,,,,,,,,,,,,,,485.8899,486.389,z,1,0.46,,486.389,486.3892,,0,237,237,261,1,262,kardok,,,,,6,harmonic,1.95,nw,z,,,,,,,
,,,,,,,,,,,,001,2023-11-09_13h36.23.977,vowel_harmony,2023.2.3,MacIntel,30.00120005,486.3896,487.3876,,,,,,,,,,,,,,,,,,,,,,,,,,487.3877,487.856,m,0,0.4388,,487.8561,487.8562,,0,238,238,312,1,313,şahmin,,,,,6,notharmonic,1.8,nw,z,,,,,,,
,,,,,,,,,,,,001,2023-11-09_13h36.23.977,vowel_harmony,2023.2.3,MacIntel,30.00120005,487.8564,488.8561,,,,,,,,,,,,,,,,,,,,,,,,,,488.8562,489.3239,z,1,0.428,,489.3239,489.324,,0,239,239,220,1,221,denbi,,,,,5,harmonic,1.75,nw,z,,,,,,,
,,,,,,,,,,,,001,2023-11-09_13h36.23.977,vowel_harmony,2023.2.3,MacIntel,30.00120005,489.3245,490.3231,,,,,,,,,,,,,,,,,,,,,,,,,,490.3231,490.7547,m,1,0.4194,,490.7547,492.8873,space,0,240,240,36,1,37,meslek,1082,49.1618,976,0.1067,6,harmonic,1.9,word,m,2.119,,,,,,
,,,,,,,,,,,,001,2023-11-09_13h36.23.977,vowel_harmony,2023.2.3,MacIntel,30.00120005,492.8877,493.8885,,,,,,,,,,,,,,,,,,,,,,,,,,493.8885,495.1228,z,1,1.1947,,495.1229,495.1231,,0,241,241,351,1,352,seğlık,,,,,6,notharmonic,1.9,nw,z,,,,,,,
,,,,,,,,,,,,001,2023-11-09_13h36.23.977,vowel_harmony,2023.2.3,MacIntel,30.00120005,495.1235,496.1224,,,,,,,,,,,,,,,,,,,,,,,,,,496.1224,496.6236,m,0,0.4617,,496.6236,496.6238,,0,242,242,348,1,349,aife,,,,,4,notharmonic,1.75,nw,z,,,,,,,
,,,,,,,,,,,,001,2023-11-09_13h36.23.977,vowel_harmony,2023.2.3,MacIntel,30.00120005,496.6242,497.6211,,,,,,,,,,,,,,,,,,,,,,,,,,497.6213,498.091,m,1,0.4284,,498.0911,498.0911,,0,243,243,169,1,170,hikaye,1555,70.653,1405,0.1536,6,notharmonic,1.8,word,m,,,,,,,
,,,,,,,,,,,,001,2023-11-09_13h36.23.977,vowel_harmony,2023.2.3,MacIntel,30.00120005,498.0916,499.088,,,,,,,,,,,,,,,,,,,,,,,,,,499.088,499.5872,m,1,0.4792,,499.5873,499.5874,,0,244,244,44,1,45,kayıt,1234,56.0681,1058,0.1157,5,harmonic,1.35,word,m,,,,,,,
,,,,,,,,,,,,001,2023-11-09_13h36.23.977,vowel_harmony,2023.2.3,MacIntel,30.00120005,499.5876,500.5911,,,,,,,,,,,,,,,,,,,,,,,,,,500.5912,501.0884,z,1,0.4578,,501.0884,501.0886,,0,245,245,292,1,293,kinam,,,,,5,notharmonic,1.85,nw,z,,,,,,,
,,,,,,,,,,,,001,2023-11-09_13h36.23.977,vowel_harmony,2023.2.3,MacIntel,30.00120005,501.089,502.0881,,,,,,,,,,,,,,,,,,,,,,,,,,502.0883,502.5576,z,0,0.4274,,502.5576,502.5578,,0,246,246,3,1,4,minik,2916,132.4915,2594,0.2836,5,harmonic,1.6,word,m,,,,,,,
,,,,,,,,,,,,001,2023-11-09_13h36.23.977,vowel_harmony,2023.2.3,MacIntel,30.00120005,502.5582,503.5575,,,,,,,,,,,,,,,,,,,,,,,,,,503.5575,504.0582,z,0,0.4603,,504.0582,504.0583,,0,247,247,107,1,108,merak,5806,263.8016,5524,0.6039,5,notharmonic,1.65,word,m,,,,,,,
,,,,,,,,,,,,001,2023-11-09_13h36.23.977,vowel_harmony,2023.2.3,MacIntel,30.00120005,504.0587,505.0572,,,,,,,,,,,,,,,,,,,,,,,,,,505.0573,505.5534,m,1,0.4621,,505.5534,505.5536,,0,248,248,72,1,73,çorba,1674,76.0599,1513,0.1654,5,harmonic,1.75,word,m,,,,,,,
,,,,,,,,,,,,001,2023-11-09_13h36.23.977,vowel_harmony,2023.2.3,MacIntel,30.00120005,505.5539,506.5549,,,,,,,,,,,,,,,,,,,,,,,,,,506.555,507.1576,m,1,0.5615,,507.1577,507.1578,,0,249,249,58,1,59,ayak,2143,97.3694,1931,0.2111,4,harmonic,1,word,m,,,,,,,
,,,,,,,,,,,,001,2023-11-09_13h36.23.977,vowel_harmony,2023.2.3,MacIntel,30.00120005,507.1582,508.158,,,,,,,,,,,,,,,,,,,,,,,,,,508.1581,508.7874,m,1,0.6095,,508.7874,508.7874,,0,250,250,69,1,70,forma,719,32.6685,597,0.0653,5,harmonic,1.8,word,m,,,,,,,
,,,,,,,,,,,,001,2023-11-09_13h36.23.977,vowel_harmony,2023.2.3,MacIntel,30.00120005,508.7878,509.7885,,,,,,,,,,,,,,,,,,,,,,,,,,509.7886,510.4237,z,1,0.617,,510.4237,510.4238,,0,251,251,298,1,299,yelsın,,,,,6,notharmonic,1.95,nw,z,,,,,,,
,,,,,,,,,,,,001,2023-11-09_13h36.23.977,vowel_harmony,2023.2.3,MacIntel,30.00120005,510.4241,511.4212,,,,,,,,,,,,,,,,,,,,,,,,,,511.4212,511.9911,z,1,0.534,,511.9912,511.9914,,0,252,252,289,1,290,karmen,,,,,6,notharmonic,1.75,nw,z,,,,,,,
,,,,,,,,,,,,001,2023-11-09_13h36.23.977,vowel_harmony,2023.2.3,MacIntel,30.00120005,511.9918,512.9914,,,,,,,,,,,,,,,,,,,,,,,,,,512.9915,513.4243,m,0,0.3929,,513.4245,513.4246,,0,253,253,239,1,240,şekik,,,,,5,harmonic,1.7,nw,z,,,,,,,
,,,,,,,,,,,,001,2023-11-09_13h36.23.977,vowel_harmony,2023.2.3,MacIntel,30.00120005,513.425,514.4214,,,,,,,,,,,,,,,,,,,,,,,,,,514.4214,514.9239,m,1,0.4628,,514.924,514.9241,,0,254,254,156,1,157,medya,1784,81.0579,1495,0.1634,5,notharmonic,1.35,word,m,,,,,,,
,,,,,,,,,,,,001,2023-11-09_13h36.23.977,vowel_harmony,2023.2.3,MacIntel,30.00120005,514.9246,515.9245,,,,,,,,,,,,,,,,,,,,,,,,,,515.9245,516.522,m,1,0.578,,516.5221,516.5221,,0,255,255,77,1,78,ufak,3252,147.758,2980,0.3258,4,harmonic,1.5,word,m,,,,,,,
,,,,,,,,,,,,001,2023-11-09_13h36.23.977,vowel_harmony,2023.2.3,MacIntel,30.00120005,516.5224,517.523,,,,,,,,,,,,,,,,,,,,,,,,,,517.523,518.0251,z,0,0.4627,,518.0252,518.0253,,0,256,256,83,1,84,küçük,14048,638.2854,12467,1.3629,5,harmonic,1.75,word,m,,,,,,,
,,,,,,,,,,,,001,2023-11-09_13h36.23.977,vowel_harmony,2023.2.3,MacIntel,30.00120005,518.0258,519.023,,,,,,,,,,,,,,,,,,,,,,,,,,519.0231,519.5591,z,1,0.5003,,519.5591,519.5593,,0,257,257,282,1,283,taöz,,,,,4,notharmonic,1.9,nw,z,,,,,,,
,,,,,,,,,,,,001,2023-11-09_13h36.23.977,vowel_harmony,2023.2.3,MacIntel,30.00120005,519.5597,520.558,,,,,,,,,,,,,,,,,,,,,,,,,,520.558,520.9877,m,1,0.4163,,520.9877,520.9878,,0,258,258,160,1,161,hakem,603,27.3979,473,0.0517,5,notharmonic,1.3,word,m,,,,,,,
,,,,,,,,,,,,001,2023-11-09_13h36.23.977,vowel_harmony,2023.2.3,MacIntel,30.00120005,520.988,521.9912,,,,,,,,,,,,,,,,,,,,,,,,,,521.9913,522.5228,z,0,0.5104,,522.5228,522.5228,,0,259,259,126,1,127,adet,4367,198.4192,3768,0.4119,4,notharmonic,1.4,word,m,,,,,,,
,,,,,,,,,,,,001,2023-11-09_13h36.23.977,vowel_harmony,2023.2.3,MacIntel,30.00120005,522.5231,523.5235,,,,,,,,,,,,,,,,,,,,,,,,,,523.5236,524.0571,z,1,0.5121,,524.0572,524.0572,,0,260,260,214,1,215,vecü,,,,,4,harmonic,1.95,nw,z,,,,,,,
,,,,,,,,,,,,001,2023-11-09_13h36.23.977,vowel_harmony,2023.2.3,MacIntel,30.00120005,524.0575,525.057,,,,,,,,,,,,,,,,,,,,,,,,,,525.057,525.492,m,1,0.3808,,525.492,525.4921,,0,261,261,163,1,164,limon,1658,75.3329,1481,0.1619,5,notharmonic,1.75,word,m,,,,,,,
,,,,,,,,,,,,001,2023-11-09_13h36.23.977,vowel_harmony,2023.2.3,MacIntel,30.00120005,525.4926,526.4886,,,,,,,,,,,,,,,,,,,,,,,,,,526.4886,527.0904,m,1,0.5665,,527.0904,527.0905,,0,262,262,113,1,114,model,1200,54.5232,1082,0.1183,5,notharmonic,1.75,word,m,,,,,,,
,,,,,,,,,,,,001,2023-11-09_13h36.23.977,vowel_harmony,2023.2.3,MacIntel,30.00120005,527.0909,528.0915,,,,,,,,,,,,,,,,,,,,,,,,,,528.0916,528.5906,m,1,0.4621,,528.5907,528.5908,,0,263,263,149,1,150,ceza,2611,118.6335,2169,0.2371,4,notharmonic,1.5,word,m,,,,,,,
,,,,,,,,,,,,001,2023-11-09_13h36.23.977,vowel_harmony,2023.2.3,MacIntel,30.00120005,528.5912,529.5896,,,,,,,,,,,,,,,,,,,,,,,,,,529.5896,530.0927,z,1,0.4614,,530.0927,530.0929,,0,264,264,263,1,264,duzur,,,,,5,harmonic,1.8,nw,z,,,,,,,
,,,,,,,,,,,,001,2023-11-09_13h36.23.977,vowel_harmony,2023.2.3,MacIntel,30.00120005,530.0933,531.0927,,,,,,,,,,,,,,,,,,,,,,,,,,531.0928,531.5915,z,1,0.4582,,531.5915,531.5916,,0,265,265,331,1,332,ehun,,,,,4,notharmonic,1.95,nw,z,,,,,,,
,,,,,,,,,,,,001,2023-11-09_13h36.23.977,vowel_harmony,2023.2.3,MacIntel,30.00120005,531.5921,532.5906,,,,,,,,,,,,,,,,,,,,,,,,,,532.5907,533.0566,m,1,0.4502,,533.0567,533.0568,,0,266,266,136,1,137,beyaz,5517,250.6706,4788,0.5234,5,notharmonic,1.85,word,m,,,,,,,
,,,,,,,,,,,,001,2023-11-09_13h36.23.977,vowel_harmony,2023.2.3,MacIntel,30.00120005,533.0572,534.0558,,,,,,,,,,,,,,,,,,,,,,,,,,534.0559,534.6235,m,0,0.543,,534.6236,534.6236,,0,267,267,307,1,308,merbat,,,,,6,notharmonic,1.95,nw,z,,,,,,,
,,,,,,,,,,,,001,2023-11-09_13h36.23.977,vowel_harmony,2023.2.3,MacIntel,30.00120005,534.6239,535.6223,,,,,,,,,,,,,,,,,,,,,,,,,,535.6224,536.2255,m,0,0.581,,536.2255,536.2255,,0,268,268,302,1,303,işgar,,,,,5,notharmonic,1.9,nw,z,,,,,,,
,,,,,,,,,,,,001,2023-11-09_13h36.23.977,vowel_harmony,2023.2.3,MacIntel,30.00120005,536.2259,537.2243,,,,,,,,,,,,,,,,,,,,,,,,,,537.2244,537.959,z,1,0.7219,,537.9591,537.9592,,0,269,269,203,1,204,döves,,,,,5,harmonic,1.8,nw,z,,,,,,,
,,,,,,,,,,,,001,2023-11-09_13h36.23.977,vowel_harmony,2023.2.3,MacIntel,30.00120005,537.9596,538.9563,,,,,,,,,,,,,,,,,,,,,,,,,,538.9563,539.4931,z,1,0.4973,,539.4931,539.4932,,0,270,270,337,1,338,bakem,,,,,5,notharmonic,1.7,nw,z,,,,,,,
,,,,,,,,,,,,001,2023-11-09_13h36.23.977,vowel_harmony,2023.2.3,MacIntel,30.00120005,539.4936,540.4896,,,,,,,,,,,,,,,,,,,,,,,,,,540.4896,541.058,m,1,0.5274,,541.0581,541.0582,,0,271,271,150,1,151,sabit,1046,47.5261,915,0.1,5,notharmonic,1.75,word,m,,,,,,,
,,,,,,,,,,,,001,2023-11-09_13h36.23.977,vowel_harmony,2023.2.3,MacIntel,30.00120005,541.0587,542.0599,,,,,,,,,,,,,,,,,,,,,,,,,,542.0599,542.7928,m,1,0.6915,,542.7929,542.793,,0,272,272,46,1,47,takım,4370,198.5555,3726,0.4073,5,harmonic,1.7,word,m,,,,,,,
,,,,,,,,,,,,001,2023-11-09_13h36.23.977,vowel_harmony,2023.2.3,MacIntel,30.00120005,542.7933,543.7884,,,,,,,,,,,,,,,,,,,,,,,,,,543.7884,544.1933,z,1,0.3686,,544.1934,544.1936,,0,273,273,209,1,210,sapor,,,,,5,harmonic,1.8,nw,z,,,,,,,
,,,,,,,,,,,,001,2023-11-09_13h36.23.977,vowel_harmony,2023.2.3,MacIntel,30.00120005,544.194,545.1899,,,,,,,,,,,,,,,,,,,,,,,,,,545.19,545.8245,m,0,0.595,,545.8245,545.8247,,0,274,274,301,1,302,mezak,,,,,5,notharmonic,1.8,nw,z,,,,,,,
,,,,,,,,,,,,001,2023-11-09_13h36.23.977,vowel_harmony,2023.2.3,MacIntel,30.00120005,545.825,546.8243,,,,,,,,,,,,,,,,,,,,,,,,,,546.8244,547.2584,z,0,0.3946,,547.2584,547.2586,,0,275,275,130,1,131,hamile,1075,48.8437,877,0.0959,6,notharmonic,1.5,word,m,,,,,,,
,,,,,,,,,,,,001,2023-11-09_13h36.23.977,vowel_harmony,2023.2.3,MacIntel,30.00120005,547.259,548.2569,,,,,,,,,,,,,,,,,,,,,,,,,,548.2569,548.8259,m,1,0.5356,,548.826,548.8261,,0,276,276,20,1,21,nefes,2871,130.4469,2553,0.2791,5,harmonic,1.8,word,m,,,,,,,
,,,,,,,,,,,,001,2023-11-09_13h36.23.977,vowel_harmony,2023.2.3,MacIntel,30.00120005,548.8264,549.8247,,,,,,,,,,,,,,,,,,,,,,,,,,549.8247,550.1918,z,0,0.3504,,550.1918,550.1918,,0,277,277,63,1,64,sultan,1756,79.7857,1368,0.1496,6,harmonic,1.55,word,m,,,,,,,
,,,,,,,,,,,,001,2023-11-09_13h36.23.977,vowel_harmony,2023.2.3,MacIntel,30.00120005,550.1922,551.1908,,,,,,,,,,,,,,,,,,,,,,,,,,551.1909,551.6232,m,1,0.4091,,551.6232,551.6233,,0,278,278,30,1,31,çevre,1662,75.5147,1409,0.154,5,harmonic,1.55,word,m,,,,,,,
,,,,,,,,,,,,001,2023-11-09_13h36.23.977,vowel_harmony,2023.2.3,MacIntel,30.00120005,551.6236,552.6232,,,,,,,,,,,,,,,,,,,,,,,,,,552.6233,553.3234,z,1,0.68,,553.3235,553.3236,,0,279,279,355,1,356,adül,,,,,4,notharmonic,1.85,nw,z,,,,,,,
,,,,,,,,,,,,001,2023-11-09_13h36.23.977,vowel_harmony,2023.2.3,MacIntel,30.00120005,553.3239,554.3236,,,,,,,,,,,,,,,,,,,,,,,,,,554.3237,554.8261,m,1,0.4866,,554.8262,554.8263,,0,280,280,158,1,159,klasik,1871,85.0108,1734,0.1896,6,notharmonic,2,word,m,,,,,,,
,,,,,,,,,,,,001,2023-11-09_13h36.23.977,vowel_harmony,2023.2.3,MacIntel,30.00120005,554.8268,555.8244,,,,,,,,,,,,,,,,,,,,,,,,,,555.8245,556.4593,z,1,0.5978,,556.4593,556.4594,,0,281,281,224,1,225,ertre,,,,,5,harmonic,1.95,nw,z,,,,,,,
,,,,,,,,,,,,001,2023-11-09_13h36.23.977,vowel_harmony,2023.2.3,MacIntel,30.00120005,556.4599,557.4575,,,,,,,,,,,,,,,,,,,,,,,,,,557.4576,558.0256,z,1,0.5365,,558.0256,558.0258,,0,282,282,222,1,223,gelü,,,,,4,harmonic,1.75,nw,z,,,,,,,
,,,,,,,,,,,,001,2023-11-09_13h36.23.977,vowel_harmony,2023.2.3,MacIntel,30.00120005,558.0262,559.0234,,,,,,,,,,,,,,,,,,,,,,,,,,559.0236,559.5242,m,1,0.4808,,559.5242,559.5243,,0,283,283,121,1,122,mesaj,1604,72.8794,1386,0.1515,5,notharmonic,1.8,word,m,,,,,,,
,,,,,,,,,,,,001,2023-11-09_13h36.23.977,vowel_harmony,2023.2.3,MacIntel,30.00120005,559.5246,560.5269,,,,,,,,,,,,,,,,,,,,,,,,,,560.527,561.1254,z,1,0.5708,,561.1254,561.1256,,0,284,284,241,1,242,porlam,,,,,6,harmonic,2,nw,z,,,,,,,
,,,,,,,,,,,,001,2023-11-09_13h36.23.977,vowel_harmony,2023.2.3,MacIntel,30.00120005,561.1259,562.1264,,,,,,,,,,,,,,,,,,,,,,,,,,562.1265,562.7565,m,1,0.6122,,562.7566,562.7566,,0,285,285,109,1,110,milyon,3936,178.8362,2958,0.3234,6,notharmonic,1.75,word,m,,,,,,,
,,,,,,,,,,,,001,2023-11-09_13h36.23.977,vowel_harmony,2023.2.3,MacIntel,30.00120005,562.7568,563.7572,,,,,,,,,,,,,,,,,,,,,,,,,,563.7572,564.2938,z,0,0.4967,,564.2939,564.2939,,0,286,286,8,1,9,güven,1433,65.1098,1300,0.1421,5,harmonic,1.35,word,m,,,,,,,
,,,,,,,,,,,,001,2023-11-09_13h36.23.977,vowel_harmony,2023.2.3,MacIntel,30.00120005,564.2944,565.2905,,,,,,,,,,,,,,,,,,,,,,,,,,565.2906,565.7268,m,0,0.4008,,565.7268,565.727,,0,287,287,306,1,307,otet,,,,,4,notharmonic,1.95,nw,z,,,,,,,
,,,,,,,,,,,,001,2023-11-09_13h36.23.977,vowel_harmony,2023.2.3,MacIntel,30.00120005,565.7273,566.7249,,,,,,,,,,,,,,,,,,,,,,,,,,566.725,567.1232,m,1,0.3814,,567.1232,567.1233,,0,288,288,67,1,68,bayram,1948,88.5094,1648,0.1802,6,harmonic,1.85,word,m,,,,,,,
,,,,,,,,,,,,001,2023-11-09_13h36.23.977,vowel_harmony,2023.2.3,MacIntel,30.00120005,567.1237,568.126,,,,,,,,,,,,,,,,,,,,,,,,,,568.126,568.527,z,0,0.3824,,568.527,568.527,,0,289,289,114,1,115,nisan,2321,105.457,2044,0.2235,5,notharmonic,1.6,word,m,,,,,,,
,,,,,,,,,,,,001,2023-11-09_13h36.23.977,vowel_harmony,2023.2.3,MacIntel,30.00120005,568.5273,569.5242,,,,,,,,,,,,,,,,,,,,,,,,,,569.5242,569.8584,m,0,0.3193,,569.8585,569.8586,,0,290,290,212,1,213,ortat,,,,,5,harmonic,1.7,nw,z,,,,,,,
,,,,,,,,,,,,001,2023-11-09_13h36.23.977,vowel_harmony,2023.2.3,MacIntel,30.00120005,569.859,570.8573,,,,,,,,,,,,,,,,,,,,,,,,,,570.8574,571.4608,z,1,0.5635,,571.4608,571.4609,,0,291,291,219,1,220,barlum,,,,,6,harmonic,1.9,nw,z,,,,,,,
,,,,,,,,,,,,001,2023-11-09_13h36.23.977,vowel_harmony,2023.2.3,MacIntel,30.00120005,571.4614,572.46,,,,,,,,,,,,,,,,,,,,,,,,,,572.46,572.9568,m,0,0.4788,,572.957,572.957,,0,292,292,319,1,320,biho,,,,,4,notharmonic,2,nw,z,,,,,,,
,,,,,,,,,,,,001,2023-11-09_13h36.23.977,vowel_harmony,2023.2.3,MacIntel,30.00120005,572.9572,573.9596,,,,,,,,,,,,,,,,,,,,,,,,,,573.9596,574.4909,m,1,0.514,,574.491,574.491,,0,293,293,166,1,167,maden,402,18.2653,339,0.0371,5,notharmonic,1.45,word,m,,,,,,,
,,,,,,,,,,,,001,2023-11-09_13h36.23.977,vowel_harmony,2023.2.3,MacIntel,30.00120005,574.4913,575.4933,,,,,,,,,,,,,,,,,,,,,,,,,,575.4935,575.9567,m,0,0.4392,,575.9567,575.9568,,0,294,294,276,1,277,iptap,,,,,5,notharmonic,1.95,nw,z,,,,,,,
,,,,,,,,,,,,001,2023-11-09_13h36.23.977,vowel_harmony,2023.2.3,MacIntel,30.00120005,575.957,576.9579,,,,,,,,,,,,,,,,,,,,,,,,,,576.9579,577.4245,z,1,0.4412,,577.4245,577.4246,,0,295,295,184,1,185,yapor,,,,,5,harmonic,1.9,nw,z,,,,,,,
,,,,,,,,,,,,001,2023-11-09_13h36.23.977,vowel_harmony,2023.2.3,MacIntel,30.00120005,577.4249,578.4243,,,,,,,,,,,,,,,,,,,,,,,,,,578.4243,578.9607,m,1,0.4966,,578.9607,578.9609,,0,296,296,111,1,112,kahve,2634,119.6785,2283,0.2496,5,notharmonic,1.85,word,m,,,,,,,
,,,,,,,,,,,,001,2023-11-09_13h36.23.977,vowel_harmony,2023.2.3,MacIntel,30.00120005,578.9613,579.9594,,,,,,,,,,,,,,,,,,,,,,,,,,579.9595,580.561,z,1,0.5685,,580.5611,580.5613,,0,297,297,193,1,194,yokın,,,,,5,harmonic,1.85,nw,z,,,,,,,
,,,,,,,,,,,,001,2023-11-09_13h36.23.977,vowel_harmony,2023.2.3,MacIntel,30.00120005,580.5616,581.5605,,,,,,,,,,,,,,,,,,,,,,,,,,581.5605,581.9255,m,0,0.3321,,581.9255,581.9256,,0,298,298,281,1,282,afel,,,,,4,notharmonic,1.8,nw,z,,,,,,,
,,,,,,,,,,,,001,2023-11-09_13h36.23.977,vowel_harmony,2023.2.3,MacIntel,30.00120005,581.9259,582.9249,,,,,,,,,,,,,,,,,,,,,,,,,,582.9249,583.295,z,1,0.3296,,583.2951,583.2953,,0,299,299,181,1,182,rapkı,,,,,5,harmonic,1.85,nw,z,,,,,,,
,,,,,,,,,,,,001,2023-11-09_13h36.23.977,vowel_harmony,2023.2.3,MacIntel,30.00120005,583.2957,584.293,,,,,,,,,,,,,,,,,,,,,,,,,,584.2931,584.6909,z,1,0.3708,,584.6909,584.691,,0,300,300,326,1,327,ailo,,,,,4,notharmonic,1.75,nw,z,,,,,,,
,,,,,,,,,,,,001,2023-11-09_13h36.23.977,vowel_harmony,2023.2.3,MacIntel,30.00120005,584.6913,585.6911,,,,,,,,,,,,,,,,,,,,,,,,,,585.6911,586.0573,z,0,0.3458,,586.0573,586.0574,,0,301,301,140,1,141,sahil,481,21.8547,443,0.0484,5,notharmonic,1.45,word,m,,,,,,,
,,,,,,,,,,,,001,2023-11-09_13h36.23.977,vowel_harmony,2023.2.3,MacIntel,30.00120005,586.0576,587.058,,,,,,,,,,,,,,,,,,,,,,,,,,587.0581,587.4945,z,0,0.4252,,587.4945,587.4946,,0,302,302,34,1,35,hoca,1893,86.0104,1526,0.1668,4,harmonic,1.45,word,m,,,,,,,
,,,,,,,,,,,,001,2023-11-09_13h36.23.977,vowel_harmony,2023.2.3,MacIntel,30.00120005,587.4951,588.4951,,,,,,,,,,,,,,,,,,,,,,,,,,588.4952,588.7951,m,0,0.283,,588.7952,588.7952,,0,303,303,293,1,294,esnan,,,,,5,notharmonic,1.85,nw,z,,,,,,,
,,,,,,,,,,,,001,2023-11-09_13h36.23.977,vowel_harmony,2023.2.3,MacIntel,30.00120005,588.7954,589.7935,,,,,,,,,,,,,,,,,,,,,,,,,,589.7936,590.1244,z,0,0.3121,,590.1245,590.1245,,0,304,304,33,1,34,moda,1381,62.7472,1231,0.1346,4,harmonic,1.55,word,m,,,,,,,
,,,,,,,,,,,,001,2023-11-09_13h36.23.977,vowel_harmony,2023.2.3,MacIntel,30.00120005,590.1248,591.1256,,,,,,,,,,,,,,,,,,,,,,,,,,591.1257,591.4931,m,0,0.3473,,591.4932,591.4933,,0,305,305,285,1,286,iklon,,,,,5,notharmonic,1.85,nw,z,,,,,,,
,,,,,,,,,,,,001,2023-11-09_13h36.23.977,vowel_harmony,2023.2.3,MacIntel,30.00120005,591.4935,592.494,,,,,,,,,,,,,,,,,,,,,,,,,,592.494,593.0245,m,1,0.5125,,593.0245,593.0246,,0,306,306,22,1,23,anlam,1730,78.6043,1617,0.1768,5,harmonic,1.25,word,m,,,,,,,
,,,,,,,,,,,,001,2023-11-09_13h36.23.977,vowel_harmony,2023.2.3,MacIntel,30.00120005,593.0249,594.0255,,,,,,,,,,,,,,,,,,,,,,,,,,594.0255,594.4917,z,1,0.4489,,594.4918,594.4918,,0,307,307,244,1,245,kaof,,,,,4,harmonic,1.9,nw,z,,,,,,,
,,,,,,,,,,,,001,2023-11-09_13h36.23.977,vowel_harmony,2023.2.3,MacIntel,30.00120005,594.4923,595.4952,,,,,,,,,,,,,,,,,,,,,,,,,,595.4952,597.4944,,0,,,597.4945,597.4947,,0,308,308,341,1,342,işgan,,,,,5,notharmonic,1.95,nw,z,,,,,,,
,,,,,,,,,,,,001,2023-11-09_13h36.23.977,vowel_harmony,2023.2.3,MacIntel,30.00120005,597.4951,598.4928,,,,,,,,,,,,,,,,,,,,,,,,,,598.4928,599.1289,z,1,0.5962,,599.129,599.1291,,0,309,309,339,1,340,asmel,,,,,5,notharmonic,1.95,nw,z,,,,,,,
,,,,,,,,,,,,001,2023-11-09_13h36.23.977,vowel_harmony,2023.2.3,MacIntel,30.00120005,599.1295,600.1251,,,,,,,,,,,,,,,,,,,,,,,,,,600.1252,600.6618,m,1,0.4969,,600.6619,600.662,,0,310,310,49,1,50,şeker,4708,213.9128,4170,0.4559,5,harmonic,1.6,word,m,,,,,,,
,,,,,,,,,,,,001,2023-11-09_13h36.23.977,vowel_harmony,2023.2.3,MacIntel,30.00120005,600.6624,601.6585,,,,,,,,,,,,,,,,,,,,,,,,,,601.6586,602.0919,m,0,0.4143,,602.0919,602.092,,0,311,311,314,1,315,seral,,,,,5,notharmonic,1.7,nw,z,,,,,,,
,,,,,,,,,,,,001,2023-11-09_13h36.23.977,vowel_harmony,2023.2.3,MacIntel,30.00120005,602.0923,603.0937,,,,,,,,,,,,,,,,,,,,,,,,,,603.0938,603.4606,z,1,0.348,,603.4606,603.4607,,0,312,312,283,1,284,fahe,,,,,4,notharmonic,1.95,nw,z,,,,,,,
,,,,,,,,,,,,001,2023-11-09_13h36.23.977,vowel_harmony,2023.2.3,MacIntel,30.00120005,603.461,604.4597,,,,,,,,,,,,,,,,,,,,,,,,,,604.4598,604.9598,z,1,0.4799,,604.9598,604.9598,,0,313,313,270,1,271,miyaj,,,,,5,notharmonic,1.9,nw,z,,,,,,,
,,,,,,,,,,,,001,2023-11-09_13h36.23.977,vowel_harmony,2023.2.3,MacIntel,30.00120005,604.9601,605.9617,,,,,,,,,,,,,,,,,,,,,,,,,,605.9618,606.3913,z,0,0.4101,,606.3913,606.3915,,0,314,314,129,1,130,tahmin,2353,106.911,2273,0.2485,6,notharmonic,1.6,word,m,,,,,,,
,,,,,,,,,,,,001,2023-11-09_13h36.23.977,vowel_harmony,2023.2.3,MacIntel,30.00120005,606.3917,607.3929,,,,,,,,,,,,,,,,,,,,,,,,,,607.3929,607.9291,m,1,0.5,,607.9291,607.9292,,0,315,315,152,1,153,tedavi,1865,84.7382,1597,0.1746,6,notharmonic,1.8,word,m,,,,,,,
,,,,,,,,,,,,001,2023-11-09_13h36.23.977,vowel_harmony,2023.2.3,MacIntel,30.00120005,607.9295,608.9261,,,,,,,,,,,,,,,,,,,,,,,,,,608.9261,609.3283,z,0,0.3882,,609.3283,609.3284,,0,316,316,50,1,51,kanun,1198,54.4324,1010,0.1104,5,harmonic,1.6,word,m,,,,,,,
,,,,,,,,,,,,001,2023-11-09_13h36.23.977,vowel_harmony,2023.2.3,MacIntel,30.00120005,609.3287,610.3257,,,,,,,,,,,,,,,,,,,,,,,,,,610.3258,610.7594,m,0,0.4045,,610.7594,610.7596,,0,317,317,238,1,239,kocı,,,,,4,harmonic,1.95,nw,z,,,,,,,
,,,,,,,,,,,,001,2023-11-09_13h36.23.977,vowel_harmony,2023.2.3,MacIntel,30.00120005,610.7599,611.7593,,,,,,,,,,,,,,,,,,,,,,,,,,611.7594,612.227,m,0,0.439,,612.2271,612.2271,,0,318,318,180,1,181,ayaro,,,,,5,harmonic,1.8,nw,z,,,,,,,
,,,,,,,,,,,,001,2023-11-09_13h36.23.977,vowel_harmony,2023.2.3,MacIntel,30.00120005,612.2274,613.2253,,,,,,,,,,,,,,,,,,,,,,,,,,613.2254,613.6268,m,0,0.3658,,613.6269,613.6269,,0,319,319,216,1,217,çeyret,,,,,6,harmonic,1.9,nw,z,,,,,,,
,,,,,,,,,,,,001,2023-11-09_13h36.23.977,vowel_harmony,2023.2.3,MacIntel,30.00120005,613.6272,614.6264,,,,,,,,,,,,,,,,,,,,,,,,,,614.6264,615.0593,z,0,0.4154,,615.0593,615.0593,,0,320,320,40,1,41,tepki,1695,77.0141,1578,0.1725,5,harmonic,1.55,word,m,,,,,,,
,,,,,,,,,,,,001,2023-11-09_13h36.23.977,vowel_harmony,2023.2.3,MacIntel,30.00120005,615.0597,616.0592,,,,,,,,,,,,,,,,,,,,,,,,,,616.0593,616.8262,z,1,0.7416,,616.8263,616.8263,,0,321,321,296,1,297,işban,,,,,5,notharmonic,1.95,nw,z,,,,,,,
,,,,,,,,,,,,001,2023-11-09_13h36.23.977,vowel_harmony,2023.2.3,MacIntel,30.00120005,616.8267,617.8281,,,,,,,,,,,,,,,,,,,,,,,,,,617.8281,618.2278,m,1,0.3805,,618.2278,618.2279,,0,322,322,6,1,7,hayal,4498,204.3713,4079,0.4459,5,harmonic,1.45,word,m,,,,,,,
,,,,,,,,,,,,001,2023-11-09_13h36.23.977,vowel_harmony,2023.2.3,MacIntel,30.00120005,618.2281,619.2269,,,,,,,,,,,,,,,,,,,,,,,,,,619.227,619.7277,m,0,0.4867,,619.7277,619.7279,,0,323,323,199,1,200,movu,,,,,4,harmonic,1.9,nw,z,,,,,,,
,,,,,,,,,,,,001,2023-11-09_13h36.23.977,vowel_harmony,2023.2.3,MacIntel,30.00120005,619.7283,620.7288,,,,,,,,,,,,,,,,,,,,,,,,,,620.7289,621.1265,m,0,0.371,,621.1266,621.1267,,0,324,324,208,1,209,yayram,,,,,6,harmonic,1.85,nw,z,,,,,,,
,,,,,,,,,,,,001,2023-11-09_13h36.23.977,vowel_harmony,2023.2.3,MacIntel,30.00120005,621.1271,622.1291,,,,,,,,,,,,,,,,,,,,,,,,,,622.1291,622.5272,z,0,0.3776,,622.5272,622.5273,,0,325,325,122,1,123,devam,17666,802.673,16284,1.7802,5,notharmonic,1.55,word,m,,,,,,,
,,,,,,,,,,,,001,2023-11-09_13h36.23.977,vowel_harmony,2023.2.3,MacIntel,30.00120005,622.5276,623.5277,,,,,,,,,,,,,,,,,,,,,,,,,,623.5277,623.8635,m,0,0.2943,,623.8635,623.8636,,0,326,326,204,1,205,gerkez,,,,,6,harmonic,1.9,nw,z,,,,,,,
,,,,,,,,,,,,001,2023-11-09_13h36.23.977,vowel_harmony,2023.2.3,MacIntel,30.00120005,623.8642,624.8613,,,,,,,,,,,,,,,,,,,,,,,,,,624.8614,625.4945,z,1,0.6145,,625.4946,625.4947,,0,327,327,195,1,196,netüm,,,,,5,harmonic,1.95,nw,z,,,,,,,
,,,,,,,,,,,,001,2023-11-09_13h36.23.977,vowel_harmony,2023.2.3,MacIntel,30.00120005,625.4949,626.4936,,,,,,,,,,,,,,,,,,,,,,,,,,626.4936,626.9938,z,1,0.4701,,626.9938,626.9939,,0,328,328,197,1,198,ranar,,,,,5,harmonic,1.75,nw,z,,,,,,,
,,,,,,,,,,,,001,2023-11-09_13h36.23.977,vowel_harmony,2023.2.3,MacIntel,30.00120005,626.9942,627.9953,,,,,,,,,,,,,,,,,,,,,,,,,,627.9954,628.4303,z,0,0.3941,,628.4304,628.4304,,0,329,329,144,1,145,garip,2567,116.6343,2355,0.2574,5,notharmonic,1.65,word,m,,,,,,,
,,,,,,,,,,,,001,2023-11-09_13h36.23.977,vowel_harmony,2023.2.3,MacIntel,30.00120005,628.431,629.4287,,,,,,,,,,,,,,,,,,,,,,,,,,629.4289,629.7619,z,0,0.321,,629.7619,629.762,,0,330,330,168,1,169,kilo,3389,153.9827,2646,0.2893,4,notharmonic,1.65,word,m,,,,,,,
,,,,,,,,,,,,001,2023-11-09_13h36.23.977,vowel_harmony,2023.2.3,MacIntel,30.00120005,629.7624,630.7623,,,,,,,,,,,,,,,,,,,,,,,,,,630.7624,631.2296,m,0,0.4247,,631.2296,631.2297,,0,331,331,230,1,231,bikir,,,,,5,harmonic,1.75,nw,z,,,,,,,
,,,,,,,,,,,,001,2023-11-09_13h36.23.977,vowel_harmony,2023.2.3,MacIntel,30.00120005,631.2302,632.2279,,,,,,,,,,,,,,,,,,,,,,,,,,632.228,632.5947,z,1,0.3462,,632.5947,632.5948,,0,332,332,324,1,325,pakeh,,,,,5,notharmonic,1.9,nw,z,,,,,,,
,,,,,,,,,,,,001,2023-11-09_13h36.23.977,vowel_harmony,2023.2.3,MacIntel,30.00120005,632.5951,633.595,,,,,,,,,,,,,,,,,,,,,,,,,,633.5951,634.0627,m,1,0.4255,,634.0628,634.0628,,0,333,333,60,1,61,doğu,2105,95.6429,1823,0.1993,4,harmonic,1.05,word,m,,,,,,,
,,,,,,,,,,,,001,2023-11-09_13h36.23.977,vowel_harmony,2023.2.3,MacIntel,30.00120005,634.0633,635.0603,,,,,,,,,,,,,,,,,,,,,,,,,,635.0604,635.6953,m,1,0.6161,,635.6954,635.6955,,0,334,334,85,1,86,geçmiş,4195,190.6042,4039,0.4415,6,harmonic,1.55,word,m,,,,,,,
,,,,,,,,,,,,001,2023-11-09_13h36.23.977,vowel_harmony,2023.2.3,MacIntel,30.00120005,635.6958,636.6947,,,,,,,,,,,,,,,,,,,,,,,,,,636.6947,637.2293,z,1,0.5228,,637.2293,637.2294,,0,335,335,225,1,226,düvem,,,,,5,harmonic,1.7,nw,z,,,,,,,
,,,,,,,,,,,,001,2023-11-09_13h36.23.977,vowel_harmony,2023.2.3,MacIntel,30.00120005,637.2299,638.2296,,,,,,,,,,,,,,,,,,,,,,,,,,638.2297,638.8275,z,1,0.566,,638.8275,638.8277,,0,336,336,308,1,309,hafer,,,,,5,notharmonic,1.85,nw,z,,,,,,,
,,,,,,,,,,,,001,2023-11-09_13h36.23.977,vowel_harmony,2023.2.3,MacIntel,30.00120005,638.828,639.8289,,,,,,,,,,,,,,,,,,,,,,,,,,639.8289,640.2946,z,1,0.4464,,640.2946,640.2947,,0,337,337,256,1,257,yaruza,,,,,6,harmonic,1.9,nw,z,,,,,,,
,,,,,,,,,,,,001,2023-11-09_13h36.23.977,vowel_harmony,2023.2.3,MacIntel,30.00120005,640.2951,641.295,,,,,,,,,,,,,,,,,,,,,,,,,,641.2951,641.762,m,1,0.4345,,641.762,641.7622,,0,338,338,87,1,88,mümkün,6604,300.0596,6264,0.6848,6,harmonic,1.9,word,m,,,,,,,
,,,,,,,,,,,,001,2023-11-09_13h36.23.977,vowel_harmony,2023.2.3,MacIntel,30.00120005,641.7626,642.7636,,,,,,,,,,,,,,,,,,,,,,,,,,642.7636,642.8644,z,1,0.0608,,642.8644,642.8646,,0,339,339,223,1,224,kakon,,,,,5,harmonic,1.85,nw,z,,,,,,,
,,,,,,,,,,,,001,2023-11-09_13h36.23.977,vowel_harmony,2023.2.3,MacIntel,30.00120005,642.865,643.8623,,,,,,,,,,,,,,,,,,,,,,,,,,643.8623,644.3932,m,1,0.5143,,644.3933,644.3933,,0,340,340,26,1,27,sebze,1094,49.707,961,0.1051,5,harmonic,1.9,word,m,,,,,,,
,,,,,,,,,,,,001,2023-11-09_13h36.23.977,vowel_harmony,2023.2.3,MacIntel,30.00120005,644.3937,645.3941,,,,,,,,,,,,,,,,,,,,,,,,,,645.3941,645.9938,z,1,0.5699,,645.9939,645.9939,,0,341,341,286,1,287,cedan,,,,,5,notharmonic,1.8,nw,z,,,,,,,
,,,,,,,,,,,,001,2023-11-09_13h36.23.977,vowel_harmony,2023.2.3,MacIntel,30.00120005,645.9942,646.995,,,,,,,,,,,,,,,,,,,,,,,,,,646.995,647.4281,z,0,0.4064,,647.4281,647.4283,,0,342,342,102,1,103,esas,1965,89.2818,1795,0.1962,4,notharmonic,1.75,word,m,,,,,,,
,,,,,,,,,,,,001,2023-11-09_13h36.23.977,vowel_harmony,2023.2.3,MacIntel,30.00120005,647.4285,648.4317,,,,,,,,,,,,,,,,,,,,,,,,,,648.4318,649.0313,z,1,0.5571,,649.0314,649.0316,,0,343,343,315,1,316,takep,,,,,5,notharmonic,1.85,nw,z,,,,,,,
,,,,,,,,,,,,001,2023-11-09_13h36.23.977,vowel_harmony,2023.2.3,MacIntel,30.00120005,649.032,650.0274,,,,,,,,,,,,,,,,,,,,,,,,,,650.0275,650.5299,m,1,0.4687,,650.53,650.5301,,0,344,344,133,1,134,taze,2268,103.0489,2062,0.2254,4,notharmonic,1.65,word,m,,,,,,,
,,,,,,,,,,,,001,2023-11-09_13h36.23.977,vowel_harmony,2023.2.3,MacIntel,30.00120005,650.5305,651.5301,,,,,,,,,,,,,,,,,,,,,,,,,,651.5302,651.9977,z,0,0.4256,,651.9977,651.9979,,0,345,345,81,1,82,üretim,1593,72.3796,1283,0.1403,6,harmonic,1.6,word,m,,,,,,,
,,,,,,,,,,,,001,2023-11-09_13h36.23.977,vowel_harmony,2023.2.3,MacIntel,30.00120005,651.9983,652.9942,,,,,,,,,,,,,,,,,,,,,,,,,,652.9942,653.3609,m,1,0.3545,,653.361,653.3611,,0,346,346,9,1,10,karar,8108,368.3954,7436,0.8129,5,harmonic,1.6,word,m,,,,,,,
,,,,,,,,,,,,001,2023-11-09_13h36.23.977,vowel_harmony,2023.2.3,MacIntel,30.00120005,653.3615,654.3643,,,,,,,,,,,,,,,,,,,,,,,,,,654.3643,654.8611,z,1,0.4789,,654.8613,654.8614,,0,347,347,196,1,197,bilön,,,,,5,harmonic,1.9,nw,z,,,,,,,
,,,,,,,,,,,,001,2023-11-09_13h36.23.977,vowel_harmony,2023.2.3,MacIntel,30.00120005,654.8618,655.8714,,,,,,,,,,,,,,,,,,,,,,,,,,655.8714,656.2641,z,0,0.3557,,656.2643,656.2643,,0,348,348,175,1,176,aile,3655,166.0687,3126,0.3417,4,notharmonic,1,word,m,,,,,,,
,,,,,,,,,,,,001,2023-11-09_13h36.23.977,vowel_harmony,2023.2.3,MacIntel,30.00120005,656.2647,657.263,,,,,,,,,,,,,,,,,,,,,,,,,,657.263,657.6645,m,0,0.3634,,657.6645,657.6646,,0,349,349,182,1,183,orsın,,,,,5,harmonic,1.95,nw,z,,,,,,,
,,,,,,,,,,,,001,2023-11-09_13h36.23.977,vowel_harmony,2023.2.3,MacIntel,30.00120005,657.6652,658.6644,,,,,,,,,,,,,,,,,,,,,,,,,,658.6644,659.4942,z,0,0.8046,,659.4942,659.4943,,0,350,350,145,1,146,iddia,2430,110.4096,2295,0.2509,5,notharmonic,1.85,word,m,,,,,,,
,,,,,,,,,,,,001,2023-11-09_13h36.23.977,vowel_harmony,2023.2.3,MacIntel,30.00120005,659.4947,660.4958,,,,,,,,,,,,,,,,,,,,,,,,,,660.4958,661.8312,z,0,1.3033,,661.8312,661.8313,,0,351,351,159,1,160,vakit,3476,157.9357,3298,0.3605,5,notharmonic,1.65,word,m,,,,,,,
,,,,,,,,,,,,001,2023-11-09_13h36.23.977,vowel_harmony,2023.2.3,MacIntel,30.00120005,661.8316,662.8281,,,,,,,,,,,,,,,,,,,,,,,,,,662.8281,663.6947,z,1,0.8473,,663.6948,663.6949,,0,352,352,294,1,295,mesap,,,,,5,notharmonic,1.8,nw,z,,,,,,,
,,,,,,,,,,,,001,2023-11-09_13h36.23.977,vowel_harmony,2023.2.3,MacIntel,30.00120005,663.6954,664.696,,,,,,,,,,,,,,,,,,,,,,,,,,664.696,666.6971,,0,,,666.6972,666.6974,,0,353,353,202,1,203,güvin,,,,,5,harmonic,1.95,nw,z,,,,,,,
,,,,,,,,,,,,001,2023-11-09_13h36.23.977,vowel_harmony,2023.2.3,MacIntel,30.00120005,666.6979,667.6949,,,,,,,,,,,,,,,,,,,,,,,,,,667.695,668.1287,m,1,0.4124,,668.1287,668.1288,,0,354,354,5,1,6,bebek,3301,149.9843,2794,0.3054,5,harmonic,1.6,word,m,,,,,,,
,,,,,,,,,,,,001,2023-11-09_13h36.23.977,vowel_harmony,2023.2.3,MacIntel,30.00120005,668.1291,669.1291,,,,,,,,,,,,,,,,,,,,,,,,,,669.1291,669.6625,z,0,0.5133,,669.6626,669.6627,,0,355,355,66,1,67,sanık,768,34.8949,699,0.0764,5,harmonic,1.85,word,m,,,,,,,
,,,,,,,,,,,,001,2023-11-09_13h36.23.977,vowel_harmony,2023.2.3,MacIntel,30.00120005,669.663,670.6645,,,,,,,,,,,,,,,,,,,,,,,,,,670.6646,671.1638,m,1,0.4848,,671.1638,671.1639,,0,356,356,52,1,53,resim,2506,113.8627,2188,0.2392,5,harmonic,1.4,word,m,,,,,,,
,,,,,,,,,,,,001,2023-11-09_13h36.23.977,vowel_harmony,2023.2.3,MacIntel,30.00120005,671.1645,672.1624,,,,,,,,,,,,,,,,,,,,,,,,,,672.1624,672.6957,z,1,0.5195,,672.6957,672.6958,,0,357,357,210,1,211,şevci,,,,,5,harmonic,1.75,nw,z,,,,,,,
,,,,,,,,,,,,001,2023-11-09_13h36.23.977,vowel_harmony,2023.2.3,MacIntel,30.00120005,672.6962,673.6978,,,,,,,,,,,,,,,,,,,,,,,,,,673.6979,674.0962,m,1,0.3805,,674.0963,674.0963,,0,358,358,27,1,28,bölge,1283,58.2944,1123,0.1228,5,harmonic,1.65,word,m,,,,,,,
,,,,,,,,,,,,001,2023-11-09_13h36.23.977,vowel_harmony,2023.2.3,MacIntel,30.00120005,674.0965,675.0968,,,,,,,,,,,,,,,,,,,,,,,,,,675.0968,675.7284,z,1,0.6107,,675.7284,675.7285,,0,359,359,357,1,358,işarek,,,,,6,notharmonic,1.95,nw,z,,,,,,,
,,,,,,,,,,,,001,2023-11-09_13h36.23.977,vowel_harmony,2023.2.3,MacIntel,30.00120005,,,,,,,,,,,,,,,,,,,,,,,,,,,,,,,,,,,,,,,,,,,,,,,,,,,,,,,675.729,677.3322,space,1.5675,